File: notebooks/data/xrd_data/ML_20220718_45_SJD_4_LaB6-4min.csv
;,2THETA,
5.0000,252
5.0372,272
5.0743,241
5.1115,262
5.1486,252
5.1858,231
5.2229,242
5.2601,242
5.2972,228
5.3344,239
5.3715,230
5.4087,220
5.4458,224
5.4830,233
5.5201,219
5.5573,227
5.5944,203
5.6316,214
5.6687,223
5.7059,224
5.7430,224
5.7802,210
5.8173,222
5.8545,196
5.8916,178
5.9288,192
5.9659,200
6.0031,189
6.0402,188
6.0774,196
6.1145,186
6.1517,204
6.1888,166
6.2260,207
6.2631,199
6.3003,163
6.3374,202
6.3746,172
6.4117,168
6.4489,205
6.4860,177
6.5232,140
6.5604,174
6.5975,172
6.6347,219
6.6718,192
6.7090,139
6.7461,191
6.7833,185
6.8204,171
6.8576,192
6.8947,162
6.9319,151
6.9690,168
7.0062,173
7.0433,181
7.0805,150
7.1176,165
7.1548,154
7.1919,154
7.2291,148
7.2662,153
7.3034,143
7.3405,145
7.3777,170
7.4148,149
7.4520,177
7.4891,149
7.5263,153
7.5634,185
7.6006,179
7.6377,162
7.6749,174
7.7120,173
7.7492,155
7.7863,175
7.8235,188
7.8606,171
7.8978,178
7.9349,192
7.9721,184
8.0092,174
8.0464,208
8.0835,184
8.1207,198
8.1579,207
8.1950,201
8.2322,229
8.2693,195
8.3065,192
8.3436,170
8.3808,205
8.4179,200
8.4551,200
8.4922,186
8.5294,194
8.5665,196
8.6037,218
8.6408,188
8.6780,214
8.7151,217
8.7523,203
8.7894,202
8.8266,191
8.8637,202
8.9009,194
8.9380,225
8.9752,219
9.0123,204
9.0495,204
9.0866,240
9.1238,238
9.1609,231
9.1981,211
9.2352,236
9.2724,203
9.3095,236
9.3467,235
9.3838,209
9.4210,226
9.4581,241
9.4953,235
9.5324,243
9.5696,229
9.6067,219
9.6439,224
9.6811,230
9.7182,235
9.7554,254
9.7925,239
9.8297,248
9.8668,242
9.9040,242
9.9411,251
9.9783,229
10.0154,236
10.0526,250
10.0897,233
10.1269,248
10.1640,221
10.2012,235
10.2383,257
10.2755,237
10.3126,244
10.3498,238
10.3869,231
10.4241,242
10.4612,236
10.4984,238
10.5355,257
10.5727,246
10.6098,248
10.6470,251
10.6841,234
10.7213,222
10.7584,242
10.7956,232
10.8327,230
10.8699,239
10.9070,254
10.9442,194
10.9813,238
11.0185,231
11.0556,230
11.0928,254
11.1299,239
11.1671,245
11.2043,250
11.2414,239
11.2786,223
11.3157,248
11.3529,246
11.3900,240
11.4272,238
11.4643,250
11.5015,250
11.5386,216
11.5758,218
11.6129,225
11.6501,209
11.6872,250
11.7244,206
11.7615,220
11.7987,234
11.8358,231
11.8730,241
11.9101,224
11.9473,220
11.9844,226
12.0216,233
12.0587,250
12.0959,240
12.1330,245
12.1702,219
12.2073,221
12.2445,221
12.2816,228
12.3188,228
12.3559,225
12.3931,214
12.4302,234
12.4674,213
12.5045,235
12.5417,222
12.5788,220
12.6160,199
12.6531,227
12.6903,200
12.7274,194
12.7646,206
12.8018,189
12.8389,206
12.8761,188
12.9132,202
12.9504,209
12.9875,189
13.0247,231
13.0618,177
13.0990,237
13.1361,224
13.1733,174
13.2104,199
13.2476,230
13.2847,190
13.3219,211
13.3590,205
13.3962,194
13.4333,186
13.4705,199
13.5076,193
13.5448,200
13.5819,185
13.6191,189
13.6562,170
13.6934,210
13.7305,174
13.7677,194
13.8048,189
13.8420,161
13.8791,192
13.9163,182
13.9534,169
13.9906,201
14.0277,188
14.0649,177
14.1020,181
14.1392,180
14.1763,182
14.2135,197
14.2506,174
14.2878,159
14.3250,178
14.3621,174
14.3993,172
14.4364,178
14.4736,158
14.5107,170
14.5479,171
14.5850,162
14.6222,168
14.6593,186
14.6965,158
14.7336,163
14.7708,165
14.8079,193
14.8451,142
14.8822,173
14.9194,166
14.9565,177
14.9937,163
15.0308,180
15.0680,167
15.1051,174
15.1423,179
15.1794,180
15.2166,164
15.2537,167
15.2909,167
15.3280,170
15.3652,146
15.4023,165
15.4395,182
15.4766,171
15.5138,153
15.5509,169
15.5881,162
15.6252,192
15.6624,178
15.6995,139
15.7367,170
15.7738,175
15.8110,158
15.8482,165
15.8853,157
15.9225,140
15.9596,136
15.9968,165
16.0339,164
16.0711,189
16.1082,173
16.1454,157
16.1825,176
16.2197,171
16.2568,160
16.2940,179
16.3311,154
16.3683,136
16.4054,162
16.4426,165
16.4797,155
16.5169,159
16.5540,157
16.5912,166
16.6283,144
16.6655,145
16.7026,162
16.7398,169
16.7769,145
16.8141,163
16.8512,171
16.8884,148
16.9255,149
16.9627,158
16.9998,142
17.0370,159
17.0741,171
17.1113,157
17.1484,160
17.1856,177
17.2227,163
17.2599,168
17.2970,176
17.3342,156
17.3713,173
17.4085,164
17.4457,160
17.4828,167
17.5200,165
17.5571,171
17.5943,183
17.6314,183
17.6686,161
17.7057,159
17.7429,148
17.7800,146
17.8172,184
17.8543,190
17.8915,160
17.9286,135
17.9658,162
18.0029,191
18.0401,176
18.0772,158
18.1144,156
18.1515,180
18.1887,175
18.2258,172
18.2630,182
18.3001,172
18.3373,164
18.3744,174
18.4116,179
18.4487,163
18.4859,164
18.5230,162
18.5602,155
18.5973,183
18.6345,150
18.6716,174
18.7088,186
18.7459,145
18.7831,162
18.8202,166
18.8574,151
18.8945,142
18.9317,168
18.9689,182
19.0060,190
19.0432,157
19.0803,153
19.1175,181
19.1546,149
19.1918,158
19.2289,192
19.2661,185
19.3032,169
19.3404,179
19.3775,156
19.4147,181
19.4518,153
19.4890,141
19.5261,166
19.5633,191
19.6004,167
19.6376,178
19.6747,171
19.7119,182
19.7490,179
19.7862,187
19.8233,179
19.8605,188
19.8976,202
19.9348,166
19.9719,164
20.0091,190
20.0462,181
20.0834,172
20.1205,171
20.1577,170
20.1948,161
20.2320,176
20.2691,159
20.3063,159
20.3434,161
20.3806,165
20.4177,177
20.4549,161
20.4921,191
20.5292,173
20.5664,188
20.6035,190
20.6407,185
20.6778,190
20.7150,186
20.7521,182
20.7893,180
20.8264,171
20.8636,177
20.9007,218
20.9379,196
20.9750,187
21.0122,206
21.0493,202
21.0865,181
21.1236,196
21.1608,222
21.1979,269
21.2351,350
21.2722,306
21.3094,289
21.3465,459
21.3837,450
21.4208,362
21.4580,223
21.4951,187
21.5323,195
21.5694,198
21.6066,199
21.6437,183
21.6809,218
21.7180,179
21.7552,193
21.7923,211
21.8295,200
21.8666,231
21.9038,196
21.9409,183
21.9781,196
22.0152,209
22.0524,190
22.0896,168
22.1267,198
22.1639,198
22.2010,187
22.2382,199
22.2753,195
22.3125,202
22.3496,211
22.3868,167
22.4239,194
22.4611,187
22.4982,205
22.5354,200
22.5725,206
22.6097,229
22.6468,188
22.6840,168
22.7211,197
22.7583,201
22.7954,191
22.8326,207
22.8697,205
22.9069,201
22.9440,200
22.9812,204
23.0183,201
23.0555,208
23.0926,207
23.1298,221
23.1669,210
23.2041,211
23.2412,222
23.2784,186
23.3155,228
23.3527,195
23.3898,179
23.4270,205
23.4641,197
23.5013,212
23.5384,206
23.5756,227
23.6128,163
23.6499,173
23.6871,197
23.7242,203
23.7614,202
23.7985,179
23.8357,216
23.8728,208
23.9100,222
23.9471,211
23.9843,201
24.0214,192
24.0586,203
24.0957,199
24.1329,200
24.1700,200
24.2072,198
24.2443,232
24.2815,221
24.3186,207
24.3558,210
24.3929,197
24.4301,215
24.4672,233
24.5044,211
24.5415,208
24.5787,188
24.6158,203
24.6530,205
24.6901,190
24.7273,195
24.7644,190
24.8016,195
24.8387,193
24.8759,208
24.9130,212
24.9502,193
24.9873,191
25.0245,184
25.0616,186
25.0988,192
25.1360,171
25.1731,198
25.2103,200
25.2474,201
25.2846,197
25.3217,168
25.3589,200
25.3960,215
25.4332,174
25.4703,203
25.5075,186
25.5446,170
25.5818,217
25.6189,192
25.6561,213
25.6932,192
25.7304,176
25.7675,196
25.8047,189
25.8418,181
25.8790,202
25.9161,207
25.9533,181
25.9904,196
26.0276,171
26.0647,216
26.1019,182
26.1390,187
26.1762,228
26.2133,185
26.2505,188
26.2876,200
26.3248,186
26.3619,174
26.3991,200
26.4362,193
26.4734,189
26.5105,199
26.5477,181
26.5848,174
26.6220,195
26.6591,184
26.6963,190
26.7335,201
26.7706,182
26.8078,208
26.8449,172
26.8821,189
26.9192,216
26.9564,204
26.9935,182
27.0307,196
27.0678,207
27.1050,183
27.1421,199
27.1793,239
27.2164,243
27.2536,217
27.2907,194
27.3279,181
27.3650,184
27.4022,184
27.4393,200
27.4765,187
27.5136,179
27.5508,185
27.5879,175
27.6251,163
27.6622,191
27.6994,185
27.7365,166
27.7737,191
27.8108,166
27.8480,178
27.8851,186
27.9223,173
27.9594,182
27.9966,190
28.0337,175
28.0709,178
28.1080,162
28.1452,185
28.1823,175
28.2195,157
28.2567,167
28.2938,186
28.3310,180
28.3681,174
28.4053,167
28.4424,166
28.4796,177
28.5167,180
28.5539,165
28.5910,160
28.6282,171
28.6653,159
28.7025,163
28.7396,169
28.7768,153
28.8139,171
28.8511,167
28.8882,173
28.9254,175
28.9625,171
28.9997,162
29.0368,149
29.0740,136
29.1111,162
29.1483,135
29.1854,165
29.2226,160
29.2597,185
29.2969,160
29.3340,162
29.3712,164
29.4083,156
29.4455,160
29.4826,176
29.5198,159
29.5569,173
29.5941,154
29.6312,172
29.6684,151
29.7055,160
29.7427,144
29.7799,148
29.8170,147
29.8542,153
29.8913,147
29.9285,164
29.9656,159
30.0028,150
30.0399,155
30.0771,159
30.1142,180
30.1514,153
30.1885,149
30.2257,168
30.2628,158
30.3000,179
30.3371,231
30.3743,310
30.4114,298
30.4486,246
30.4857,207
30.5229,173
30.5600,157
30.5972,152
30.6343,141
30.6715,152
30.7086,166
30.7458,152
30.7829,133
30.8201,151
30.8572,143
30.8944,123
30.9315,141
30.9687,143
31.0058,143
31.0430,144
31.0801,154
31.1173,153
31.1544,130
31.1916,150
31.2287,137
31.2659,155
31.3030,139
31.3402,171
31.3774,139
31.4145,138
31.4517,135
31.4888,127
31.5260,140
31.5631,127
31.6003,137
31.6374,145
31.6746,126
31.7117,137
31.7489,108
31.7860,130
31.8232,128
31.8603,112
31.8975,130
31.9346,144
31.9718,130
32.0089,133
32.0461,130
32.0832,128
32.1204,124
32.1575,140
32.1947,116
32.2318,134
32.2690,152
32.3061,133
32.3433,149
32.3804,125
32.4176,144
32.4547,126
32.4919,148
32.5290,150
32.5662,132
32.6033,154
32.6405,143
32.6776,132
32.7148,131
32.7519,113
32.7891,124
32.8262,130
32.8634,134
32.9006,130
32.9377,123
32.9749,109
33.0120,124
33.0492,124
33.0863,137
33.1235,132
33.1606,122
33.1978,109
33.2349,116
33.2721,105
33.3092,105
33.3464,118
33.3835,105
33.4207,128
33.4578,111
33.4950,145
33.5321,97
33.5693,119
33.6064,129
33.6436,117
33.6807,124
33.7179,113
33.7550,123
33.7922,113
33.8293,109
33.8665,117
33.9036,104
33.9408,109
33.9779,125
34.0151,117
34.0522,127
34.0894,119
34.1265,107
34.1637,123
34.2008,107
34.2380,121
34.2751,118
34.3123,119
34.3494,102
34.3866,110
34.4238,99
34.4609,102
34.4981,95
34.5352,111
34.5724,126
34.6095,127
34.6467,121
34.6838,148
34.7210,156
34.7581,179
34.7953,155
34.8324,135
34.8696,136
34.9067,128
34.9439,109
34.9810,111
35.0182,111
35.0553,126
35.0925,97
35.1296,110
35.1668,108
35.2039,94
35.2411,121
35.2782,103
35.3154,103
35.3525,104
35.3897,114
35.4268,106
35.4640,130
35.5011,107
35.5383,94
35.5754,95
35.6126,101
35.6497,102
35.6869,115
35.7240,99
35.7612,109
35.7983,115
35.8355,99
35.8726,87
35.9098,109
35.9469,103
35.9841,93
36.0213,87
36.0584,90
36.0956,112
36.1327,109
36.1699,102
36.2070,87
36.2442,104
36.2813,89
36.3185,101
36.3556,83
36.3928,91
36.4299,79
36.4671,98
36.5042,79
36.5414,100
36.5785,83
36.6157,80
36.6528,109
36.6900,86
36.7271,87
36.7643,90
36.8014,86
36.8386,106
36.8757,90
36.9129,85
36.9500,82
36.9872,81
37.0243,99
37.0615,94
37.0986,111
37.1358,101
37.1729,103
37.2101,81
37.2472,81
37.2844,84
37.3215,96
37.3587,82
37.3958,104
37.4330,131
37.4701,130
37.5073,122
37.5445,120
37.5816,103
37.6188,82
37.6559,100
37.6931,105
37.7302,98
37.7674,96
37.8045,81
37.8417,88
37.8788,74
37.9160,80
37.9531,85
37.9903,108
38.0274,95
38.0646,84
38.1017,79
38.1389,70
38.1760,97
38.2132,74
38.2503,90
38.2875,88
38.3246,85
38.3618,77
38.3989,79
38.4361,81
38.4732,78
38.5104,83
38.5475,98
38.5847,94
38.6218,78
38.6590,84
38.6961,100
38.7333,77
38.7704,63
38.8076,71
38.8447,70
38.8819,74
38.9190,69
38.9562,83
38.9933,94
39.0305,78
39.0677,93
39.1048,83
39.1420,94
39.1791,82
39.2163,95
39.2534,81
39.2906,92
39.3277,78
39.3649,86
39.4020,73
39.4392,82
39.4763,66
39.5135,75
39.5506,86
39.5878,81
39.6249,68
39.6621,77
39.6992,83
39.7364,80
39.7735,86
39.8107,75
39.8478,73
39.8850,79
39.9221,75
39.9593,82
39.9964,87
40.0336,73
40.0707,79
40.1079,73
40.1450,80
40.1822,77
40.2193,74
40.2565,93
40.2936,80
40.3308,64
40.3679,63
40.4051,85
40.4422,74
40.4794,83
40.5165,74
40.5537,69
40.5908,80
40.6280,68
40.6652,98
40.7023,90
40.7395,69
40.7766,69
40.8138,69
40.8509,82
40.8881,79
40.9252,81
40.9624,83
40.9995,82
41.0367,81
41.0738,77
41.1110,86
41.1481,90
41.1853,64
41.2224,80
41.2596,78
41.2967,64
41.3339,80
41.3710,88
41.4082,70
41.4453,55
41.4825,89
41.5196,80
41.5568,79
41.5939,75
41.6311,75
41.6682,70
41.7054,66
41.7425,83
41.7797,81
41.8168,84
41.8540,83
41.8911,96
41.9283,65
41.9654,80
42.0026,72
42.0397,73
42.0769,79
42.1140,77
42.1512,81
42.1884,66
42.2255,68
42.2627,89
42.2998,74
42.3370,77
42.3741,75
42.4113,69
42.4484,86
42.4856,60
42.5227,68
42.5599,90
42.5970,76
42.6342,78
42.6713,88
42.7085,80
42.7456,66
42.7828,72
42.8199,76
42.8571,75
42.8942,77
42.9314,64
42.9685,70
43.0057,71
43.0428,79
43.0800,71
43.1171,84
43.1543,69
43.1914,71
43.2286,111
43.2657,91
43.3029,76
43.3400,70
43.3772,89
43.4143,94
43.4515,99
43.4886,102
43.5258,127
43.5629,107
43.6001,89
43.6372,103
43.6744,88
43.7116,70
43.7487,82
43.7859,68
43.8230,64
43.8602,71
43.8973,80
43.9345,67
43.9716,58
44.0088,78
44.0459,66
44.0831,87
44.1202,68
44.1574,61
44.1945,75
44.2317,83
44.2688,68
44.3060,67
44.3431,75
44.3803,70
44.4174,65
44.4546,72
44.4917,86
44.5289,72
44.5660,97
44.6032,75
44.6403,72
44.6775,94
44.7146,80
44.7518,66
44.7889,81
44.8261,66
44.8632,80
44.9004,66
44.9375,83
44.9747,65
45.0118,67
45.0490,75
45.0861,67
45.1233,65
45.1604,63
45.1976,70
45.2347,82
45.2719,71
45.3091,70
45.3462,71
45.3834,68
45.4205,68
45.4577,65
45.4948,64
45.5320,70
45.5691,66
45.6063,77
45.6434,79
45.6806,67
45.7177,65
45.7549,66
45.7920,79
45.8292,42
45.8663,68
45.9035,61
45.9406,71
45.9778,58
46.0149,61
46.0521,70
46.0892,65
46.1264,72
46.1635,64
46.2007,68
46.2378,69
46.2750,68
46.3121,65
46.3493,65
46.3864,72
46.4236,58
46.4607,71
46.4979,66
46.5350,58
46.5722,59
46.6093,73
46.6465,61
46.6836,46
46.7208,60
46.7579,74
46.7951,49
46.8323,76
46.8694,77
46.9066,80
46.9437,57
46.9809,61
47.0180,53
47.0552,73
47.0923,57
47.1295,67
47.1666,76
47.2038,60
47.2409,71
47.2781,66
47.3152,54
47.3524,68
47.3895,55
47.4267,60
47.4638,54
47.5010,60
47.5381,62
47.5753,59
47.6124,58
47.6496,63
47.6867,65
47.7239,72
47.7610,68
47.7982,70
47.8353,67
47.8725,67
47.9096,55
47.9468,59
47.9839,58
48.0211,62
48.0582,51
48.0954,58
48.1325,46
48.1697,75
48.2068,64
48.2440,62
48.2811,61
48.3183,69
48.3555,75
48.3926,59
48.4298,80
48.4669,70
48.5041,50
48.5412,58
48.5784,58
48.6155,76
48.6527,65
48.6898,77
48.7270,67
48.7641,73
48.8013,68
48.8384,71
48.8756,48
48.9127,89
48.9499,129
48.9870,99
49.0242,68
49.0613,80
49.0985,116
49.1356,78
49.1728,55
49.2099,77
49.2471,68
49.2842,56
49.3214,73
49.3585,57
49.3957,63
49.4328,69
49.4700,68
49.5071,70
49.5443,50
49.5814,63
49.6186,67
49.6557,50
49.6929,63
49.7300,62
49.7672,56
49.8043,68
49.8415,59
49.8786,59
49.9158,60
49.9530,65
49.9901,69
50.0273,53
50.0644,50
50.1016,63
50.1387,76
50.1759,70
50.2130,66
50.2502,64
50.2873,53
50.3245,68
50.3616,63
50.3988,81
50.4359,75
50.4731,66
50.5102,46
50.5474,66
50.5845,48
50.6217,68
50.6588,70
50.6960,44
50.7331,54
50.7703,60
50.8074,48
50.8446,61
50.8817,50
50.9189,55
50.9560,63
50.9932,69
51.0303,58
51.0675,60
51.1046,48
51.1418,48
51.1789,65
51.2161,52
51.2532,62
51.2904,45
51.3275,73
51.3647,73
51.4018,75
51.4390,67
51.4762,67
51.5133,60
51.5505,62
51.5876,66
51.6248,48
51.6619,60
51.6991,65
51.7362,72
51.7734,62
51.8105,62
51.8477,73
51.8848,56
51.9220,74
51.9591,58
51.9963,60
52.0334,60
52.0706,55
52.1077,63
52.1449,58
52.1820,53
52.2192,48
52.2563,58
52.2935,68
52.3306,57
52.3678,47
52.4049,48
52.4421,55
52.4792,54
52.5164,62
52.5535,57
52.5907,47
52.6278,53
52.6650,55
52.7021,52
52.7393,51
52.7764,49
52.8136,56
52.8507,55
52.8879,60
52.9250,59
52.9622,57
52.9994,68
53.0365,63
53.0737,63
53.1108,58
53.1480,64
53.1851,65
53.2223,61
53.2594,61
53.2966,55
53.3337,56
53.3709,59
53.4080,64
53.4452,64
53.4823,63
53.5195,66
53.5566,59
53.5938,50
53.6309,55
53.6681,59
53.7052,66
53.7424,60
53.7795,62
53.8167,67
53.8538,60
53.8910,61
53.9281,75
53.9653,76
54.0024,95
54.0396,71
54.0767,60
54.1139,79
54.1510,70
54.1882,60
54.2253,56
54.2625,53
54.2996,65
54.3368,72
54.3739,70
54.4111,60
54.4482,57
54.4854,48
54.5225,51
54.5597,46
54.5969,63
54.6340,68
54.6712,64
54.7083,55
54.7455,61
54.7826,44
54.8198,47
54.8569,66
54.8941,67
54.9312,62
54.9684,49
55.0055,62
55.0427,46
55.0798,48
55.1170,62
55.1541,44
55.1913,56
55.2284,56
55.2656,62
55.3027,57
55.3399,75
55.3770,69
55.4142,63
55.4513,58
55.4885,63
55.5256,57
55.5628,55
55.5999,48
55.6371,64
55.6742,57
55.7114,59
55.7485,57
55.7857,47
55.8228,69
55.8600,47
55.8971,56
55.9343,45
55.9714,63
56.0086,61
56.0457,59
56.0829,56
56.1201,68
56.1572,57
56.1944,44
56.2315,62
56.2687,63
56.3058,59
56.3430,49
56.3801,56
56.4173,52
56.4544,58
56.4916,70
56.5287,43
56.5659,51
56.6030,57
56.6402,65
56.6773,60
56.7145,61
56.7516,57
56.7888,52
56.8259,51
56.8631,50
56.9002,63
56.9374,41
56.9745,56
57.0117,45
57.0488,64
57.0860,49
57.1231,53
57.1603,53
57.1974,67
57.2346,57
57.2717,54
57.3089,58
57.3460,44
57.3832,60
57.4203,68
57.4575,57
57.4946,63
57.5318,69
57.5689,57
57.6061,54
57.6433,51
57.6804,53
57.7176,54
57.7547,59
57.7919,47
57.8290,63
57.8662,61
57.9033,61
57.9405,53
57.9776,45
58.0148,42
58.0519,60
58.0891,52
58.1262,49
58.1634,54
58.2005,55
58.2377,55
58.2748,73
58.3120,67
58.3491,51
58.3863,63
58.4234,44
58.4606,42
58.4977,67
58.5349,47
58.5720,63
58.6092,53
58.6463,72
58.6835,58
58.7206,49
58.7578,55
58.7949,62
58.8321,45
58.8692,55
58.9064,69
58.9435,59
58.9807,52
59.0178,52
59.0550,51
59.0921,61
59.1293,52
59.1664,56
59.2036,64
59.2408,52
59.2779,44
59.3151,64
59.3522,51
59.3894,49
59.4265,64
59.4637,68
59.5008,56
59.5380,65
59.5751,49
59.6123,59
59.6494,45
59.6866,65
59.7237,42
59.7609,50
59.7980,47
59.8352,52
59.8723,50
59.9095,45
59.9466,54
59.9838,57
60.0024,63