File: notebooks/data/xrd_data/ML_20220721_38_SJD_4_LaB6-4min.uxd
; (content of file Y:\Sam\Apurva-07-20-2022\puck1\ML_20220721_38_SJD_0_LaB6-4min.raw)
_FILEVERSION = 3
_SAMPLE = ML_20220721_38_SJD_0_LaB6-4min
_+SAMPLE =
_SITE = USA
_USER = Administrator
_GONIOMETER_CODE = 20
; Goniometer : D8 theta/2theta, stage : Unknown
_ATTACHMENTS_CODE = 0
_GONIOMETER_RADIUS = 200.5
_FIXED_DIVSLIT = 0.6
_FIXED_SAMPLESLIT = 0
_SOLLER_SLITS = 2
_FIXED_DETSLIT = 9.55
_MONOCHROMATOR = 0
; Incident beam monochromator : None
_SOLLER_SLITS_2 = N
_THIN_FILM = N
_BETA_FILTER = Y
_FIXED_ANTISLIT = 5.89
_ANALYZER_CODE = 0
; Received beam analyzer : None
_DATEMEASURED = "25-Jul-2022 16:42:49"
_WL_UNIT = A
_WL1 = 1.5406
_WL2 = 1.54439
_WL3 = 1.39222
_WLRATIO = 0.5
_ANODE = Cu
_V4_INF_CREATOR = XRDWizard
_V4_INF_CREATOR_VERSION = V2.9.0.22
_V4_INF_WIZARD_VERSION = V2.9.0.22
_V4_INF_WIZARD_ADDINS = V2.9.0.22
_V4_INF_WIZARD_DOCTYPE = XRD
_V4_INF_OSUSER = McQueenLab
_V4_INF_USER = Administrator
_V4_INF_SITE = USA
_V4_INF_SAMPLEID = ML_20220721_38_SJD_0_LaB6-4min

; Data for range 1
_DRIVE = COUPLED
_STEPTIME = 11.28
_STEPSIZE = 0.0185756
_STEPMODE = C
_START = 5
_THETA = 2.5
_2THETA = 5
_KHI = 0
_PHI = 0
_X = 0
_Y = 0
_Z = 0
_DETECTOR = 5
; Detector type : Unknown
_DETECTORSLIT = unkn
_AUX1 = 0
_AUX2 = 0
_AUX3 = 0
_TIMESTARTED = 15
_TEMP_RATE = -1
_TEMP_DELAY = -1
_KV = 40
_MA = 40
_RANGE_WL = 1.5406
_3DPLANE = 0
_V4_ADDITIONALDETECTOR = 257
_V4_PSD2THETA = 3.3878
_V4_PSDCHANNEL1 = 0
_V4_PSDAPERTURE = 12.68
_V4_PSDTYPE = 5
_V4_PSDFIXED = 0
_V4_COUNTERS_MASK = 4096
_V4_DRIVES_MASK = 0
_V4_ENCODERS_MASK = 0
_2THETACOUNTS = 1
; 2THETA  PSD
   5.0000        275
   5.0372        262
   5.0743        253
   5.1115        251
   5.1486        275
   5.1858        272
   5.2229        250
   5.2601        253
   5.2972        228
   5.3344        204
   5.3715        243
   5.4087        258
   5.4458        223
   5.4830        246
   5.5201        242
   5.5573        219
   5.5944        237
   5.6316        223
   5.6687        205
   5.7059        195
   5.7430        234
   5.7802        206
   5.8173        219
   5.8545        217
   5.8916        224
   5.9288        189
   5.9659        181
   6.0031        219
   6.0402        216
   6.0774        208
   6.1145        194
   6.1517        196
   6.1888        195
   6.2260        167
   6.2631        176
   6.3003        160
   6.3374        193
   6.3746        172
   6.4117        187
   6.4489        196
   6.4860        161
   6.5232        172
   6.5604        202
   6.5975        157
   6.6347        149
   6.6718        163
   6.7090        171
   6.7461        137
   6.7833        160
   6.8204        179
   6.8576        167
   6.8947        153
   6.9319        186
   6.9690        149
   7.0062        135
   7.0433        166
   7.0805        169
   7.1176        159
   7.1548        177
   7.1919        186
   7.2291        170
   7.2662        164
   7.3034        138
   7.3405        164
   7.3777        157
   7.4148        186
   7.4520        138
   7.4891        154
   7.5263        185
   7.5634        194
   7.6006        153
   7.6377        176
   7.6749        146
   7.7120        143
   7.7492        189
   7.7863        203
   7.8235        180
   7.8606        175
   7.8978        184
   7.9349        172
   7.9721        204
   8.0092        172
   8.0464        169
   8.0835        183
   8.1207        185
   8.1579        178
   8.1950        202
   8.2322        192
   8.2693        198
   8.3065        199
   8.3436        183
   8.3808        214
   8.4179        176
   8.4551        209
   8.4922        185
   8.5294        197
   8.5665        185
   8.6037        200
   8.6408        211
   8.6780        187
   8.7151        183
   8.7523        214
   8.7894        207
   8.8266        195
   8.8637        213
   8.9009        188
   8.9380        221
   8.9752        225
   9.0123        227
   9.0495        218
   9.0866        212
   9.1238        232
   9.1609        219
   9.1981        235
   9.2352        181
   9.2724        211
   9.3095        224
   9.3467        219
   9.3838        209
   9.4210        229
   9.4581        236
   9.4953        223
   9.5324        237
   9.5696        206
   9.6067        244
   9.6439        232
   9.6811        221
   9.7182        236
   9.7554        230
   9.7925        230
   9.8297        210
   9.8668        238
   9.9040        256
   9.9411        250
   9.9783        228
  10.0154        219
  10.0526        262
  10.0897        230
  10.1269        263
  10.1640        262
  10.2012        249
  10.2383        264
  10.2755        274
  10.3126        227
  10.3498        250
  10.3869        234
  10.4241        249
  10.4612        248
  10.4984        251
  10.5355        259
  10.5727        222
  10.6098        236
  10.6470        245
  10.6841        253
  10.7213        212
  10.7584        249
  10.7956        227
  10.8327        249
  10.8699        243
  10.9070        224
  10.9442        255
  10.9813        238
  11.0185        244
  11.0556        221
  11.0928        237
  11.1299        242
  11.1671        228
  11.2043        226
  11.2414        239
  11.2786        243
  11.3157        234
  11.3529        245
  11.3900        225
  11.4272        267
  11.4643        223
  11.5015        266
  11.5386        222
  11.5758        262
  11.6129        235
  11.6501        211
  11.6872        222
  11.7244        229
  11.7615        239
  11.7987        229
  11.8358        247
  11.8730        246
  11.9101        262
  11.9473        221
  11.9844        223
  12.0216        228
  12.0587        238
  12.0959        204
  12.1330        266
  12.1702        214
  12.2073        232
  12.2445        232
  12.2816        234
  12.3188        220
  12.3559        211
  12.3931        214
  12.4302        208
  12.4674        233
  12.5045        225
  12.5417        238
  12.5788        204
  12.6160        208
  12.6531        225
  12.6903        222
  12.7274        230
  12.7646        187
  12.8018        185
  12.8389        197
  12.8761        204
  12.9132        216
  12.9504        223
  12.9875        208
  13.0247        230
  13.0618        188
  13.0990        207
  13.1361        197
  13.1733        201
  13.2104        201
  13.2476        191
  13.2847        199
  13.3219        203
  13.3590        203
  13.3962        193
  13.4333        203
  13.4705        206
  13.5076        179
  13.5448        178
  13.5819        191
  13.6191        180
  13.6562        206
  13.6934        192
  13.7305        188
  13.7677        194
  13.8048        194
  13.8420        170
  13.8791        173
  13.9163        199
  13.9534        193
  13.9906        175
  14.0277        187
  14.0649        183
  14.1020        150
  14.1392        190
  14.1763        167
  14.2135        176
  14.2506        175
  14.2878        194
  14.3250        212
  14.3621        179
  14.3993        176
  14.4364        180
  14.4736        158
  14.5107        170
  14.5479        182
  14.5850        164
  14.6222        204
  14.6593        190
  14.6965        182
  14.7336        161
  14.7708        193
  14.8079        151
  14.8451        156
  14.8822        197
  14.9194        170
  14.9565        172
  14.9937        161
  15.0308        144
  15.0680        169
  15.1051        175
  15.1423        159
  15.1794        172
  15.2166        186
  15.2537        177
  15.2909        152
  15.3280        168
  15.3652        163
  15.4023        196
  15.4395        161
  15.4766        171
  15.5138        170
  15.5509        179
  15.5881        176
  15.6252        165
  15.6624        163
  15.6995        187
  15.7367        173
  15.7738        157
  15.8110        180
  15.8482        152
  15.8853        179
  15.9225        154
  15.9596        148
  15.9968        169
  16.0339        154
  16.0711        168
  16.1082        163
  16.1454        153
  16.1825        151
  16.2197        150
  16.2568        168
  16.2940        158
  16.3311        178
  16.3683        159
  16.4054        168
  16.4426        135
  16.4797        161
  16.5169        173
  16.5540        183
  16.5912        165
  16.6283        176
  16.6655        162
  16.7026        164
  16.7398        165
  16.7769        170
  16.8141        132
  16.8512        159
  16.8884        179
  16.9255        160
  16.9627        170
  16.9998        168
  17.0370        168
  17.0741        154
  17.1113        171
  17.1484        177
  17.1856        172
  17.2227        180
  17.2599        174
  17.2970        159
  17.3342        161
  17.3713        174
  17.4085        158
  17.4457        173
  17.4828        161
  17.5200        131
  17.5571        160
  17.5943        154
  17.6314        150
  17.6686        144
  17.7057        168
  17.7429        179
  17.7800        154
  17.8172        162
  17.8543        158
  17.8915        175
  17.9286        172
  17.9658        174
  18.0029        175
  18.0401        166
  18.0772        148
  18.1144        169
  18.1515        154
  18.1887        186
  18.2258        162
  18.2630        169
  18.3001        169
  18.3373        207
  18.3744        142
  18.4116        173
  18.4487        171
  18.4859        160
  18.5230        188
  18.5602        143
  18.5973        172
  18.6345        170
  18.6716        171
  18.7088        162
  18.7459        170
  18.7831        195
  18.8202        182
  18.8574        175
  18.8945        172
  18.9317        188
  18.9689        172
  19.0060        192
  19.0432        165
  19.0803        163
  19.1175        162
  19.1546        207
  19.1918        175
  19.2289        204
  19.2661        197
  19.3032        163
  19.3404        184
  19.3775        168
  19.4147        171
  19.4518        194
  19.4890        195
  19.5261        194
  19.5633        156
  19.6004        168
  19.6376        155
  19.6747        186
  19.7119        181
  19.7490        181
  19.7862        190
  19.8233        160
  19.8605        169
  19.8976        173
  19.9348        185
  19.9719        190
  20.0091        170
  20.0462        201
  20.0834        185
  20.1205        193
  20.1577        179
  20.1948        168
  20.2320        179
  20.2691        191
  20.3063        185
  20.3434        179
  20.3806        175
  20.4177        191
  20.4549        211
  20.4921        186
  20.5292        174
  20.5664        206
  20.6035        205
  20.6407        180
  20.6778        176
  20.7150        187
  20.7521        212
  20.7893        191
  20.8264        161
  20.8636        182
  20.9007        216
  20.9379        194
  20.9750        214
  21.0122        193
  21.0493        188
  21.0865        180
  21.1236        230
  21.1608        232
  21.1979        312
  21.2351        324
  21.2722        329
  21.3094        344
  21.3465        476
  21.3837        432
  21.4208        364
  21.4580        229
  21.4951        208
  21.5323        203
  21.5694        197
  21.6066        214
  21.6437        193
  21.6809        192
  21.7180        183
  21.7552        178
  21.7923        211
  21.8295        188
  21.8666        186
  21.9038        187
  21.9409        194
  21.9781        194
  22.0152        175
  22.0524        226
  22.0896        166
  22.1267        189
  22.1639        220
  22.2010        206
  22.2382        187
  22.2753        204
  22.3125        195
  22.3496        192
  22.3868        183
  22.4239        195
  22.4611        202
  22.4982        187
  22.5354        208
  22.5725        179
  22.6097        181
  22.6468        188
  22.6840        197
  22.7211        215
  22.7583        193
  22.7954        189
  22.8326        204
  22.8697        190
  22.9069        236
  22.9440        215
  22.9812        187
  23.0183        202
  23.0555        190
  23.0926        204
  23.1298        223
  23.1669        214
  23.2041        193
  23.2412        189
  23.2784        189
  23.3155        226
  23.3527        198
  23.3898        177
  23.4270        205
  23.4641        207
  23.5013        195
  23.5384        204
  23.5756        184
  23.6128        171
  23.6499        188
  23.6871        181
  23.7242        206
  23.7614        188
  23.7985        208
  23.8357        192
  23.8728        215
  23.9100        191
  23.9471        197
  23.9843        187
  24.0214        237
  24.0586        222
  24.0957        224
  24.1329        209
  24.1700        192
  24.2072        198
  24.2443        228
  24.2815        203
  24.3186        219
  24.3558        204
  24.3929        202
  24.4301        202
  24.4672        175
  24.5044        223
  24.5415        218
  24.5787        204
  24.6158        221
  24.6530        230
  24.6901        218
  24.7273        206
  24.7644        218
  24.8016        214
  24.8387        208
  24.8759        194
  24.9130        203
  24.9502        216
  24.9873        184
  25.0245        192
  25.0616        192
  25.0988        197
  25.1360        199
  25.1731        204
  25.2103        190
  25.2474        208
  25.2846        228
  25.3217        207
  25.3589        197
  25.3960        202
  25.4332        199
  25.4703        200
  25.5075        181
  25.5446        209
  25.5818        209
  25.6189        217
  25.6561        212
  25.6932        158
  25.7304        188
  25.7675        187
  25.8047        197
  25.8418        207
  25.8790        169
  25.9161        180
  25.9533        209
  25.9904        164
  26.0276        184
  26.0647        197
  26.1019        206
  26.1390        165
  26.1762        207
  26.2133        202
  26.2505        190
  26.2876        175
  26.3248        187
  26.3619        191
  26.3991        198
  26.4362        195
  26.4734        194
  26.5105        187
  26.5477        184
  26.5848        180
  26.6220        189
  26.6591        188
  26.6963        188
  26.7335        175
  26.7706        189
  26.8078        204
  26.8449        205
  26.8821        208
  26.9192        172
  26.9564        188
  26.9935        183
  27.0307        191
  27.0678        227
  27.1050        179
  27.1421        194
  27.1793        217
  27.2164        254
  27.2536        240
  27.2907        192
  27.3279        229
  27.3650        195
  27.4022        190
  27.4393        202
  27.4765        202
  27.5136        188
  27.5508        177
  27.5879        173
  27.6251        180
  27.6622        189
  27.6994        199
  27.7365        169
  27.7737        183
  27.8108        198
  27.8480        183
  27.8851        199
  27.9223        187
  27.9594        172
  27.9966        189
  28.0337        162
  28.0709        178
  28.1080        161
  28.1452        189
  28.1823        163
  28.2195        188
  28.2567        193
  28.2938        173
  28.3310        188
  28.3681        180
  28.4053        169
  28.4424        181
  28.4796        150
  28.5167        169
  28.5539        165
  28.5910        176
  28.6282        137
  28.6653        164
  28.7025        151
  28.7396        156
  28.7768        174
  28.8139        169
  28.8511        178
  28.8882        169
  28.9254        169
  28.9625        186
  28.9997        168
  29.0368        162
  29.0740        168
  29.1111        170
  29.1483        164
  29.1854        156
  29.2226        163
  29.2597        160
  29.2969        150
  29.3340        171
  29.3712        163
  29.4083        167
  29.4455        158
  29.4826        149
  29.5198        169
  29.5569        147
  29.5941        155
  29.6312        167
  29.6684        161
  29.7055        177
  29.7427        143
  29.7799        171
  29.8170        162
  29.8542        196
  29.8913        162
  29.9285        165
  29.9656        163
  30.0028        134
  30.0399        137
  30.0771        156
  30.1142        149
  30.1514        183
  30.1885        153
  30.2257        173
  30.2628        177
  30.3000        168
  30.3371        217
  30.3743        324
  30.4114        277
  30.4486        248
  30.4857        230
  30.5229        153
  30.5600        179
  30.5972        160
  30.6343        144
  30.6715        140
  30.7086        160
  30.7458        139
  30.7829        129
  30.8201        168
  30.8572        139
  30.8944        178
  30.9315        152
  30.9687        119
  31.0058        131
  31.0430        146
  31.0801        145
  31.1173        142
  31.1544        143
  31.1916        147
  31.2287        149
  31.2659        140
  31.3030        140
  31.3402        163
  31.3774        143
  31.4145        149
  31.4517        127
  31.4888        137
  31.5260        143
  31.5631        140
  31.6003        140
  31.6374        145
  31.6746        120
  31.7117        152
  31.7489        158
  31.7860        160
  31.8232        130
  31.8603        131
  31.8975        149
  31.9346        145
  31.9718        151
  32.0089        142
  32.0461        147
  32.0832        139
  32.1204        105
  32.1575        131
  32.1947        145
  32.2318        134
  32.2690        131
  32.3061        136
  32.3433        138
  32.3804        143
  32.4176        122
  32.4547        150
  32.4919        160
  32.5290        145
  32.5662        130
  32.6033        142
  32.6405        123
  32.6776        142
  32.7148        118
  32.7519        126
  32.7891        119
  32.8262        113
  32.8634        133
  32.9006        129
  32.9377        124
  32.9749        137
  33.0120        119
  33.0492        124
  33.0863        122
  33.1235        133
  33.1606        107
  33.1978        111
  33.2349        118
  33.2721        121
  33.3092        135
  33.3464        118
  33.3835        125
  33.4207        101
  33.4578        135
  33.4950        116
  33.5321        113
  33.5693        103
  33.6064        124
  33.6436        114
  33.6807        125
  33.7179        130
  33.7550        133
  33.7922        127
  33.8293        110
  33.8665        120
  33.9036        114
  33.9408        133
  33.9779        115
  34.0151         92
  34.0522        119
  34.0894        122
  34.1265        111
  34.1637        134
  34.2008         97
  34.2380        108
  34.2751        104
  34.3123        117
  34.3494        119
  34.3866        124
  34.4238        127
  34.4609        130
  34.4981        110
  34.5352        128
  34.5724        115
  34.6095        109
  34.6467        154
  34.6838        133
  34.7210        138
  34.7581        164
  34.7953        130
  34.8324        142
  34.8696        142
  34.9067        133
  34.9439         99
  34.9810        108
  35.0182        116
  35.0553        130
  35.0925        107
  35.1296        119
  35.1668        108
  35.2039        106
  35.2411        108
  35.2782        101
  35.3154         89
  35.3525        115
  35.3897        101
  35.4268         99
  35.4640        118
  35.5011        107
  35.5383        111
  35.5754         99
  35.6126         81
  35.6497        110
  35.6869        101
  35.7240        110
  35.7612        107
  35.7983         94
  35.8355        110
  35.8726        104
  35.9098         92
  35.9469        103
  35.9841        111
  36.0213        100
  36.0584         96
  36.0956        105
  36.1327         91
  36.1699         92
  36.2070        110
  36.2442         91
  36.2813        107
  36.3185        113
  36.3556         98
  36.3928        113
  36.4299        111
  36.4671         96
  36.5042        108
  36.5414         97
  36.5785        101
  36.6157         86
  36.6528        108
  36.6900         83
  36.7271         91
  36.7643         86
  36.8014         81
  36.8386         87
  36.8757        101
  36.9129         82
  36.9500         78
  36.9872         84
  37.0243         80
  37.0615         99
  37.0986         81
  37.1358         94
  37.1729         88
  37.2101         82
  37.2472        103
  37.2844         90
  37.3215        109
  37.3587        114
  37.3958        105
  37.4330        143
  37.4701        135
  37.5073         88
  37.5445        128
  37.5816        105
  37.6188        103
  37.6559         88
  37.6931         90
  37.7302        104
  37.7674         83
  37.8045         76
  37.8417        102
  37.8788         79
  37.9160         86
  37.9531         90
  37.9903         94
  38.0274         93
  38.0646        109
  38.1017         87
  38.1389         68
  38.1760         90
  38.2132         68
  38.2503        103
  38.2875         88
  38.3246         83
  38.3618         77
  38.3989         87
  38.4361         77
  38.4732         82
  38.5104         88
  38.5475         79
  38.5847         67
  38.6218         80
  38.6590         92
  38.6961         92
  38.7333         85
  38.7704         68
  38.8076         82
  38.8447         81
  38.8819         95
  38.9190         79
  38.9562         80
  38.9933         94
  39.0305         78
  39.0677         78
  39.1048         82
  39.1420         80
  39.1791         75
  39.2163         83
  39.2534         89
  39.2906         92
  39.3277         74
  39.3649         81
  39.4020         83
  39.4392         95
  39.4763         80
  39.5135         74
  39.5506         74
  39.5878         93
  39.6249         70
  39.6621         91
  39.6992         61
  39.7364         64
  39.7735         65
  39.8107         83
  39.8478         77
  39.8850         87
  39.9221         72
  39.9593         68
  39.9964         80
  40.0336         85
  40.0707         84
  40.1079         67
  40.1450         76
  40.1822         87
  40.2193         74
  40.2565         91
  40.2936         89
  40.3308         92
  40.3679         92
  40.4051         82
  40.4422         97
  40.4794         81
  40.5165         76
  40.5537         82
  40.5908         81
  40.6280         77
  40.6652         78
  40.7023         61
  40.7395         62
  40.7766         65
  40.8138         82
  40.8509         78
  40.8881         78
  40.9252         98
  40.9624         94
  40.9995         76
  41.0367         92
  41.0738         81
  41.1110         71
  41.1481        104
  41.1853         87
  41.2224         66
  41.2596         78
  41.2967         77
  41.3339         71
  41.3710         88
  41.4082         91
  41.4453         82
  41.4825         83
  41.5196         81
  41.5568         76
  41.5939         67
  41.6311         73
  41.6682         84
  41.7054         76
  41.7425         74
  41.7797         65
  41.8168         77
  41.8540         86
  41.8911         67
  41.9283         65
  41.9654         84
  42.0026         86
  42.0397         89
  42.0769         80
  42.1140         76
  42.1512         81
  42.1884         78
  42.2255         78
  42.2627         77
  42.2998         80
  42.3370         95
  42.3741         84
  42.4113         85
  42.4484         75
  42.4856         88
  42.5227         78
  42.5599         67
  42.5970         69
  42.6342         73
  42.6713         69
  42.7085         71
  42.7456         79
  42.7828         79
  42.8199         84
  42.8571         80
  42.8942         77
  42.9314         90
  42.9685         76
  43.0057         64
  43.0428         75
  43.0800         75
  43.1171         84
  43.1543         98
  43.1914         84
  43.2286         87
  43.2657         92
  43.3029         94
  43.3400         84
  43.3772         87
  43.4143         92
  43.4515         80
  43.4886        120
  43.5258        138
  43.5629         73
  43.6001         78
  43.6372        100
  43.6744         65
  43.7116         81
  43.7487         69
  43.7859         94
  43.8230         78
  43.8602         72
  43.8973         78
  43.9345         53
  43.9716         61
  44.0088         72
  44.0459         72
  44.0831         71
  44.1202         65
  44.1574         91
  44.1945         59
  44.2317         64
  44.2688         86
  44.3060         69
  44.3431         65
  44.3803         71
  44.4174         80
  44.4546         78
  44.4917         63
  44.5289         89
  44.5660         73
  44.6032         62
  44.6403         78
  44.6775         89
  44.7146         97
  44.7518         79
  44.7889         85
  44.8261         71
  44.8632         74
  44.9004         75
  44.9375         83
  44.9747         82
  45.0118         78
  45.0490         65
  45.0861         86
  45.1233         65
  45.1604         66
  45.1976         59
  45.2347         68
  45.2719         69
  45.3091         83
  45.3462         61
  45.3834         83
  45.4205         80
  45.4577         79
  45.4948         80
  45.5320         70
  45.5691         74
  45.6063         66
  45.6434         65
  45.6806         75
  45.7177         74
  45.7549         60
  45.7920         61
  45.8292         68
  45.8663         73
  45.9035         54
  45.9406         69
  45.9778         58
  46.0149         62
  46.0521         59
  46.0892         76
  46.1264         69
  46.1635         64
  46.2007         71
  46.2378         66
  46.2750         69
  46.3121         69
  46.3493         56
  46.3864         71
  46.4236         72
  46.4607         52
  46.4979         69
  46.5350         67
  46.5722         62
  46.6093         73
  46.6465         69
  46.6836         54
  46.7208         74
  46.7579         63
  46.7951         60
  46.8323         74
  46.8694         59
  46.9066         67
  46.9437         71
  46.9809         65
  47.0180         68
  47.0552         66
  47.0923         70
  47.1295         68
  47.1666         68
  47.2038         81
  47.2409         50
  47.2781         63
  47.3152         65
  47.3524         65
  47.3895         61
  47.4267         52
  47.4638         50
  47.5010         69
  47.5381         67
  47.5753         66
  47.6124         57
  47.6496         62
  47.6867         70
  47.7239         61
  47.7610         65
  47.7982         70
  47.8353         62
  47.8725         64
  47.9096         72
  47.9468         62
  47.9839         62
  48.0211         55
  48.0582         62
  48.0954         59
  48.1325         61
  48.1697         71
  48.2068         68
  48.2440         58
  48.2811         50
  48.3183         69
  48.3555         58
  48.3926         66
  48.4298         69
  48.4669         62
  48.5041         68
  48.5412         61
  48.5784         70
  48.6155         67
  48.6527         63
  48.6898         63
  48.7270         60
  48.7641         65
  48.8013         76
  48.8384         62
  48.8756         60
  48.9127         86
  48.9499        111
  48.9870         89
  49.0242         77
  49.0613         92
  49.0985         99
  49.1356         66
  49.1728         47
  49.2099         58
  49.2471         64
  49.2842         70
  49.3214         67
  49.3585         59
  49.3957         67
  49.4328         67
  49.4700         51
  49.5071         51
  49.5443         56
  49.5814         69
  49.6186         64
  49.6557         64
  49.6929         63
  49.7300         72
  49.7672         63
  49.8043         54
  49.8415         64
  49.8786         72
  49.9158         71
  49.9530         61
  49.9901         58
  50.0273         66
  50.0644         63
  50.1016         55
  50.1387         66
  50.1759         71
  50.2130         60
  50.2502         64
  50.2873         62
  50.3245         61
  50.3616         64
  50.3988         63
  50.4359         52
  50.4731         70
  50.5102         54
  50.5474         64
  50.5845         54
  50.6217         44
  50.6588         66
  50.6960         64
  50.7331         58
  50.7703         62
  50.8074         60
  50.8446         59
  50.8817         69
  50.9189         70
  50.9560         52
  50.9932         64
  51.0303         65
  51.0675         82
  51.1046         55
  51.1418         66
  51.1789         61
  51.2161         59
  51.2532         57
  51.2904         67
  51.3275         78
  51.3647         62
  51.4018         70
  51.4390         68
  51.4762         59
  51.5133         52
  51.5505         66
  51.5876         66
  51.6248         45
  51.6619         62
  51.6991         63
  51.7362         54
  51.7734         50
  51.8105         47
  51.8477         60
  51.8848         75
  51.9220         55
  51.9591         76
  51.9963         76
  52.0334         64
  52.0706         48
  52.1077         53
  52.1449         70
  52.1820         69
  52.2192         51
  52.2563         61
  52.2935         63
  52.3306         65
  52.3678         56
  52.4049         60
  52.4421         67
  52.4792         51
  52.5164         71
  52.5535         52
  52.5907         68
  52.6278         58
  52.6650         63
  52.7021         65
  52.7393         57
  52.7764         61
  52.8136         62
  52.8507         63
  52.8879         68
  52.9250         67
  52.9622         65
  52.9994         64
  53.0365         65
  53.0737         46
  53.1108         56
  53.1480         78
  53.1851         51
  53.2223         63
  53.2594         63
  53.2966         58
  53.3337         56
  53.3709         61
  53.4080         61
  53.4452         45
  53.4823         65
  53.5195         70
  53.5566         50
  53.5938         50
  53.6309         63
  53.6681         52
  53.7052         57
  53.7424         48
  53.7795         49
  53.8167         52
  53.8538         54
  53.8910         62
  53.9281         54
  53.9653         60
  54.0024         96
  54.0396         76
  54.0767         59
  54.1139         64
  54.1510         65
  54.1882         57
  54.2253         45
  54.2625         60
  54.2996         46
  54.3368         56
  54.3739         55
  54.4111         68
  54.4482         58
  54.4854         46
  54.5225         77
  54.5597         68
  54.5969         57
  54.6340         66
  54.6712         49
  54.7083         47
  54.7455         45
  54.7826         61
  54.8198         74
  54.8569         62
  54.8941         58
  54.9312         64
  54.9684         66
  55.0055         65
  55.0427         62
  55.0798         58
  55.1170         68
  55.1541         73
  55.1913         45
  55.2284         72
  55.2656         57
  55.3027         64
  55.3399         64
  55.3770         49
  55.4142         56
  55.4513         55
  55.4885         66
  55.5256         56
  55.5628         67
  55.5999         64
  55.6371         52
  55.6742         55
  55.7114         69
  55.7485         81
  55.7857         60
  55.8228         62
  55.8600         74
  55.8971         72
  55.9343         57
  55.9714         68
  56.0086         55
  56.0457         49
  56.0829         61
  56.1201         59
  56.1572         82
  56.1944         60
  56.2315         67
  56.2687         62
  56.3058         80
  56.3430         67
  56.3801         52
  56.4173         57
  56.4544         67
  56.4916         51
  56.5287         59
  56.5659         55
  56.6030         48
  56.6402         66
  56.6773         52
  56.7145         60
  56.7516         54
  56.7888         56
  56.8259         58
  56.8631         59
  56.9002         64
  56.9374         42
  56.9745         46
  57.0117         55
  57.0488         49
  57.0860         69
  57.1231         68
  57.1603         56
  57.1974         50
  57.2346         39
  57.2717         49
  57.3089         59
  57.3460         49
  57.3832         61
  57.4203         58
  57.4575         57
  57.4946         52
  57.5318         59
  57.5689         61
  57.6061         56
  57.6433         60
  57.6804         53
  57.7176         52
  57.7547         54
  57.7919         55
  57.8290         55
  57.8662         60
  57.9033         43
  57.9405         52
  57.9776         64
  58.0148         50
  58.0519         47
  58.0891         47
  58.1262         64
  58.1634         52
  58.2005         67
  58.2377         67
  58.2748         57
  58.3120         48
  58.3491         50
  58.3863         71
  58.4234         56
  58.4606         52
  58.4977         53
  58.5349         59
  58.5720         49
  58.6092         60
  58.6463         57
  58.6835         52
  58.7206         50
  58.7578         55
  58.7949         63
  58.8321         58
  58.8692         53
  58.9064         57
  58.9435         64
  58.9807         59
  59.0178         62
  59.0550         55
  59.0921         56
  59.1293         54
  59.1664         52
  59.2036         62
  59.2408         50
  59.2779         64
  59.3151         62
  59.3522         47
  59.3894         52
  59.4265         50
  59.4637         50
  59.5008         46
  59.5380         41
  59.5751         56
  59.6123         54
  59.6494         54
  59.6866         48
  59.7237         58
  59.7609         63
  59.7980         54
  59.8352         43
  59.8723         43
  59.9095         47
  59.9466         52
  59.9838         54
  60.0024         57