File: notebooks/data/xrd_data/ML_20220718_35_SJD_4_LaB6-2min.uxd
; (content of file Y:\Sam\Apurva-07-20-2022\puck4\ML_20220718_35_SJD_0_LaB6-2min.raw)
_FILEVERSION = 3
_SAMPLE = ML_20220718_35_SJD_0_LaB6-2min
_+SAMPLE =
_SITE = USA
_USER = Administrator
_GONIOMETER_CODE = 20
; Goniometer : D8 theta/2theta, stage : Unknown
_ATTACHMENTS_CODE = 0
_GONIOMETER_RADIUS = 200.5
_FIXED_DIVSLIT = 0.6
_FIXED_SAMPLESLIT = 0
_SOLLER_SLITS = 2
_FIXED_DETSLIT = 9.55
_MONOCHROMATOR = 0
; Incident beam monochromator : None
_SOLLER_SLITS_2 = N
_THIN_FILM = N
_BETA_FILTER = Y
_FIXED_ANTISLIT = 5.89
_ANALYZER_CODE = 0
; Received beam analyzer : None
_DATEMEASURED = "26-Jul-2022 09:01:39"
_WL_UNIT = A
_WL1 = 1.5406
_WL2 = 1.54439
_WL3 = 1.39222
_WLRATIO = 0.5
_ANODE = Cu
_V4_INF_CREATOR = XRDWizard
_V4_INF_CREATOR_VERSION = V2.9.0.22
_V4_INF_WIZARD_VERSION = V2.9.0.22
_V4_INF_WIZARD_ADDINS = V2.9.0.22
_V4_INF_WIZARD_DOCTYPE = XRD
_V4_INF_OSUSER = McQueenLab
_V4_INF_USER = Administrator
_V4_INF_SITE = USA
_V4_INF_SAMPLEID = ML_20220718_35_SJD_0_LaB6-2min

; Data for range 1
_DRIVE = COUPLED
_STEPTIME = 5.64
_STEPSIZE = 0.0185756
_STEPMODE = C
_START = 5
_THETA = 2.5
_2THETA = 5
_KHI = 0
_PHI = 0
_X = 0
_Y = 0
_Z = 0
_DETECTOR = 5
; Detector type : Unknown
_DETECTORSLIT = unkn
_AUX1 = 0
_AUX2 = 0
_AUX3 = 0
_TIMESTARTED = 15
_TEMP_RATE = -1
_TEMP_DELAY = -1
_KV = 40
_MA = 40
_RANGE_WL = 1.5406
_3DPLANE = 0
_V4_ADDITIONALDETECTOR = 257
_V4_PSD2THETA = 3.4189
_V4_PSDCHANNEL1 = 0
_V4_PSDAPERTURE = 12.68
_V4_PSDTYPE = 5
_V4_PSDFIXED = 0
_V4_COUNTERS_MASK = 4096
_V4_DRIVES_MASK = 0
_V4_ENCODERS_MASK = 0
_2THETACOUNTS = 1
; 2THETA  PSD
   5.0000        135
   5.0372        139
   5.0743         97
   5.1115        117
   5.1486        132
   5.1858         93
   5.2229        114
   5.2601         99
   5.2972        135
   5.3344        124
   5.3715        115
   5.4087        138
   5.4458        105
   5.4830        100
   5.5201        118
   5.5573        104
   5.5944        111
   5.6316        129
   5.6687         95
   5.7059        104
   5.7430         95
   5.7802         97
   5.8173        126
   5.8545        106
   5.8916        109
   5.9288         96
   5.9659        101
   6.0031         98
   6.0402         92
   6.0774         83
   6.1145         99
   6.1517        112
   6.1888        106
   6.2260         96
   6.2631         91
   6.3003         91
   6.3374         82
   6.3746        102
   6.4117         94
   6.4489         87
   6.4860        105
   6.5232         87
   6.5604         86
   6.5975         80
   6.6347        107
   6.6718         89
   6.7090         80
   6.7461         86
   6.7833         81
   6.8204         82
   6.8576         88
   6.8947         93
   6.9319         79
   6.9690         70
   7.0062         81
   7.0433         66
   7.0805         88
   7.1176         62
   7.1548         73
   7.1919         98
   7.2291         82
   7.2662         66
   7.3034         78
   7.3405         69
   7.3777         78
   7.4148         79
   7.4520         82
   7.4891         85
   7.5263         83
   7.5634         81
   7.6006         81
   7.6377         75
   7.6749         99
   7.7120        102
   7.7492        100
   7.7863         94
   7.8235         88
   7.8606         87
   7.8978         76
   7.9349         96
   7.9721        112
   8.0092         97
   8.0464         92
   8.0835         92
   8.1207         84
   8.1579         87
   8.1950         88
   8.2322        105
   8.2693         77
   8.3065         75
   8.3436        104
   8.3808         88
   8.4179        112
   8.4551         87
   8.4922         86
   8.5294         89
   8.5665        102
   8.6037         98
   8.6408         98
   8.6780         92
   8.7151        108
   8.7523        116
   8.7894         95
   8.8266        104
   8.8637        107
   8.9009        104
   8.9380         94
   8.9752         96
   9.0123        105
   9.0495        119
   9.0866         95
   9.1238        107
   9.1609        120
   9.1981        115
   9.2352        110
   9.2724        100
   9.3095         95
   9.3467        117
   9.3838        114
   9.4210        108
   9.4581        110
   9.4953        110
   9.5324        119
   9.5696         92
   9.6067         96
   9.6439        107
   9.6811        112
   9.7182         95
   9.7554        120
   9.7925        109
   9.8297        115
   9.8668        116
   9.9040        129
   9.9411        131
   9.9783        112
  10.0154        123
  10.0526        114
  10.0897        124
  10.1269        132
  10.1640        124
  10.2012        118
  10.2383        129
  10.2755        112
  10.3126         99
  10.3498        115
  10.3869        123
  10.4241        114
  10.4612        133
  10.4984        116
  10.5355        110
  10.5727        145
  10.6098        120
  10.6470        120
  10.6841        120
  10.7213        123
  10.7584        100
  10.7956        104
  10.8327        139
  10.8699        122
  10.9070        122
  10.9442        115
  10.9813        113
  11.0185        132
  11.0556        108
  11.0928        103
  11.1299        114
  11.1671        117
  11.2043        116
  11.2414        121
  11.2786        133
  11.3157        115
  11.3529        114
  11.3900        114
  11.4272        119
  11.4643        130
  11.5015        115
  11.5386        107
  11.5758        135
  11.6129        133
  11.6501        135
  11.6872        118
  11.7244         90
  11.7615        107
  11.7987        113
  11.8358        105
  11.8730        135
  11.9101        122
  11.9473        106
  11.9844         98
  12.0216        116
  12.0587        125
  12.0959        124
  12.1330        106
  12.1702         98
  12.2073        135
  12.2445        117
  12.2816        112
  12.3188        142
  12.3559        123
  12.3931        110
  12.4302         96
  12.4674        112
  12.5045        105
  12.5417         95
  12.5788        120
  12.6160        130
  12.6531        104
  12.6903        108
  12.7274        121
  12.7646         98
  12.8018        100
  12.8389         88
  12.8761         92
  12.9132        111
  12.9504        102
  12.9875         99
  13.0247        109
  13.0618        123
  13.0990        106
  13.1361        112
  13.1733        103
  13.2104         96
  13.2476         98
  13.2847        112
  13.3219        108
  13.3590        124
  13.3962        114
  13.4333         95
  13.4705        113
  13.5076         82
  13.5448         97
  13.5819         88
  13.6191         83
  13.6562        107
  13.6934        110
  13.7305         86
  13.7677         98
  13.8048         93
  13.8420         92
  13.8791         85
  13.9163         91
  13.9534         83
  13.9906         99
  14.0277         86
  14.0649         85
  14.1020         90
  14.1392         98
  14.1763         77
  14.2135         70
  14.2506         92
  14.2878         97
  14.3250        103
  14.3621         87
  14.3993         97
  14.4364         85
  14.4736         65
  14.5107         87
  14.5479         84
  14.5850         94
  14.6222        108
  14.6593         82
  14.6965         75
  14.7336         87
  14.7708         72
  14.8079         72
  14.8451         53
  14.8822         89
  14.9194         80
  14.9565         97
  14.9937         79
  15.0308         95
  15.0680         88
  15.1051         74
  15.1423         80
  15.1794         82
  15.2166         78
  15.2537         86
  15.2909         80
  15.3280         83
  15.3652         93
  15.4023         85
  15.4395        102
  15.4766         91
  15.5138         86
  15.5509         73
  15.5881         98
  15.6252         61
  15.6624         84
  15.6995         88
  15.7367         73
  15.7738         88
  15.8110         72
  15.8482         82
  15.8853         83
  15.9225         78
  15.9596        109
  15.9968         54
  16.0339         75
  16.0711         68
  16.1082         85
  16.1454         95
  16.1825         82
  16.2197         80
  16.2568         88
  16.2940         75
  16.3311         89
  16.3683         89
  16.4054         82
  16.4426         88
  16.4797         82
  16.5169         86
  16.5540         79
  16.5912         94
  16.6283         91
  16.6655         79
  16.7026         83
  16.7398         83
  16.7769         77
  16.8141         86
  16.8512         73
  16.8884         82
  16.9255        102
  16.9627         64
  16.9998         79
  17.0370         88
  17.0741         73
  17.1113         90
  17.1484         83
  17.1856         96
  17.2227         76
  17.2599         80
  17.2970         86
  17.3342         77
  17.3713         83
  17.4085         72
  17.4457         71
  17.4828         79
  17.5200         71
  17.5571         84
  17.5943         97
  17.6314         86
  17.6686         73
  17.7057         76
  17.7429         92
  17.7800         65
  17.8172         94
  17.8543         78
  17.8915         69
  17.9286         87
  17.9658         91
  18.0029         78
  18.0401         90
  18.0772         85
  18.1144         69
  18.1515         88
  18.1887         76
  18.2258         86
  18.2630         90
  18.3001         88
  18.3373         82
  18.3744         92
  18.4116         83
  18.4487         83
  18.4859         70
  18.5230         92
  18.5602         70
  18.5973         72
  18.6345         76
  18.6716         81
  18.7088         73
  18.7459         75
  18.7831         86
  18.8202         72
  18.8574         90
  18.8945         82
  18.9317         81
  18.9689         85
  19.0060         74
  19.0432         79
  19.0803         68
  19.1175         95
  19.1546         88
  19.1918         81
  19.2289         84
  19.2661         86
  19.3032         73
  19.3404         77
  19.3775         87
  19.4147         77
  19.4518         76
  19.4890         92
  19.5261         93
  19.5633         78
  19.6004         86
  19.6376         89
  19.6747         84
  19.7119         93
  19.7490        102
  19.7862         86
  19.8233         99
  19.8605         86
  19.8976         86
  19.9348         91
  19.9719         96
  20.0091         81
  20.0462         77
  20.0834         94
  20.1205         83
  20.1577         79
  20.1948         86
  20.2320         90
  20.2691         89
  20.3063         97
  20.3434         78
  20.3806         81
  20.4177         80
  20.4549        104
  20.4921         99
  20.5292         87
  20.5664        103
  20.6035         82
  20.6407        109
  20.6778         77
  20.7150         96
  20.7521         99
  20.7893         96
  20.8264         88
  20.8636         78
  20.9007         92
  20.9379        102
  20.9750         88
  21.0122         96
  21.0493         86
  21.0865        108
  21.1236        114
  21.1608        116
  21.1979        141
  21.2351        132
  21.2722        133
  21.3094        175
  21.3465        240
  21.3837        196
  21.4208        174
  21.4580        105
  21.4951        108
  21.5323         89
  21.5694         92
  21.6066        102
  21.6437         88
  21.6809         89
  21.7180         77
  21.7552         80
  21.7923         90
  21.8295        108
  21.8666         88
  21.9038         96
  21.9409         93
  21.9781        109
  22.0152         85
  22.0524         82
  22.0896         79
  22.1267         82
  22.1639        108
  22.2010         89
  22.2382        100
  22.2753        116
  22.3125         87
  22.3496         76
  22.3868         99
  22.4239         94
  22.4611        104
  22.4982         87
  22.5354        103
  22.5725         89
  22.6097        115
  22.6468        104
  22.6840        107
  22.7211         85
  22.7583         85
  22.7954         94
  22.8326         78
  22.8697         94
  22.9069        102
  22.9440        108
  22.9812         93
  23.0183         98
  23.0555         96
  23.0926         92
  23.1298         97
  23.1669         75
  23.2041         91
  23.2412         91
  23.2784         91
  23.3155        110
  23.3527         92
  23.3898         84
  23.4270        109
  23.4641        101
  23.5013        116
  23.5384        108
  23.5756         90
  23.6128        106
  23.6499        115
  23.6871        125
  23.7242         82
  23.7614         96
  23.7985         97
  23.8357         95
  23.8728        104
  23.9100         95
  23.9471        118
  23.9843         98
  24.0214        102
  24.0586        105
  24.0957         96
  24.1329         82
  24.1700        102
  24.2072        114
  24.2443        119
  24.2815        118
  24.3186        104
  24.3558         99
  24.3929        104
  24.4301        121
  24.4672         92
  24.5044         82
  24.5415        110
  24.5787         84
  24.6158        108
  24.6530         95
  24.6901         84
  24.7273         99
  24.7644         96
  24.8016        104
  24.8387         93
  24.8759        104
  24.9130         88
  24.9502         94
  24.9873        103
  25.0245        118
  25.0616        105
  25.0988        100
  25.1360        102
  25.1731        102
  25.2103         93
  25.2474        104
  25.2846        103
  25.3217         95
  25.3589         96
  25.3960        108
  25.4332         94
  25.4703        109
  25.5075         98
  25.5446         96
  25.5818         92
  25.6189         88
  25.6561         87
  25.6932         99
  25.7304        104
  25.7675         96
  25.8047         92
  25.8418         95
  25.8790         90
  25.9161        108
  25.9533         94
  25.9904        107
  26.0276        101
  26.0647        109
  26.1019         81
  26.1390         99
  26.1762         96
  26.2133         94
  26.2505         87
  26.2876         89
  26.3248         76
  26.3619        120
  26.3991         88
  26.4362         95
  26.4734        102
  26.5105         90
  26.5477        111
  26.5848        116
  26.6220        106
  26.6591         93
  26.6963         80
  26.7335        102
  26.7706        102
  26.8078         91
  26.8449         99
  26.8821         94
  26.9192         97
  26.9564         82
  26.9935         96
  27.0307         92
  27.0678        115
  27.1050        105
  27.1421        119
  27.1793        104
  27.2164        127
  27.2536        110
  27.2907         97
  27.3279         97
  27.3650        107
  27.4022         87
  27.4393         94
  27.4765         77
  27.5136         73
  27.5508         90
  27.5879         93
  27.6251         98
  27.6622         96
  27.6994         90
  27.7365         94
  27.7737         94
  27.8108         94
  27.8480         88
  27.8851         73
  27.9223         72
  27.9594         83
  27.9966         87
  28.0337        103
  28.0709         99
  28.1080         90
  28.1452         84
  28.1823         91
  28.2195         94
  28.2567         81
  28.2938         68
  28.3310         83
  28.3681         84
  28.4053         83
  28.4424         76
  28.4796         78
  28.5167         75
  28.5539         79
  28.5910         84
  28.6282         77
  28.6653         81
  28.7025         70
  28.7396         77
  28.7768         90
  28.8139         83
  28.8511         89
  28.8882         68
  28.9254         82
  28.9625         88
  28.9997         85
  29.0368         75
  29.0740         91
  29.1111         93
  29.1483         76
  29.1854         81
  29.2226         67
  29.2597         76
  29.2969         79
  29.3340         94
  29.3712         77
  29.4083         87
  29.4455         82
  29.4826         72
  29.5198         72
  29.5569         66
  29.5941         66
  29.6312         66
  29.6684         67
  29.7055         61
  29.7427         87
  29.7799         88
  29.8170         74
  29.8542         78
  29.8913         90
  29.9285         85
  29.9656         74
  30.0028         89
  30.0399         75
  30.0771         79
  30.1142         68
  30.1514         78
  30.1885         79
  30.2257         84
  30.2628         81
  30.3000         80
  30.3371         94
  30.3743        155
  30.4114        120
  30.4486        131
  30.4857        111
  30.5229         75
  30.5600         70
  30.5972         81
  30.6343         80
  30.6715         88
  30.7086         81
  30.7458         74
  30.7829         67
  30.8201         75
  30.8572         76
  30.8944         72
  30.9315         69
  30.9687         69
  31.0058         83
  31.0430         65
  31.0801         66
  31.1173         72
  31.1544         75
  31.1916         61
  31.2287         68
  31.2659         75
  31.3030        100
  31.3402         83
  31.3774         72
  31.4145         61
  31.4517         62
  31.4888         82
  31.5260         81
  31.5631         75
  31.6003         75
  31.6374         82
  31.6746         55
  31.7117         66
  31.7489         76
  31.7860         71
  31.8232         76
  31.8603         73
  31.8975         57
  31.9346         76
  31.9718         79
  32.0089         60
  32.0461         67
  32.0832         69
  32.1204         69
  32.1575         67
  32.1947         53
  32.2318         71
  32.2690         64
  32.3061         52
  32.3433         77
  32.3804         69
  32.4176         71
  32.4547         87
  32.4919         70
  32.5290         68
  32.5662         71
  32.6033         87
  32.6405         73
  32.6776         68
  32.7148         68
  32.7519         64
  32.7891         63
  32.8262         65
  32.8634         62
  32.9006         70
  32.9377         68
  32.9749         78
  33.0120         75
  33.0492         65
  33.0863         61
  33.1235         63
  33.1606         56
  33.1978         69
  33.2349         69
  33.2721         70
  33.3092         59
  33.3464         72
  33.3835         57
  33.4207         65
  33.4578         57
  33.4950         72
  33.5321         59
  33.5693         75
  33.6064         50
  33.6436         52
  33.6807         57
  33.7179         50
  33.7550         58
  33.7922         62
  33.8293         52
  33.8665         71
  33.9036         50
  33.9408         74
  33.9779         62
  34.0151         57
  34.0522         63
  34.0894         54
  34.1265         57
  34.1637         51
  34.2008         44
  34.2380         54
  34.2751         72
  34.3123         48
  34.3494         55
  34.3866         64
  34.4238         51
  34.4609         48
  34.4981         50
  34.5352         55
  34.5724         57
  34.6095         54
  34.6467         57
  34.6838         56
  34.7210         66
  34.7581         82
  34.7953         74
  34.8324         59
  34.8696         66
  34.9067         69
  34.9439         54
  34.9810         60
  35.0182         47
  35.0553         46
  35.0925         66
  35.1296         54
  35.1668         49
  35.2039         61
  35.2411         51
  35.2782         58
  35.3154         46
  35.3525         42
  35.3897         53
  35.4268         52
  35.4640         43
  35.5011         59
  35.5383         49
  35.5754         63
  35.6126         56
  35.6497         58
  35.6869         52
  35.7240         38
  35.7612         41
  35.7983         56
  35.8355         60
  35.8726         57
  35.9098         40
  35.9469         40
  35.9841         54
  36.0213         39
  36.0584         42
  36.0956         50
  36.1327         44
  36.1699         45
  36.2070         52
  36.2442         44
  36.2813         56
  36.3185         59
  36.3556         56
  36.3928         53
  36.4299         51
  36.4671         48
  36.5042         41
  36.5414         49
  36.5785         50
  36.6157         46
  36.6528         50
  36.6900         33
  36.7271         42
  36.7643         42
  36.8014         42
  36.8386         53
  36.8757         48
  36.9129         41
  36.9500         53
  36.9872         42
  37.0243         37
  37.0615         54
  37.0986         44
  37.1358         50
  37.1729         34
  37.2101         39
  37.2472         48
  37.2844         35
  37.3215         42
  37.3587         55
  37.3958         42
  37.4330         70
  37.4701         65
  37.5073         56
  37.5445         66
  37.5816         64
  37.6188         44
  37.6559         38
  37.6931         40
  37.7302         35
  37.7674         50
  37.8045         40
  37.8417         53
  37.8788         41
  37.9160         49
  37.9531         49
  37.9903         36
  38.0274         37
  38.0646         41
  38.1017         40
  38.1389         40
  38.1760         46
  38.2132         34
  38.2503         40
  38.2875         37
  38.3246         45
  38.3618         41
  38.3989         47
  38.4361         41
  38.4732         49
  38.5104         30
  38.5475         42
  38.5847         37
  38.6218         31
  38.6590         47
  38.6961         61
  38.7333         43
  38.7704         41
  38.8076         55
  38.8447         54
  38.8819         48
  38.9190         35
  38.9562         41
  38.9933         36
  39.0305         38
  39.0677         35
  39.1048         46
  39.1420         49
  39.1791         50
  39.2163         51
  39.2534         37
  39.2906         50
  39.3277         40
  39.3649         41
  39.4020         48
  39.4392         33
  39.4763         36
  39.5135         39
  39.5506         31
  39.5878         27
  39.6249         42
  39.6621         42
  39.6992         41
  39.7364         36
  39.7735         35
  39.8107         38
  39.8478         40
  39.8850         35
  39.9221         32
  39.9593         41
  39.9964         32
  40.0336         48
  40.0707         36
  40.1079         34
  40.1450         35
  40.1822         45
  40.2193         30
  40.2565         40
  40.2936         35
  40.3308         48
  40.3679         42
  40.4051         36
  40.4422         35
  40.4794         37
  40.5165         38
  40.5537         33
  40.5908         30
  40.6280         34
  40.6652         33
  40.7023         37
  40.7395         42
  40.7766         37
  40.8138         33
  40.8509         37
  40.8881         33
  40.9252         42
  40.9624         42
  40.9995         41
  41.0367         27
  41.0738         46
  41.1110         39
  41.1481         50
  41.1853         31
  41.2224         41
  41.2596         33
  41.2967         41
  41.3339         42
  41.3710         32
  41.4082         43
  41.4453         27
  41.4825         41
  41.5196         29
  41.5568         43
  41.5939         26
  41.6311         26
  41.6682         33
  41.7054         35
  41.7425         48
  41.7797         36
  41.8168         32
  41.8540         29
  41.8911         34
  41.9283         26
  41.9654         31
  42.0026         51
  42.0397         33
  42.0769         34
  42.1140         36
  42.1512         41
  42.1884         43
  42.2255         44
  42.2627         44
  42.2998         39
  42.3370         41
  42.3741         37
  42.4113         34
  42.4484         54
  42.4856         34
  42.5227         35
  42.5599         42
  42.5970         42
  42.6342         29
  42.6713         39
  42.7085         49
  42.7456         43
  42.7828         41
  42.8199         31
  42.8571         35
  42.8942         35
  42.9314         29
  42.9685         30
  43.0057         28
  43.0428         41
  43.0800         30
  43.1171         39
  43.1543         36
  43.1914         35
  43.2286         46
  43.2657         45
  43.3029         50
  43.3400         39
  43.3772         35
  43.4143         46
  43.4515         52
  43.4886         59
  43.5258         68
  43.5629         56
  43.6001         52
  43.6372         69
  43.6744         35
  43.7116         42
  43.7487         45
  43.7859         40
  43.8230         40
  43.8602         37
  43.8973         33
  43.9345         33
  43.9716         34
  44.0088         38
  44.0459         28
  44.0831         39
  44.1202         31
  44.1574         30
  44.1945         35
  44.2317         35
  44.2688         35
  44.3060         46
  44.3431         33
  44.3803         40
  44.4174         31
  44.4546         41
  44.4917         40
  44.5289         46
  44.5660         38
  44.6032         41
  44.6403         40
  44.6775         37
  44.7146         44
  44.7518         47
  44.7889         43
  44.8261         31
  44.8632         43
  44.9004         45
  44.9375         36
  44.9747         30
  45.0118         42
  45.0490         37
  45.0861         30
  45.1233         31
  45.1604         33
  45.1976         36
  45.2347         40
  45.2719         33
  45.3091         31
  45.3462         37
  45.3834         30
  45.4205         39
  45.4577         34
  45.4948         33
  45.5320         35
  45.5691         32
  45.6063         35
  45.6434         30
  45.6806         27
  45.7177         36
  45.7549         30
  45.7920         37
  45.8292         25
  45.8663         48
  45.9035         32
  45.9406         35
  45.9778         27
  46.0149         37
  46.0521         33
  46.0892         36
  46.1264         31
  46.1635         30
  46.2007         27
  46.2378         34
  46.2750         31
  46.3121         34
  46.3493         46
  46.3864         24
  46.4236         36
  46.4607         38
  46.4979         31
  46.5350         25
  46.5722         32
  46.6093         18
  46.6465         33
  46.6836         26
  46.7208         40
  46.7579         39
  46.7951         26
  46.8323         27
  46.8694         27
  46.9066         30
  46.9437         32
  46.9809         32
  47.0180         39
  47.0552         31
  47.0923         34
  47.1295         33
  47.1666         32
  47.2038         36
  47.2409         26
  47.2781         24
  47.3152         35
  47.3524         39
  47.3895         39
  47.4267         31
  47.4638         36
  47.5010         30
  47.5381         31
  47.5753         28
  47.6124         27
  47.6496         32
  47.6867         33
  47.7239         32
  47.7610         29
  47.7982         34
  47.8353         32
  47.8725         26
  47.9096         29
  47.9468         30
  47.9839         36
  48.0211         37
  48.0582         33
  48.0954         37
  48.1325         35
  48.1697         32
  48.2068         30
  48.2440         32
  48.2811         22
  48.3183         43
  48.3555         37
  48.3926         31
  48.4298         26
  48.4669         32
  48.5041         33
  48.5412         48
  48.5784         32
  48.6155         43
  48.6527         35
  48.6898         36
  48.7270         36
  48.7641         37
  48.8013         27
  48.8384         32
  48.8756         36
  48.9127         55
  48.9499         60
  48.9870         48
  49.0242         39
  49.0613         46
  49.0985         40
  49.1356         31
  49.1728         28
  49.2099         35
  49.2471         28
  49.2842         23
  49.3214         33
  49.3585         31
  49.3957         23
  49.4328         30
  49.4700         40
  49.5071         16
  49.5443         39
  49.5814         28
  49.6186         18
  49.6557         38
  49.6929         39
  49.7300         39
  49.7672         29
  49.8043         26
  49.8415         33
  49.8786         32
  49.9158         39
  49.9530         34
  49.9901         26
  50.0273         24
  50.0644         39
  50.1016         44
  50.1387         35
  50.1759         34
  50.2130         31
  50.2502         24
  50.2873         33
  50.3245         37
  50.3616         37
  50.3988         38
  50.4359         43
  50.4731         33
  50.5102         23
  50.5474         25
  50.5845         40
  50.6217         35
  50.6588         28
  50.6960         34
  50.7331         22
  50.7703         29
  50.8074         31
  50.8446         29
  50.8817         33
  50.9189         32
  50.9560         22
  50.9932         29
  51.0303         29
  51.0675         30
  51.1046         30
  51.1418         24
  51.1789         31
  51.2161         27
  51.2532         34
  51.2904         26
  51.3275         36
  51.3647         45
  51.4018         33
  51.4390         31
  51.4762         35
  51.5133         31
  51.5505         30
  51.5876         29
  51.6248         29
  51.6619         23
  51.6991         23
  51.7362         45
  51.7734         40
  51.8105         37
  51.8477         42
  51.8848         31
  51.9220         22
  51.9591         34
  51.9963         27
  52.0334         33
  52.0706         26
  52.1077         38
  52.1449         33
  52.1820         27
  52.2192         30
  52.2563         34
  52.2935         27
  52.3306         21
  52.3678         22
  52.4049         26
  52.4421         28
  52.4792         25
  52.5164         28
  52.5535         29
  52.5907         32
  52.6278         34
  52.6650         33
  52.7021         29
  52.7393         27
  52.7764         26
  52.8136         30
  52.8507         24
  52.8879         27
  52.9250         39
  52.9622         30
  52.9994         40
  53.0365         23
  53.0737         35
  53.1108         18
  53.1480         29
  53.1851         27
  53.2223         27
  53.2594         39
  53.2966         18
  53.3337         27
  53.3709         27
  53.4080         29
  53.4452         31
  53.4823         40
  53.5195         34
  53.5566         33
  53.5938         27
  53.6309         30
  53.6681         33
  53.7052         31
  53.7424         32
  53.7795         27
  53.8167         29
  53.8538         35
  53.8910         31
  53.9281         27
  53.9653         27
  54.0024         38
  54.0396         36
  54.0767         39
  54.1139         29
  54.1510         38
  54.1882         33
  54.2253         37
  54.2625         24
  54.2996         20
  54.3368         27
  54.3739         32
  54.4111         34
  54.4482         29
  54.4854         37
  54.5225         20
  54.5597         31
  54.5969         30
  54.6340         21
  54.6712         24
  54.7083         24
  54.7455         29
  54.7826         31
  54.8198         35
  54.8569         24
  54.8941         28
  54.9312         33
  54.9684         33
  55.0055         23
  55.0427         25
  55.0798         31
  55.1170         26
  55.1541         26
  55.1913         29
  55.2284         33
  55.2656         29
  55.3027         22
  55.3399         23
  55.3770         23
  55.4142         33
  55.4513         27
  55.4885         29
  55.5256         24
  55.5628         24
  55.5999         22
  55.6371         31
  55.6742         23
  55.7114         26
  55.7485         35
  55.7857         35
  55.8228         26
  55.8600         24
  55.8971         25
  55.9343         27
  55.9714         35
  56.0086         32
  56.0457         26
  56.0829         27
  56.1201         33
  56.1572         34
  56.1944         42
  56.2315         32
  56.2687         26
  56.3058         32
  56.3430         29
  56.3801         37
  56.4173         30
  56.4544         28
  56.4916         28
  56.5287         31
  56.5659         28
  56.6030         36
  56.6402         27
  56.6773         30
  56.7145         24
  56.7516         26
  56.7888         26
  56.8259         25
  56.8631         32
  56.9002         25
  56.9374         26
  56.9745         38
  57.0117         34
  57.0488         31
  57.0860         34
  57.1231         28
  57.1603         26
  57.1974         28
  57.2346         24
  57.2717         28
  57.3089         31
  57.3460         20
  57.3832         35
  57.4203         27
  57.4575         26
  57.4946         28
  57.5318         37
  57.5689         31
  57.6061         29
  57.6433         36
  57.6804         34
  57.7176         30
  57.7547         33
  57.7919         33
  57.8290         26
  57.8662         33
  57.9033         23
  57.9405         34
  57.9776         33
  58.0148         25
  58.0519         34
  58.0891         25
  58.1262         19
  58.1634         38
  58.2005         39
  58.2377         25
  58.2748         25
  58.3120         29
  58.3491         35
  58.3863         28
  58.4234         33
  58.4606         25
  58.4977         31
  58.5349         21
  58.5720         26
  58.6092         19
  58.6463         29
  58.6835         33
  58.7206         25
  58.7578         22
  58.7949         26
  58.8321         20
  58.8692         23
  58.9064         32
  58.9435         23
  58.9807         32
  59.0178         26
  59.0550         28
  59.0921         24
  59.1293         30
  59.1664         25
  59.2036         26
  59.2408         26
  59.2779         28
  59.3151         24
  59.3522         26
  59.3894         25
  59.4265         30
  59.4637         26
  59.5008         35
  59.5380         33
  59.5751         29
  59.6123         32
  59.6494         25
  59.6866         19
  59.7237         23
  59.7609         42
  59.7980         27
  59.8352         23
  59.8723         28
  59.9095         29
  59.9466         18
  59.9838         25
  60.0024         25