File: notebooks/data/xrd_data/ML_20220718_51_SJD_4_LaB6-2min.uxd
; (content of file Y:\Sam\Apurva-07-20-2022\puck4\ML_20220718_51_SJD_4_LaB6-2min.raw)
_FILEVERSION = 3
_SAMPLE = ML_20220718_51_SJD_4_LaB6-2min
_+SAMPLE =
_SITE = USA
_USER = Administrator
_GONIOMETER_CODE = 20
; Goniometer : D8 theta/2theta, stage : Unknown
_ATTACHMENTS_CODE = 0
_GONIOMETER_RADIUS = 200.5
_FIXED_DIVSLIT = 0.6
_FIXED_SAMPLESLIT = 0
_SOLLER_SLITS = 2
_FIXED_DETSLIT = 9.55
_MONOCHROMATOR = 0
; Incident beam monochromator : None
_SOLLER_SLITS_2 = N
_THIN_FILM = N
_BETA_FILTER = Y
_FIXED_ANTISLIT = 5.89
_ANALYZER_CODE = 0
; Received beam analyzer : None
_DATEMEASURED = "26-Jul-2022 12:30:02"
_WL_UNIT = A
_WL1 = 1.5406
_WL2 = 1.54439
_WL3 = 1.39222
_WLRATIO = 0.5
_ANODE = Cu
_V4_INF_CREATOR = XRDWizard
_V4_INF_CREATOR_VERSION = V2.9.0.22
_V4_INF_WIZARD_VERSION = V2.9.0.22
_V4_INF_WIZARD_ADDINS = V2.9.0.22
_V4_INF_WIZARD_DOCTYPE = XRD
_V4_INF_OSUSER = McQueenLab
_V4_INF_USER = Administrator
_V4_INF_SITE = USA
_V4_INF_SAMPLEID = ML_20220718_51_SJD_4_LaB6-2min

; Data for range 1
_DRIVE = COUPLED
_STEPTIME = 5.64
_STEPSIZE = 0.0185756
_STEPMODE = C
_START = 5
_THETA = 2.5
_2THETA = 5
_KHI = 0
_PHI = 0
_X = 0
_Y = 0
_Z = 0
_DETECTOR = 5
; Detector type : Unknown
_DETECTORSLIT = unkn
_AUX1 = 0
_AUX2 = 0
_AUX3 = 0
_TIMESTARTED = 15
_TEMP_RATE = -1
_TEMP_DELAY = -1
_KV = 40
_MA = 40
_RANGE_WL = 1.5406
_3DPLANE = 0
_V4_ADDITIONALDETECTOR = 257
_V4_PSD2THETA = 3.3734
_V4_PSDCHANNEL1 = 0
_V4_PSDAPERTURE = 12.68
_V4_PSDTYPE = 5
_V4_PSDFIXED = 0
_V4_COUNTERS_MASK = 4096
_V4_DRIVES_MASK = 0
_V4_ENCODERS_MASK = 0
_2THETACOUNTS = 1
; 2THETA  PSD
   5.0000        131
   5.0372        115
   5.0743        122
   5.1115        120
   5.1486        115
   5.1858        118
   5.2229        106
   5.2601        143
   5.2972        111
   5.3344        105
   5.3715        115
   5.4087        126
   5.4458        107
   5.4830        107
   5.5201        106
   5.5573        121
   5.5944        108
   5.6316        104
   5.6687        103
   5.7059        123
   5.7430        105
   5.7802         99
   5.8173        105
   5.8545        112
   5.8916         97
   5.9288         93
   5.9659        102
   6.0031        100
   6.0402        102
   6.0774        106
   6.1145         81
   6.1517        103
   6.1888        108
   6.2260        121
   6.2631         87
   6.3003         97
   6.3374         86
   6.3746         90
   6.4117         83
   6.4489         98
   6.4860         79
   6.5232         98
   6.5604         80
   6.5975         92
   6.6347         80
   6.6718         96
   6.7090         71
   6.7461         84
   6.7833         72
   6.8204         73
   6.8576         84
   6.8947         86
   6.9319         83
   6.9690         72
   7.0062         85
   7.0433         74
   7.0805         79
   7.1176         83
   7.1548         92
   7.1919         89
   7.2291         90
   7.2662         76
   7.3034         76
   7.3405         94
   7.3777         86
   7.4148         73
   7.4520         82
   7.4891         73
   7.5263         93
   7.5634         79
   7.6006         74
   7.6377         89
   7.6749         95
   7.7120         66
   7.7492         69
   7.7863         87
   7.8235         90
   7.8606         89
   7.8978         84
   7.9349         86
   7.9721         93
   8.0092        103
   8.0464        100
   8.0835         92
   8.1207         84
   8.1579         87
   8.1950         85
   8.2322         98
   8.2693         96
   8.3065         95
   8.3436         89
   8.3808         94
   8.4179         90
   8.4551         88
   8.4922        116
   8.5294         97
   8.5665         88
   8.6037        101
   8.6408        118
   8.6780        107
   8.7151         88
   8.7523         93
   8.7894         94
   8.8266         95
   8.8637        100
   8.9009        102
   8.9380         95
   8.9752        115
   9.0123        103
   9.0495        117
   9.0866        121
   9.1238        124
   9.1609         99
   9.1981        109
   9.2352        116
   9.2724        126
   9.3095        113
   9.3467        101
   9.3838        110
   9.4210        107
   9.4581         99
   9.4953        107
   9.5324        108
   9.5696        116
   9.6067        111
   9.6439        106
   9.6811        106
   9.7182        113
   9.7554        110
   9.7925        112
   9.8297        132
   9.8668        110
   9.9040        126
   9.9411        103
   9.9783        103
  10.0154         91
  10.0526        125
  10.0897        109
  10.1269        118
  10.1640         97
  10.2012        117
  10.2383        129
  10.2755        122
  10.3126        119
  10.3498        127
  10.3869        105
  10.4241        118
  10.4612        119
  10.4984        120
  10.5355        118
  10.5727        108
  10.6098        131
  10.6470        141
  10.6841        108
  10.7213        113
  10.7584        111
  10.7956        113
  10.8327        117
  10.8699        130
  10.9070        107
  10.9442         98
  10.9813        131
  11.0185        105
  11.0556        108
  11.0928        112
  11.1299        130
  11.1671         97
  11.2043        107
  11.2414        117
  11.2786        118
  11.3157        101
  11.3529        133
  11.3900        102
  11.4272        101
  11.4643        110
  11.5015        101
  11.5386        120
  11.5758        117
  11.6129        100
  11.6501        122
  11.6872         96
  11.7244        115
  11.7615        112
  11.7987         92
  11.8358        114
  11.8730        118
  11.9101        131
  11.9473        116
  11.9844        112
  12.0216        114
  12.0587        104
  12.0959        119
  12.1330        122
  12.1702        114
  12.2073         95
  12.2445        101
  12.2816        124
  12.3188        105
  12.3559        133
  12.3931         98
  12.4302        109
  12.4674        123
  12.5045        101
  12.5417        116
  12.5788        105
  12.6160        122
  12.6531        111
  12.6903         97
  12.7274        112
  12.7646        105
  12.8018         94
  12.8389         77
  12.8761         97
  12.9132        113
  12.9504        101
  12.9875        106
  13.0247        104
  13.0618         76
  13.0990        102
  13.1361        117
  13.1733         92
  13.2104         89
  13.2476        103
  13.2847        100
  13.3219        100
  13.3590         96
  13.3962         96
  13.4333        101
  13.4705         94
  13.5076         96
  13.5448         97
  13.5819        108
  13.6191         89
  13.6562         96
  13.6934         80
  13.7305         97
  13.7677        103
  13.8048        100
  13.8420         90
  13.8791         93
  13.9163         92
  13.9534         97
  13.9906        100
  14.0277         96
  14.0649         90
  14.1020         84
  14.1392        104
  14.1763         88
  14.2135         89
  14.2506        107
  14.2878         83
  14.3250         78
  14.3621         71
  14.3993         87
  14.4364         91
  14.4736        101
  14.5107         88
  14.5479         88
  14.5850         85
  14.6222        109
  14.6593         72
  14.6965         77
  14.7336         85
  14.7708         85
  14.8079         83
  14.8451         76
  14.8822         94
  14.9194         69
  14.9565         94
  14.9937         88
  15.0308         87
  15.0680         72
  15.1051        104
  15.1423         82
  15.1794         76
  15.2166         80
  15.2537         74
  15.2909         89
  15.3280        104
  15.3652         76
  15.4023         71
  15.4395         80
  15.4766         71
  15.5138         90
  15.5509         72
  15.5881         79
  15.6252         74
  15.6624         74
  15.6995         75
  15.7367         85
  15.7738         80
  15.8110         88
  15.8482         97
  15.8853         75
  15.9225         86
  15.9596         81
  15.9968         88
  16.0339         89
  16.0711         70
  16.1082         82
  16.1454         72
  16.1825         92
  16.2197         83
  16.2568         63
  16.2940         84
  16.3311         83
  16.3683         88
  16.4054         68
  16.4426         83
  16.4797         83
  16.5169         85
  16.5540         88
  16.5912         68
  16.6283         79
  16.6655         88
  16.7026         79
  16.7398         89
  16.7769         80
  16.8141         90
  16.8512         97
  16.8884         82
  16.9255         96
  16.9627         85
  16.9998         76
  17.0370         86
  17.0741         80
  17.1113         69
  17.1484         79
  17.1856         83
  17.2227         78
  17.2599         89
  17.2970         95
  17.3342         90
  17.3713         74
  17.4085         87
  17.4457         88
  17.4828         76
  17.5200         75
  17.5571         87
  17.5943         74
  17.6314         80
  17.6686         84
  17.7057         84
  17.7429         68
  17.7800         74
  17.8172         80
  17.8543         76
  17.8915         86
  17.9286         80
  17.9658         93
  18.0029         80
  18.0401         87
  18.0772         86
  18.1144         79
  18.1515         82
  18.1887         76
  18.2258         87
  18.2630         88
  18.3001         67
  18.3373         97
  18.3744         90
  18.4116         98
  18.4487         76
  18.4859         89
  18.5230         97
  18.5602         83
  18.5973         91
  18.6345         76
  18.6716         68
  18.7088         78
  18.7459         88
  18.7831         71
  18.8202         79
  18.8574        103
  18.8945         88
  18.9317         79
  18.9689         84
  19.0060         76
  19.0432         76
  19.0803         77
  19.1175         99
  19.1546         83
  19.1918         76
  19.2289         84
  19.2661         93
  19.3032         73
  19.3404         96
  19.3775         75
  19.4147         67
  19.4518         85
  19.4890         85
  19.5261         96
  19.5633         96
  19.6004        102
  19.6376         83
  19.6747         91
  19.7119        104
  19.7490         86
  19.7862         99
  19.8233         76
  19.8605         83
  19.8976         99
  19.9348         90
  19.9719        103
  20.0091         83
  20.0462         78
  20.0834         88
  20.1205         86
  20.1577         95
  20.1948         90
  20.2320         99
  20.2691         95
  20.3063         79
  20.3434        103
  20.3806         80
  20.4177        100
  20.4549         95
  20.4921         90
  20.5292        108
  20.5664         84
  20.6035        103
  20.6407        105
  20.6778         94
  20.7150        105
  20.7521         87
  20.7893         90
  20.8264        115
  20.8636         85
  20.9007         94
  20.9379         78
  20.9750        103
  21.0122        112
  21.0493         80
  21.0865        103
  21.1236        109
  21.1608        132
  21.1979        154
  21.2351        169
  21.2722        122
  21.3094        161
  21.3465        247
  21.3837        192
  21.4208        159
  21.4580         99
  21.4951         96
  21.5323        106
  21.5694         94
  21.6066        100
  21.6437         94
  21.6809         69
  21.7180        100
  21.7552         99
  21.7923        101
  21.8295         94
  21.8666         90
  21.9038         93
  21.9409        107
  21.9781        107
  22.0152         93
  22.0524        126
  22.0896        109
  22.1267        104
  22.1639         93
  22.2010         89
  22.2382         89
  22.2753        105
  22.3125         84
  22.3496         97
  22.3868         99
  22.4239        104
  22.4611        107
  22.4982         91
  22.5354         96
  22.5725         90
  22.6097        101
  22.6468         83
  22.6840         95
  22.7211        107
  22.7583         86
  22.7954         99
  22.8326         95
  22.8697         93
  22.9069         81
  22.9440         87
  22.9812         92
  23.0183         91
  23.0555         83
  23.0926        106
  23.1298        108
  23.1669         94
  23.2041         91
  23.2412         96
  23.2784         93
  23.3155        107
  23.3527         85
  23.3898         88
  23.4270        110
  23.4641        101
  23.5013        117
  23.5384         91
  23.5756        109
  23.6128         90
  23.6499        102
  23.6871         87
  23.7242        111
  23.7614        108
  23.7985        107
  23.8357         95
  23.8728         92
  23.9100        102
  23.9471        106
  23.9843         90
  24.0214        104
  24.0586        109
  24.0957         95
  24.1329         95
  24.1700         93
  24.2072        106
  24.2443        106
  24.2815        115
  24.3186        102
  24.3558        110
  24.3929         99
  24.4301         98
  24.4672         81
  24.5044        104
  24.5415        111
  24.5787         82
  24.6158        116
  24.6530         92
  24.6901        101
  24.7273         96
  24.7644         91
  24.8016         92
  24.8387         93
  24.8759        110
  24.9130         92
  24.9502        107
  24.9873         81
  25.0245         81
  25.0616        111
  25.0988         96
  25.1360         81
  25.1731         89
  25.2103         96
  25.2474        108
  25.2846         94
  25.3217        105
  25.3589         95
  25.3960        106
  25.4332         92
  25.4703        108
  25.5075         94
  25.5446         98
  25.5818         90
  25.6189         91
  25.6561         94
  25.6932         90
  25.7304        110
  25.7675         99
  25.8047         98
  25.8418         99
  25.8790        102
  25.9161         90
  25.9533         86
  25.9904         91
  26.0276         94
  26.0647         91
  26.1019        106
  26.1390        103
  26.1762         92
  26.2133         85
  26.2505        107
  26.2876         99
  26.3248        103
  26.3619         90
  26.3991         94
  26.4362        100
  26.4734         87
  26.5105         85
  26.5477        100
  26.5848         98
  26.6220         96
  26.6591         97
  26.6963         82
  26.7335        111
  26.7706        100
  26.8078         92
  26.8449         99
  26.8821         87
  26.9192         86
  26.9564         83
  26.9935         89
  27.0307         81
  27.0678         93
  27.1050         96
  27.1421        111
  27.1793         98
  27.2164        114
  27.2536        101
  27.2907        111
  27.3279         98
  27.3650         90
  27.4022         94
  27.4393         91
  27.4765         95
  27.5136         97
  27.5508         74
  27.5879         77
  27.6251         77
  27.6622         81
  27.6994         93
  27.7365         78
  27.7737         80
  27.8108         93
  27.8480         81
  27.8851         76
  27.9223         82
  27.9594         79
  27.9966         89
  28.0337         85
  28.0709         81
  28.1080         77
  28.1452         64
  28.1823         86
  28.2195         94
  28.2567         82
  28.2938         90
  28.3310         94
  28.3681        104
  28.4053         59
  28.4424         98
  28.4796         93
  28.5167         84
  28.5539         82
  28.5910         66
  28.6282         77
  28.6653         72
  28.7025         88
  28.7396         81
  28.7768         88
  28.8139         93
  28.8511         82
  28.8882         87
  28.9254         74
  28.9625         79
  28.9997         68
  29.0368         75
  29.0740         69
  29.1111         78
  29.1483         93
  29.1854         92
  29.2226         70
  29.2597         84
  29.2969         92
  29.3340         93
  29.3712         90
  29.4083         78
  29.4455         82
  29.4826         78
  29.5198         73
  29.5569         84
  29.5941         65
  29.6312         73
  29.6684         92
  29.7055         68
  29.7427         76
  29.7799         78
  29.8170         85
  29.8542         75
  29.8913         80
  29.9285         67
  29.9656         65
  30.0028         78
  30.0399         76
  30.0771         86
  30.1142         71
  30.1514         71
  30.1885         68
  30.2257         83
  30.2628         86
  30.3000         84
  30.3371         93
  30.3743        152
  30.4114        127
  30.4486        108
  30.4857        108
  30.5229         78
  30.5600         78
  30.5972         64
  30.6343         65
  30.6715         84
  30.7086         71
  30.7458         62
  30.7829         69
  30.8201         73
  30.8572         74
  30.8944         68
  30.9315         56
  30.9687         86
  31.0058         79
  31.0430         70
  31.0801         70
  31.1173         62
  31.1544         53
  31.1916         57
  31.2287         68
  31.2659         67
  31.3030         63
  31.3402         70
  31.3774         63
  31.4145         62
  31.4517         74
  31.4888         74
  31.5260         80
  31.5631         76
  31.6003         72
  31.6374         70
  31.6746         76
  31.7117         60
  31.7489         81
  31.7860         80
  31.8232         74
  31.8603         71
  31.8975         70
  31.9346         62
  31.9718         67
  32.0089         64
  32.0461         72
  32.0832         60
  32.1204         52
  32.1575         59
  32.1947         64
  32.2318         62
  32.2690         56
  32.3061         65
  32.3433         64
  32.3804         53
  32.4176         69
  32.4547         86
  32.4919         66
  32.5290         67
  32.5662         62
  32.6033         64
  32.6405         63
  32.6776         60
  32.7148         71
  32.7519         58
  32.7891         57
  32.8262         60
  32.8634         52
  32.9006         63
  32.9377         66
  32.9749         60
  33.0120         55
  33.0492         57
  33.0863         53
  33.1235         57
  33.1606         61
  33.1978         52
  33.2349         56
  33.2721         54
  33.3092         55
  33.3464         54
  33.3835         72
  33.4207         71
  33.4578         61
  33.4950         46
  33.5321         68
  33.5693         51
  33.6064         59
  33.6436         42
  33.6807         60
  33.7179         54
  33.7550         52
  33.7922         44
  33.8293         49
  33.8665         65
  33.9036         49
  33.9408         54
  33.9779         56
  34.0151         48
  34.0522         58
  34.0894         52
  34.1265         69
  34.1637         49
  34.2008         51
  34.2380         64
  34.2751         57
  34.3123         64
  34.3494         58
  34.3866         49
  34.4238         56
  34.4609         59
  34.4981         49
  34.5352         51
  34.5724         61
  34.6095         62
  34.6467         69
  34.6838         66
  34.7210         73
  34.7581         71
  34.7953         78
  34.8324         48
  34.8696         62
  34.9067         67
  34.9439         57
  34.9810         56
  35.0182         40
  35.0553         44
  35.0925         60
  35.1296         37
  35.1668         59
  35.2039         60
  35.2411         35
  35.2782         44
  35.3154         56
  35.3525         55
  35.3897         48
  35.4268         54
  35.4640         43
  35.5011         50
  35.5383         61
  35.5754         60
  35.6126         37
  35.6497         57
  35.6869         39
  35.7240         60
  35.7612         46
  35.7983         54
  35.8355         44
  35.8726         50
  35.9098         48
  35.9469         40
  35.9841         39
  36.0213         57
  36.0584         55
  36.0956         43
  36.1327         62
  36.1699         48
  36.2070         48
  36.2442         60
  36.2813         46
  36.3185         48
  36.3556         65
  36.3928         47
  36.4299         59
  36.4671         46
  36.5042         48
  36.5414         56
  36.5785         39
  36.6157         54
  36.6528         39
  36.6900         44
  36.7271         42
  36.7643         42
  36.8014         42
  36.8386         45
  36.8757         48
  36.9129         52
  36.9500         40
  36.9872         34
  37.0243         51
  37.0615         43
  37.0986         50
  37.1358         49
  37.1729         45
  37.2101         47
  37.2472         55
  37.2844         50
  37.3215         64
  37.3587         54
  37.3958         50
  37.4330         85
  37.4701         67
  37.5073         54
  37.5445         54
  37.5816         61
  37.6188         51
  37.6559         59
  37.6931         45
  37.7302         56
  37.7674         49
  37.8045         46
  37.8417         37
  37.8788         56
  37.9160         38
  37.9531         37
  37.9903         49
  38.0274         49
  38.0646         32
  38.1017         33
  38.1389         37
  38.1760         40
  38.2132         43
  38.2503         46
  38.2875         40
  38.3246         42
  38.3618         38
  38.3989         45
  38.4361         36
  38.4732         37
  38.5104         36
  38.5475         41
  38.5847         31
  38.6218         55
  38.6590         42
  38.6961         38
  38.7333         43
  38.7704         41
  38.8076         48
  38.8447         32
  38.8819         39
  38.9190         35
  38.9562         50
  38.9933         40
  39.0305         43
  39.0677         41
  39.1048         38
  39.1420         39
  39.1791         36
  39.2163         38
  39.2534         38
  39.2906         41
  39.3277         39
  39.3649         44
  39.4020         42
  39.4392         41
  39.4763         44
  39.5135         42
  39.5506         34
  39.5878         32
  39.6249         36
  39.6621         27
  39.6992         48
  39.7364         44
  39.7735         45
  39.8107         34
  39.8478         47
  39.8850         41
  39.9221         45
  39.9593         39
  39.9964         32
  40.0336         46
  40.0707         42
  40.1079         26
  40.1450         41
  40.1822         44
  40.2193         52
  40.2565         34
  40.2936         35
  40.3308         39
  40.3679         40
  40.4051         33
  40.4422         39
  40.4794         35
  40.5165         31
  40.5537         35
  40.5908         34
  40.6280         38
  40.6652         47
  40.7023         27
  40.7395         36
  40.7766         43
  40.8138         34
  40.8509         28
  40.8881         33
  40.9252         32
  40.9624         42
  40.9995         38
  41.0367         36
  41.0738         37
  41.1110         50
  41.1481         33
  41.1853         45
  41.2224         46
  41.2596         38
  41.2967         32
  41.3339         38
  41.3710         34
  41.4082         34
  41.4453         41
  41.4825         34
  41.5196         50
  41.5568         40
  41.5939         30
  41.6311         42
  41.6682         36
  41.7054         39
  41.7425         35
  41.7797         26
  41.8168         47
  41.8540         53
  41.8911         34
  41.9283         33
  41.9654         30
  42.0026         35
  42.0397         30
  42.0769         35
  42.1140         31
  42.1512         29
  42.1884         35
  42.2255         33
  42.2627         32
  42.2998         31
  42.3370         37
  42.3741         33
  42.4113         39
  42.4484         37
  42.4856         27
  42.5227         35
  42.5599         42
  42.5970         33
  42.6342         38
  42.6713         38
  42.7085         35
  42.7456         35
  42.7828         43
  42.8199         40
  42.8571         33
  42.8942         40
  42.9314         37
  42.9685         41
  43.0057         38
  43.0428         27
  43.0800         32
  43.1171         37
  43.1543         47
  43.1914         53
  43.2286         48
  43.2657         35
  43.3029         48
  43.3400         42
  43.3772         48
  43.4143         31
  43.4515         46
  43.4886         48
  43.5258         56
  43.5629         39
  43.6001         37
  43.6372         50
  43.6744         34
  43.7116         32
  43.7487         40
  43.7859         36
  43.8230         33
  43.8602         34
  43.8973         37
  43.9345         43
  43.9716         30
  44.0088         35
  44.0459         49
  44.0831         35
  44.1202         36
  44.1574         41
  44.1945         34
  44.2317         38
  44.2688         42
  44.3060         34
  44.3431         36
  44.3803         28
  44.4174         36
  44.4546         41
  44.4917         40
  44.5289         36
  44.5660         37
  44.6032         41
  44.6403         41
  44.6775         40
  44.7146         48
  44.7518         42
  44.7889         41
  44.8261         36
  44.8632         41
  44.9004         39
  44.9375         37
  44.9747         40
  45.0118         35
  45.0490         32
  45.0861         34
  45.1233         37
  45.1604         31
  45.1976         34
  45.2347         30
  45.2719         25
  45.3091         32
  45.3462         34
  45.3834         30
  45.4205         35
  45.4577         32
  45.4948         34
  45.5320         34
  45.5691         32
  45.6063         37
  45.6434         42
  45.6806         32
  45.7177         20
  45.7549         42
  45.7920         27
  45.8292         30
  45.8663         24
  45.9035         28
  45.9406         28
  45.9778         32
  46.0149         21
  46.0521         31
  46.0892         32
  46.1264         32
  46.1635         27
  46.2007         41
  46.2378         31
  46.2750         26
  46.3121         31
  46.3493         37
  46.3864         46
  46.4236         32
  46.4607         40
  46.4979         39
  46.5350         27
  46.5722         28
  46.6093         33
  46.6465         34
  46.6836         30
  46.7208         28
  46.7579         38
  46.7951         30
  46.8323         37
  46.8694         39
  46.9066         45
  46.9437         27
  46.9809         31
  47.0180         37
  47.0552         30
  47.0923         39
  47.1295         24
  47.1666         33
  47.2038         37
  47.2409         35
  47.2781         30
  47.3152         31
  47.3524         35
  47.3895         31
  47.4267         27
  47.4638         32
  47.5010         43
  47.5381         38
  47.5753         27
  47.6124         42
  47.6496         27
  47.6867         29
  47.7239         19
  47.7610         33
  47.7982         28
  47.8353         31
  47.8725         33
  47.9096         30
  47.9468         29
  47.9839         31
  48.0211         38
  48.0582         33
  48.0954         31
  48.1325         26
  48.1697         35
  48.2068         32
  48.2440         31
  48.2811         23
  48.3183         25
  48.3555         28
  48.3926         31
  48.4298         29
  48.4669         31
  48.5041         42
  48.5412         34
  48.5784         28
  48.6155         29
  48.6527         35
  48.6898         30
  48.7270         31
  48.7641         23
  48.8013         34
  48.8384         42
  48.8756         39
  48.9127         39
  48.9499         63
  48.9870         44
  49.0242         37
  49.0613         41
  49.0985         42
  49.1356         41
  49.1728         42
  49.2099         26
  49.2471         43
  49.2842         21
  49.3214         30
  49.3585         28
  49.3957         25
  49.4328         30
  49.4700         29
  49.5071         23
  49.5443         25
  49.5814         30
  49.6186         25
  49.6557         26
  49.6929         27
  49.7300         29
  49.7672         21
  49.8043         31
  49.8415         31
  49.8786         22
  49.9158         36
  49.9530         34
  49.9901         21
  50.0273         32
  50.0644         33
  50.1016         39
  50.1387         29
  50.1759         30
  50.2130         40
  50.2502         22
  50.2873         31
  50.3245         38
  50.3616         28
  50.3988         20
  50.4359         26
  50.4731         30
  50.5102         38
  50.5474         29
  50.5845         30
  50.6217         29
  50.6588         24
  50.6960         31
  50.7331         25
  50.7703         31
  50.8074         36
  50.8446         22
  50.8817         24
  50.9189         34
  50.9560         36
  50.9932         27
  51.0303         36
  51.0675         24
  51.1046         38
  51.1418         26
  51.1789         25
  51.2161         29
  51.2532         23
  51.2904         37
  51.3275         29
  51.3647         20
  51.4018         39
  51.4390         40
  51.4762         36
  51.5133         38
  51.5505         24
  51.5876         33
  51.6248         26
  51.6619         31
  51.6991         31
  51.7362         30
  51.7734         27
  51.8105         24
  51.8477         35
  51.8848         28
  51.9220         27
  51.9591         29
  51.9963         44
  52.0334         38
  52.0706         34
  52.1077         31
  52.1449         28
  52.1820         20
  52.2192         25
  52.2563         29
  52.2935         29
  52.3306         36
  52.3678         21
  52.4049         23
  52.4421         27
  52.4792         25
  52.5164         33
  52.5535         27
  52.5907         31
  52.6278         25
  52.6650         31
  52.7021         31
  52.7393         22
  52.7764         21
  52.8136         30
  52.8507         29
  52.8879         24
  52.9250         36
  52.9622         31
  52.9994         33
  53.0365         27
  53.0737         27
  53.1108         35
  53.1480         36
  53.1851         27
  53.2223         28
  53.2594         38
  53.2966         29
  53.3337         21
  53.3709         24
  53.4080         29
  53.4452         31
  53.4823         27
  53.5195         17
  53.5566         15
  53.5938         26
  53.6309         26
  53.6681         36
  53.7052         26
  53.7424         34
  53.7795         37
  53.8167         25
  53.8538         34
  53.8910         30
  53.9281         29
  53.9653         43
  54.0024         37
  54.0396         27
  54.0767         33
  54.1139         29
  54.1510         42
  54.1882         17
  54.2253         26
  54.2625         32
  54.2996         35
  54.3368         33
  54.3739         20
  54.4111         29
  54.4482         28
  54.4854         34
  54.5225         38
  54.5597         39
  54.5969         29
  54.6340         24
  54.6712         24
  54.7083         33
  54.7455         35
  54.7826         23
  54.8198         35
  54.8569         30
  54.8941         27
  54.9312         28
  54.9684         29
  55.0055         22
  55.0427         26
  55.0798         27
  55.1170         27
  55.1541         31
  55.1913         27
  55.2284         28
  55.2656         25
  55.3027         35
  55.3399         28
  55.3770         24
  55.4142         29
  55.4513         35
  55.4885         33
  55.5256         26
  55.5628         28
  55.5999         28
  55.6371         26
  55.6742         26
  55.7114         24
  55.7485         32
  55.7857         33
  55.8228         23
  55.8600         21
  55.8971         21
  55.9343         25
  55.9714         17
  56.0086         38
  56.0457         34
  56.0829         30
  56.1201         23
  56.1572         40
  56.1944         31
  56.2315         29
  56.2687         29
  56.3058         30
  56.3430         28
  56.3801         20
  56.4173         31
  56.4544         30
  56.4916         32
  56.5287         32
  56.5659         26
  56.6030         44
  56.6402         27
  56.6773         29
  56.7145         35
  56.7516         33
  56.7888         28
  56.8259         28
  56.8631         28
  56.9002         36
  56.9374         26
  56.9745         25
  57.0117         27
  57.0488         24
  57.0860         24
  57.1231         34
  57.1603         29
  57.1974         31
  57.2346         38
  57.2717         22
  57.3089         25
  57.3460         24
  57.3832         30
  57.4203         32
  57.4575         23
  57.4946         25
  57.5318         24
  57.5689         19
  57.6061         22
  57.6433         25
  57.6804         26
  57.7176         26
  57.7547         31
  57.7919         31
  57.8290         36
  57.8662         23
  57.9033         32
  57.9405         29
  57.9776         33
  58.0148         23
  58.0519         22
  58.0891         36
  58.1262         25
  58.1634         30
  58.2005         22
  58.2377         31
  58.2748         32
  58.3120         29
  58.3491         21
  58.3863         27
  58.4234         19
  58.4606         23
  58.4977         29
  58.5349         33
  58.5720         23
  58.6092         30
  58.6463         25
  58.6835         26
  58.7206         29
  58.7578         29
  58.7949         27
  58.8321         23
  58.8692         28
  58.9064         23
  58.9435         32
  58.9807         27
  59.0178         37
  59.0550         29
  59.0921         35
  59.1293         30
  59.1664         26
  59.2036         23
  59.2408         23
  59.2779         40
  59.3151         32
  59.3522         29
  59.3894         23
  59.4265         35
  59.4637         36
  59.5008         33
  59.5380         39
  59.5751         26
  59.6123         22
  59.6494         26
  59.6866         24
  59.7237         30
  59.7609         23
  59.7980         35
  59.8352         29
  59.8723         22
  59.9095         28
  59.9466         37
  59.9838         35
  60.0024         33