File: notebooks/data/xrd_data/ML_20220718_47_SJD_4_LaB6-1min.csv
;,2THETA,
5.0000,88
5.0372,102
5.0743,104
5.1115,76
5.1486,88
5.1858,87
5.2229,108
5.2601,85
5.2972,96
5.3344,89
5.3715,86
5.4087,97
5.4458,78
5.4830,73
5.5201,90
5.5573,82
5.5944,93
5.6316,86
5.6687,96
5.7059,89
5.7430,68
5.7802,76
5.8173,65
5.8545,77
5.8916,82
5.9288,99
5.9659,70
6.0031,71
6.0402,65
6.0774,73
6.1145,79
6.1517,71
6.1888,70
6.2260,61
6.2631,68
6.3003,81
6.3374,60
6.3746,62
6.4117,77
6.4489,55
6.4860,66
6.5232,60
6.5604,69
6.5975,68
6.6347,58
6.6718,64
6.7090,73
6.7461,59
6.7833,59
6.8204,78
6.8576,46
6.8947,62
6.9319,62
6.9690,76
7.0062,65
7.0433,72
7.0805,58
7.1176,53
7.1548,55
7.1919,57
7.2291,50
7.2662,65
7.3034,50
7.3405,51
7.3777,63
7.4148,78
7.4520,65
7.4891,55
7.5263,55
7.5634,59
7.6006,60
7.6377,57
7.6749,70
7.7120,57
7.7492,58
7.7863,76
7.8235,62
7.8606,56
7.8978,73
7.9349,77
7.9721,52
8.0092,76
8.0464,82
8.0835,62
8.1207,79
8.1579,65
8.1950,79
8.2322,62
8.2693,76
8.3065,66
8.3436,70
8.3808,59
8.4179,80
8.4551,73
8.4922,82
8.5294,77
8.5665,75
8.6037,76
8.6408,88
8.6780,72
8.7151,74
8.7523,90
8.7894,77
8.8266,60
8.8637,68
8.9009,71
8.9380,74
8.9752,88
9.0123,91
9.0495,71
9.0866,71
9.1238,83
9.1609,78
9.1981,92
9.2352,82
9.2724,73
9.3095,84
9.3467,85
9.3838,70
9.4210,74
9.4581,68
9.4953,87
9.5324,83
9.5696,75
9.6067,92
9.6439,87
9.6811,70
9.7182,84
9.7554,70
9.7925,80
9.8297,87
9.8668,92
9.9040,103
9.9411,73
9.9783,92
10.0154,83
10.0526,80
10.0897,96
10.1269,92
10.1640,82
10.2012,74
10.2383,84
10.2755,91
10.3126,96
10.3498,71
10.3869,88
10.4241,83
10.4612,85
10.4984,89
10.5355,76
10.5727,78
10.6098,80
10.6470,92
10.6841,71
10.7213,91
10.7584,95
10.7956,85
10.8327,90
10.8699,82
10.9070,80
10.9442,92
10.9813,87
11.0185,93
11.0556,84
11.0928,65
11.1299,96
11.1671,83
11.2043,82
11.2414,99
11.2786,83
11.3157,80
11.3529,79
11.3900,75
11.4272,83
11.4643,109
11.5015,107
11.5386,86
11.5758,99
11.6129,98
11.6501,79
11.6872,91
11.7244,87
11.7615,87
11.7987,88
11.8358,81
11.8730,86
11.9101,100
11.9473,87
11.9844,82
12.0216,96
12.0587,80
12.0959,92
12.1330,73
12.1702,64
12.2073,73
12.2445,69
12.2816,65
12.3188,92
12.3559,87
12.3931,78
12.4302,63
12.4674,76
12.5045,76
12.5417,52
12.5788,64
12.6160,79
12.6531,71
12.6903,70
12.7274,79
12.7646,79
12.8018,75
12.8389,77
12.8761,62
12.9132,80
12.9504,65
12.9875,74
13.0247,66
13.0618,70
13.0990,83
13.1361,75
13.1733,85
13.2104,66
13.2476,91
13.2847,79
13.3219,77
13.3590,65
13.3962,78
13.4333,82
13.4705,57
13.5076,69
13.5448,100
13.5819,66
13.6191,74
13.6562,87
13.6934,67
13.7305,60
13.7677,62
13.8048,71
13.8420,65
13.8791,68
13.9163,65
13.9534,65
13.9906,66
14.0277,66
14.0649,59
14.1020,63
14.1392,70
14.1763,63
14.2135,61
14.2506,64
14.2878,66
14.3250,57
14.3621,65
14.3993,56
14.4364,67
14.4736,66
14.5107,56
14.5479,53
14.5850,60
14.6222,64
14.6593,84
14.6965,77
14.7336,60
14.7708,66
14.8079,58
14.8451,60
14.8822,54
14.9194,70
14.9565,49
14.9937,52
15.0308,63
15.0680,48
15.1051,72
15.1423,68
15.1794,66
15.2166,63
15.2537,61
15.2909,66
15.3280,55
15.3652,55
15.4023,64
15.4395,61
15.4766,56
15.5138,74
15.5509,59
15.5881,70
15.6252,63
15.6624,57
15.6995,50
15.7367,70
15.7738,70
15.8110,67
15.8482,70
15.8853,68
15.9225,61
15.9596,55
15.9968,46
16.0339,60
16.0711,65
16.1082,63
16.1454,68
16.1825,67
16.2197,55
16.2568,67
16.2940,64
16.3311,47
16.3683,60
16.4054,60
16.4426,58
16.4797,52
16.5169,66
16.5540,59
16.5912,65
16.6283,65
16.6655,69
16.7026,60
16.7398,54
16.7769,67
16.8141,55
16.8512,53
16.8884,55
16.9255,55
16.9627,63
16.9998,47
17.0370,60
17.0741,67
17.1113,60
17.1484,54
17.1856,59
17.2227,68
17.2599,65
17.2970,46
17.3342,63
17.3713,61
17.4085,46
17.4457,64
17.4828,48
17.5200,54
17.5571,67
17.5943,48
17.6314,65
17.6686,55
17.7057,71
17.7429,70
17.7800,58
17.8172,60
17.8543,44
17.8915,54
17.9286,48
17.9658,55
18.0029,39
18.0401,57
18.0772,52
18.1144,56
18.1515,64
18.1887,73
18.2258,66
18.2630,65
18.3001,46
18.3373,61
18.3744,73
18.4116,51
18.4487,68
18.4859,69
18.5230,67
18.5602,63
18.5973,75
18.6345,58
18.6716,63
18.7088,62
18.7459,58
18.7831,66
18.8202,72
18.8574,53
18.8945,56
18.9317,70
18.9689,62
19.0060,60
19.0432,60
19.0803,77
19.1175,58
19.1546,77
19.1918,62
19.2289,71
19.2661,66
19.3032,59
19.3404,53
19.3775,67
19.4147,63
19.4518,54
19.4890,69
19.5261,51
19.5633,70
19.6004,46
19.6376,55
19.6747,52
19.7119,68
19.7490,65
19.7862,72
19.8233,65
19.8605,72
19.8976,70
19.9348,68
19.9719,73
20.0091,73
20.0462,60
20.0834,65
20.1205,76
20.1577,58
20.1948,43
20.2320,72
20.2691,71
20.3063,70
20.3434,66
20.3806,58
20.4177,55
20.4549,55
20.4921,73
20.5292,73
20.5664,61
20.6035,66
20.6407,67
20.6778,85
20.7150,68
20.7521,69
20.7893,68
20.8264,76
20.8636,74
20.9007,67
20.9379,74
20.9750,73
21.0122,65
21.0493,71
21.0865,80
21.1236,82
21.1608,91
21.1979,102
21.2351,124
21.2722,108
21.3094,116
21.3465,199
21.3837,152
21.4208,133
21.4580,94
21.4951,65
21.5323,74
21.5694,85
21.6066,80
21.6437,59
21.6809,79
21.7180,71
21.7552,70
21.7923,56
21.8295,66
21.8666,71
21.9038,64
21.9409,66
21.9781,59
22.0152,68
22.0524,57
22.0896,67
22.1267,69
22.1639,67
22.2010,79
22.2382,68
22.2753,59
22.3125,73
22.3496,71
22.3868,66
22.4239,92
22.4611,77
22.4982,71
22.5354,56
22.5725,65
22.6097,76
22.6468,65
22.6840,60
22.7211,72
22.7583,71
22.7954,79
22.8326,74
22.8697,68
22.9069,72
22.9440,91
22.9812,69
23.0183,83
23.0555,73
23.0926,87
23.1298,86
23.1669,69
23.2041,72
23.2412,74
23.2784,72
23.3155,77
23.3527,77
23.3898,78
23.4270,71
23.4641,62
23.5013,90
23.5384,64
23.5756,58
23.6128,53
23.6499,73
23.6871,71
23.7242,89
23.7614,85
23.7985,70
23.8357,71
23.8728,83
23.9100,79
23.9471,79
23.9843,80
24.0214,72
24.0586,71
24.0957,78
24.1329,67
24.1700,76
24.2072,66
24.2443,83
24.2815,78
24.3186,78
24.3558,79
24.3929,88
24.4301,72
24.4672,87
24.5044,75
24.5415,79
24.5787,60
24.6158,67
24.6530,85
24.6901,76
24.7273,73
24.7644,94
24.8016,82
24.8387,72
24.8759,77
24.9130,68
24.9502,75
24.9873,77
25.0245,75
25.0616,78
25.0988,72
25.1360,70
25.1731,75
25.2103,64
25.2474,69
25.2846,74
25.3217,78
25.3589,68
25.3960,80
25.4332,86
25.4703,58
25.5075,73
25.5446,68
25.5818,99
25.6189,91
25.6561,81
25.6932,57
25.7304,68
25.7675,74
25.8047,70
25.8418,73
25.8790,82
25.9161,84
25.9533,66
25.9904,60
26.0276,59
26.0647,72
26.1019,72
26.1390,68
26.1762,67
26.2133,69
26.2505,64
26.2876,69
26.3248,64
26.3619,71
26.3991,74
26.4362,56
26.4734,54
26.5105,57
26.5477,66
26.5848,75
26.6220,68
26.6591,78
26.6963,64
26.7335,60
26.7706,60
26.8078,69
26.8449,61
26.8821,70
26.9192,60
26.9564,67
26.9935,69
27.0307,80
27.0678,68
27.1050,70
27.1421,78
27.1793,87
27.2164,84
27.2536,74
27.2907,78
27.3279,75
27.3650,64
27.4022,70
27.4393,74
27.4765,74
27.5136,63
27.5508,56
27.5879,65
27.6251,58
27.6622,74
27.6994,72
27.7365,64
27.7737,59
27.8108,66
27.8480,70
27.8851,68
27.9223,78
27.9594,67
27.9966,55
28.0337,67
28.0709,52
28.1080,89
28.1452,60
28.1823,69
28.2195,55
28.2567,61
28.2938,60
28.3310,76
28.3681,53
28.4053,46
28.4424,53
28.4796,47
28.5167,72
28.5539,58
28.5910,63
28.6282,62
28.6653,58
28.7025,59
28.7396,59
28.7768,74
28.8139,60
28.8511,70
28.8882,57
28.9254,63
28.9625,63
28.9997,67
29.0368,66
29.0740,71
29.1111,57
29.1483,76
29.1854,56
29.2226,46
29.2597,54
29.2969,49
29.3340,72
29.3712,58
29.4083,58
29.4455,61
29.4826,53
29.5198,56
29.5569,78
29.5941,43
29.6312,61
29.6684,59
29.7055,49
29.7427,66
29.7799,56
29.8170,57
29.8542,44
29.8913,66
29.9285,48
29.9656,58
30.0028,58
30.0399,53
30.0771,51
30.1142,64
30.1514,66
30.1885,52
30.2257,63
30.2628,70
30.3000,58
30.3371,89
30.3743,109
30.4114,101
30.4486,100
30.4857,71
30.5229,60
30.5600,59
30.5972,58
30.6343,58
30.6715,58
30.7086,54
30.7458,68
30.7829,36
30.8201,54
30.8572,69
30.8944,52
30.9315,39
30.9687,45
31.0058,54
31.0430,53
31.0801,44
31.1173,78
31.1544,47
31.1916,62
31.2287,49
31.2659,50
31.3030,61
31.3402,47
31.3774,39
31.4145,47
31.4517,50
31.4888,56
31.5260,50
31.5631,52
31.6003,51
31.6374,55
31.6746,50
31.7117,46
31.7489,44
31.7860,45
31.8232,62
31.8603,39
31.8975,52
31.9346,42
31.9718,40
32.0089,54
32.0461,55
32.0832,33
32.1204,54
32.1575,51
32.1947,39
32.2318,56
32.2690,50
32.3061,51
32.3433,53
32.3804,66
32.4176,65
32.4547,55
32.4919,64
32.5290,56
32.5662,47
32.6033,63
32.6405,43
32.6776,28
32.7148,55
32.7519,43
32.7891,45
32.8262,57
32.8634,50
32.9006,52
32.9377,53
32.9749,48
33.0120,47
33.0492,47
33.0863,66
33.1235,44
33.1606,50
33.1978,48
33.2349,46
33.2721,48
33.3092,53
33.3464,49
33.3835,40
33.4207,35
33.4578,39
33.4950,37
33.5321,53
33.5693,42
33.6064,47
33.6436,39
33.6807,41
33.7179,45
33.7550,39
33.7922,45
33.8293,56
33.8665,48
33.9036,52
33.9408,48
33.9779,40
34.0151,45
34.0522,43
34.0894,39
34.1265,35
34.1637,37
34.2008,39
34.2380,50
34.2751,57
34.3123,43
34.3494,38
34.3866,54
34.4238,39
34.4609,51
34.4981,46
34.5352,42
34.5724,46
34.6095,37
34.6467,45
34.6838,40
34.7210,53
34.7581,52
34.7953,54
34.8324,49
34.8696,53
34.9067,47
34.9439,37
34.9810,37
35.0182,34
35.0553,36
35.0925,40
35.1296,44
35.1668,36
35.2039,43
35.2411,51
35.2782,46
35.3154,34
35.3525,29
35.3897,32
35.4268,38
35.4640,30
35.5011,31
35.5383,38
35.5754,38
35.6126,31
35.6497,41
35.6869,37
35.7240,25
35.7612,29
35.7983,50
35.8355,33
35.8726,30
35.9098,44
35.9469,37
35.9841,21
36.0213,41
36.0584,32
36.0956,44
36.1327,45
36.1699,44
36.2070,37
36.2442,32
36.2813,39
36.3185,38
36.3556,29
36.3928,36
36.4299,29
36.4671,35
36.5042,35
36.5414,26
36.5785,35
36.6157,38
36.6528,30
36.6900,41
36.7271,38
36.7643,30
36.8014,33
36.8386,38
36.8757,35
36.9129,27
36.9500,27
36.9872,27
37.0243,26
37.0615,35
37.0986,37
37.1358,38
37.1729,41
37.2101,23
37.2472,32
37.2844,46
37.3215,48
37.3587,54
37.3958,36
37.4330,53
37.4701,54
37.5073,39
37.5445,42
37.5816,53
37.6188,45
37.6559,33
37.6931,31
37.7302,37
37.7674,29
37.8045,31
37.8417,34
37.8788,31
37.9160,32
37.9531,46
37.9903,34
38.0274,27
38.0646,29
38.1017,28
38.1389,24
38.1760,38
38.2132,25
38.2503,27
38.2875,27
38.3246,38
38.3618,29
38.3989,41
38.4361,34
38.4732,33
38.5104,28
38.5475,44
38.5847,23
38.6218,27
38.6590,29
38.6961,33
38.7333,39
38.7704,34
38.8076,42
38.8447,32
38.8819,31
38.9190,31
38.9562,21
38.9933,35
39.0305,40
39.0677,34
39.1048,41
39.1420,31
39.1791,31
39.2163,23
39.2534,43
39.2906,20
39.3277,33
39.3649,25
39.4020,35
39.4392,28
39.4763,23
39.5135,33
39.5506,20
39.5878,33
39.6249,38
39.6621,23
39.6992,25
39.7364,26
39.7735,30
39.8107,26
39.8478,26
39.8850,24
39.9221,30
39.9593,20
39.9964,37
40.0336,33
40.0707,33
40.1079,35
40.1450,32
40.1822,38
40.2193,34
40.2565,46
40.2936,37
40.3308,29
40.3679,22
40.4051,30
40.4422,17
40.4794,22
40.5165,29
40.5537,22
40.5908,33
40.6280,37
40.6652,32
40.7023,25
40.7395,30
40.7766,32
40.8138,19
40.8509,39
40.8881,24
40.9252,32
40.9624,33
40.9995,31
41.0367,29
41.0738,32
41.1110,24
41.1481,31
41.1853,22
41.2224,29
41.2596,35
41.2967,22
41.3339,25
41.3710,24
41.4082,28
41.4453,35
41.4825,30
41.5196,29
41.5568,33
41.5939,29
41.6311,26
41.6682,28
41.7054,25
41.7425,25
41.7797,31
41.8168,24
41.8540,30
41.8911,28
41.9283,23
41.9654,28
42.0026,26
42.0397,31
42.0769,20
42.1140,30
42.1512,26
42.1884,28
42.2255,29
42.2627,35
42.2998,18
42.3370,26
42.3741,29
42.4113,30
42.4484,21
42.4856,24
42.5227,24
42.5599,37
42.5970,28
42.6342,32
42.6713,27
42.7085,27
42.7456,29
42.7828,28
42.8199,18
42.8571,34
42.8942,17
42.9314,27
42.9685,26
43.0057,23
43.0428,40
43.0800,36
43.1171,18
43.1543,36
43.1914,28
43.2286,29
43.2657,22
43.3029,41
43.3400,33
43.3772,31
43.4143,29
43.4515,37
43.4886,35
43.5258,48
43.5629,35
43.6001,36
43.6372,42
43.6744,29
43.7116,27
43.7487,28
43.7859,17
43.8230,22
43.8602,21
43.8973,25
43.9345,28
43.9716,40
44.0088,29
44.0459,26
44.0831,23
44.1202,14
44.1574,31
44.1945,29
44.2317,18
44.2688,18
44.3060,30
44.3431,23
44.3803,29
44.4174,22
44.4546,19
44.4917,25
44.5289,37
44.5660,34
44.6032,24
44.6403,26
44.6775,32
44.7146,27
44.7518,22
44.7889,29
44.8261,41
44.8632,27
44.9004,26
44.9375,29
44.9747,20
45.0118,19
45.0490,30
45.0861,27
45.1233,29
45.1604,22
45.1976,18
45.2347,25
45.2719,28
45.3091,17
45.3462,21
45.3834,20
45.4205,23
45.4577,30
45.4948,26
45.5320,25
45.5691,18
45.6063,23
45.6434,22
45.6806,28
45.7177,32
45.7549,31
45.7920,28
45.8292,27
45.8663,21
45.9035,20
45.9406,32
45.9778,29
46.0149,26
46.0521,32
46.0892,19
46.1264,26
46.1635,18
46.2007,18
46.2378,21
46.2750,25
46.3121,26
46.3493,25
46.3864,21
46.4236,33
46.4607,26
46.4979,23
46.5350,26
46.5722,23
46.6093,16
46.6465,17
46.6836,24
46.7208,29
46.7579,21
46.7951,27
46.8323,27
46.8694,15
46.9066,15
46.9437,27
46.9809,24
47.0180,21
47.0552,16
47.0923,23
47.1295,21
47.1666,23
47.2038,33
47.2409,27
47.2781,27
47.3152,25
47.3524,17
47.3895,24
47.4267,26
47.4638,13
47.5010,13
47.5381,36
47.5753,20
47.6124,24
47.6496,21
47.6867,30
47.7239,29
47.7610,20
47.7982,21
47.8353,17
47.8725,30
47.9096,22
47.9468,20
47.9839,22
48.0211,19
48.0582,29
48.0954,29
48.1325,19
48.1697,34
48.2068,19
48.2440,14
48.2811,17
48.3183,23
48.3555,22
48.3926,20
48.4298,27
48.4669,25
48.5041,23
48.5412,24
48.5784,28
48.6155,26
48.6527,26
48.6898,23
48.7270,22
48.7641,19
48.8013,31
48.8384,14
48.8756,23
48.9127,31
48.9499,40
48.9870,44
49.0242,27
49.0613,36
49.0985,30
49.1356,27
49.1728,22
49.2099,22
49.2471,23
49.2842,22
49.3214,23
49.3585,33
49.3957,26
49.4328,20
49.4700,20
49.5071,21
49.5443,29
49.5814,20
49.6186,20
49.6557,18
49.6929,28
49.7300,18
49.7672,21
49.8043,21
49.8415,29
49.8786,22
49.9158,23
49.9530,19
49.9901,26
50.0273,21
50.0644,15
50.1016,28
50.1387,20
50.1759,26
50.2130,24
50.2502,19
50.2873,26
50.3245,20
50.3616,26
50.3988,33
50.4359,18
50.4731,24
50.5102,16
50.5474,27
50.5845,16
50.6217,23
50.6588,20
50.6960,24
50.7331,22
50.7703,23
50.8074,31
50.8446,20
50.8817,24
50.9189,24
50.9560,22
50.9932,22
51.0303,22
51.0675,23
51.1046,24
51.1418,20
51.1789,23
51.2161,18
51.2532,24
51.2904,21
51.3275,24
51.3647,19
51.4018,23
51.4390,24
51.4762,17
51.5133,21
51.5505,23
51.5876,21
51.6248,31
51.6619,21
51.6991,20
51.7362,33
51.7734,19
51.8105,19
51.8477,21
51.8848,25
51.9220,22
51.9591,24
51.9963,23
52.0334,32
52.0706,21
52.1077,19
52.1449,21
52.1820,25
52.2192,27
52.2563,20
52.2935,18
52.3306,24
52.3678,13
52.4049,23
52.4421,15
52.4792,28
52.5164,20
52.5535,9
52.5907,27
52.6278,18
52.6650,16
52.7021,16
52.7393,21
52.7764,22
52.8136,21
52.8507,21
52.8879,21
52.9250,25
52.9622,21
52.9994,19
53.0365,19
53.0737,26
53.1108,20
53.1480,21
53.1851,19
53.2223,20
53.2594,19
53.2966,21
53.3337,20
53.3709,28
53.4080,19
53.4452,26
53.4823,17
53.5195,20
53.5566,23
53.5938,24
53.6309,17
53.6681,27
53.7052,19
53.7424,18
53.7795,22
53.8167,27
53.8538,22
53.8910,38
53.9281,21
53.9653,29
54.0024,37
54.0396,28
54.0767,32
54.1139,25
54.1510,20
54.1882,27
54.2253,29
54.2625,28
54.2996,19
54.3368,22
54.3739,27
54.4111,16
54.4482,20
54.4854,25
54.5225,23
54.5597,23
54.5969,19
54.6340,16
54.6712,26
54.7083,17
54.7455,21
54.7826,15
54.8198,20
54.8569,16
54.8941,19
54.9312,16
54.9684,22
55.0055,12
55.0427,21
55.0798,25
55.1170,18
55.1541,24
55.1913,19
55.2284,14
55.2656,16
55.3027,22
55.3399,13
55.3770,23
55.4142,20
55.4513,22
55.4885,17
55.5256,16
55.5628,12
55.5999,24
55.6371,21
55.6742,20
55.7114,16
55.7485,16
55.7857,20
55.8228,15
55.8600,24
55.8971,16
55.9343,15
55.9714,12
56.0086,19
56.0457,19
56.0829,20
56.1201,18
56.1572,19
56.1944,26
56.2315,19
56.2687,23
56.3058,21
56.3430,19
56.3801,25
56.4173,24
56.4544,20
56.4916,19
56.5287,22
56.5659,23
56.6030,12
56.6402,23
56.6773,23
56.7145,22
56.7516,29
56.7888,24
56.8259,22
56.8631,20
56.9002,21
56.9374,24
56.9745,21
57.0117,17
57.0488,23
57.0860,25
57.1231,17
57.1603,13
57.1974,22
57.2346,17
57.2717,15
57.3089,20
57.3460,23
57.3832,24
57.4203,13
57.4575,20
57.4946,18
57.5318,19
57.5689,21
57.6061,24
57.6433,21
57.6804,14
57.7176,23
57.7547,20
57.7919,23
57.8290,11
57.8662,25
57.9033,21
57.9405,23
57.9776,15
58.0148,10
58.0519,21
58.0891,21
58.1262,31
58.1634,18
58.2005,18
58.2377,25
58.2748,25
58.3120,16
58.3491,27
58.3863,20
58.4234,27
58.4606,20
58.4977,14
58.5349,16
58.5720,20
58.6092,22
58.6463,18
58.6835,19
58.7206,17
58.7578,20
58.7949,15
58.8321,19
58.8692,17
58.9064,17
58.9435,16
58.9807,15
59.0178,15
59.0550,24
59.0921,20
59.1293,12
59.1664,22
59.2036,23
59.2408,20
59.2779,18
59.3151,15
59.3522,26
59.3894,25
59.4265,19
59.4637,22
59.5008,21
59.5380,21
59.5751,18
59.6123,23
59.6494,13
59.6866,17
59.7237,19
59.7609,20
59.7980,18
59.8352,25
59.8723,23
59.9095,18
59.9466,21
59.9838,17
60.0024,26