File: notebooks/data/xrd_data/ML_20220718_21_SJD_4_LaB6-2min.csv
;,2THETA,
5.0000,158
5.0372,134
5.0743,125
5.1115,108
5.1486,116
5.1858,123
5.2229,121
5.2601,121
5.2972,115
5.3344,130
5.3715,119
5.4087,125
5.4458,133
5.4830,113
5.5201,109
5.5573,106
5.5944,115
5.6316,111
5.6687,116
5.7059,107
5.7430,107
5.7802,106
5.8173,100
5.8545,108
5.8916,88
5.9288,92
5.9659,100
6.0031,104
6.0402,109
6.0774,102
6.1145,83
6.1517,83
6.1888,100
6.2260,99
6.2631,80
6.3003,76
6.3374,89
6.3746,87
6.4117,91
6.4489,80
6.4860,86
6.5232,92
6.5604,68
6.5975,85
6.6347,92
6.6718,101
6.7090,75
6.7461,85
6.7833,76
6.8204,100
6.8576,82
6.8947,73
6.9319,87
6.9690,82
7.0062,84
7.0433,77
7.0805,79
7.1176,89
7.1548,80
7.1919,84
7.2291,70
7.2662,70
7.3034,82
7.3405,74
7.3777,72
7.4148,73
7.4520,83
7.4891,86
7.5263,68
7.5634,88
7.6006,102
7.6377,86
7.6749,87
7.7120,91
7.7492,96
7.7863,92
7.8235,97
7.8606,87
7.8978,97
7.9349,86
7.9721,109
8.0092,74
8.0464,107
8.0835,93
8.1207,90
8.1579,89
8.1950,100
8.2322,91
8.2693,102
8.3065,90
8.3436,102
8.3808,86
8.4179,103
8.4551,108
8.4922,97
8.5294,112
8.5665,106
8.6037,111
8.6408,78
8.6780,102
8.7151,108
8.7523,105
8.7894,87
8.8266,108
8.8637,112
8.9009,100
8.9380,95
8.9752,82
9.0123,116
9.0495,109
9.0866,123
9.1238,87
9.1609,120
9.1981,123
9.2352,103
9.2724,117
9.3095,104
9.3467,101
9.3838,111
9.4210,108
9.4581,126
9.4953,121
9.5324,100
9.5696,104
9.6067,125
9.6439,95
9.6811,98
9.7182,123
9.7554,132
9.7925,112
9.8297,115
9.8668,132
9.9040,135
9.9411,140
9.9783,130
10.0154,112
10.0526,114
10.0897,150
10.1269,112
10.1640,107
10.2012,122
10.2383,117
10.2755,124
10.3126,133
10.3498,127
10.3869,112
10.4241,124
10.4612,114
10.4984,139
10.5355,101
10.5727,130
10.6098,138
10.6470,117
10.6841,114
10.7213,118
10.7584,126
10.7956,116
10.8327,136
10.8699,116
10.9070,119
10.9442,109
10.9813,128
11.0185,114
11.0556,125
11.0928,114
11.1299,134
11.1671,108
11.2043,118
11.2414,116
11.2786,110
11.3157,122
11.3529,131
11.3900,126
11.4272,120
11.4643,112
11.5015,115
11.5386,104
11.5758,114
11.6129,108
11.6501,120
11.6872,102
11.7244,122
11.7615,110
11.7987,112
11.8358,121
11.8730,114
11.9101,129
11.9473,107
11.9844,140
12.0216,88
12.0587,107
12.0959,99
12.1330,108
12.1702,120
12.2073,99
12.2445,116
12.2816,121
12.3188,113
12.3559,112
12.3931,109
12.4302,96
12.4674,95
12.5045,109
12.5417,111
12.5788,125
12.6160,89
12.6531,96
12.6903,112
12.7274,117
12.7646,85
12.8018,92
12.8389,114
12.8761,88
12.9132,93
12.9504,111
12.9875,103
13.0247,95
13.0618,96
13.0990,103
13.1361,92
13.1733,104
13.2104,119
13.2476,91
13.2847,92
13.3219,108
13.3590,94
13.3962,100
13.4333,92
13.4705,85
13.5076,117
13.5448,73
13.5819,103
13.6191,82
13.6562,92
13.6934,93
13.7305,97
13.7677,112
13.8048,90
13.8420,87
13.8791,96
13.9163,101
13.9534,88
13.9906,96
14.0277,102
14.0649,90
14.1020,94
14.1392,103
14.1763,113
14.2135,100
14.2506,103
14.2878,86
14.3250,100
14.3621,78
14.3993,89
14.4364,84
14.4736,84
14.5107,98
14.5479,92
14.5850,93
14.6222,72
14.6593,75
14.6965,81
14.7336,86
14.7708,85
14.8079,96
14.8451,82
14.8822,83
14.9194,88
14.9565,96
14.9937,84
15.0308,94
15.0680,70
15.1051,77
15.1423,88
15.1794,75
15.2166,71
15.2537,77
15.2909,78
15.3280,105
15.3652,95
15.4023,81
15.4395,88
15.4766,80
15.5138,88
15.5509,82
15.5881,70
15.6252,81
15.6624,80
15.6995,82
15.7367,90
15.7738,63
15.8110,74
15.8482,87
15.8853,83
15.9225,71
15.9596,75
15.9968,66
16.0339,92
16.0711,98
16.1082,79
16.1454,78
16.1825,83
16.2197,84
16.2568,90
16.2940,87
16.3311,83
16.3683,75
16.4054,76
16.4426,78
16.4797,81
16.5169,79
16.5540,88
16.5912,72
16.6283,75
16.6655,71
16.7026,96
16.7398,69
16.7769,79
16.8141,90
16.8512,76
16.8884,85
16.9255,69
16.9627,85
16.9998,79
17.0370,77
17.0741,92
17.1113,87
17.1484,86
17.1856,85
17.2227,79
17.2599,81
17.2970,95
17.3342,88
17.3713,74
17.4085,77
17.4457,101
17.4828,96
17.5200,86
17.5571,78
17.5943,76
17.6314,92
17.6686,85
17.7057,89
17.7429,97
17.7800,94
17.8172,82
17.8543,90
17.8915,104
17.9286,83
17.9658,95
18.0029,92
18.0401,81
18.0772,67
18.1144,88
18.1515,87
18.1887,90
18.2258,65
18.2630,82
18.3001,77
18.3373,82
18.3744,97
18.4116,99
18.4487,75
18.4859,85
18.5230,101
18.5602,64
18.5973,67
18.6345,78
18.6716,88
18.7088,86
18.7459,91
18.7831,90
18.8202,71
18.8574,85
18.8945,82
18.9317,75
18.9689,76
19.0060,85
19.0432,83
19.0803,91
19.1175,80
19.1546,80
19.1918,74
19.2289,82
19.2661,84
19.3032,89
19.3404,95
19.3775,78
19.4147,70
19.4518,68
19.4890,92
19.5261,107
19.5633,88
19.6004,79
19.6376,99
19.6747,112
19.7119,77
19.7490,85
19.7862,83
19.8233,72
19.8605,96
19.8976,90
19.9348,69
19.9719,112
20.0091,85
20.0462,87
20.0834,96
20.1205,69
20.1577,92
20.1948,101
20.2320,95
20.2691,106
20.3063,99
20.3434,101
20.3806,104
20.4177,97
20.4549,102
20.4921,86
20.5292,107
20.5664,84
20.6035,90
20.6407,91
20.6778,100
20.7150,79
20.7521,90
20.7893,88
20.8264,85
20.8636,86
20.9007,97
20.9379,86
20.9750,108
21.0122,97
21.0493,95
21.0865,81
21.1236,117
21.1608,120
21.1979,152
21.2351,176
21.2722,149
21.3094,163
21.3465,239
21.3837,213
21.4208,179
21.4580,134
21.4951,121
21.5323,90
21.5694,81
21.6066,102
21.6437,97
21.6809,104
21.7180,114
21.7552,100
21.7923,84
21.8295,81
21.8666,96
21.9038,108
21.9409,94
21.9781,92
22.0152,89
22.0524,93
22.0896,83
22.1267,107
22.1639,95
22.2010,100
22.2382,82
22.2753,100
22.3125,84
22.3496,101
22.3868,90
22.4239,103
22.4611,109
22.4982,108
22.5354,118
22.5725,75
22.6097,84
22.6468,97
22.6840,82
22.7211,94
22.7583,93
22.7954,117
22.8326,95
22.8697,103
22.9069,97
22.9440,100
22.9812,101
23.0183,104
23.0555,92
23.0926,108
23.1298,113
23.1669,100
23.2041,96
23.2412,108
23.2784,109
23.3155,114
23.3527,111
23.3898,99
23.4270,100
23.4641,111
23.5013,107
23.5384,104
23.5756,106
23.6128,98
23.6499,90
23.6871,80
23.7242,104
23.7614,89
23.7985,104
23.8357,95
23.8728,87
23.9100,121
23.9471,100
23.9843,105
24.0214,101
24.0586,122
24.0957,86
24.1329,96
24.1700,99
24.2072,106
24.2443,87
24.2815,99
24.3186,119
24.3558,107
24.3929,106
24.4301,99
24.4672,104
24.5044,109
24.5415,100
24.5787,108
24.6158,110
24.6530,98
24.6901,89
24.7273,79
24.7644,85
24.8016,85
24.8387,106
24.8759,90
24.9130,118
24.9502,90
24.9873,99
25.0245,93
25.0616,102
25.0988,101
25.1360,96
25.1731,99
25.2103,104
25.2474,109
25.2846,91
25.3217,117
25.3589,81
25.3960,105
25.4332,85
25.4703,87
25.5075,98
25.5446,92
25.5818,97
25.6189,100
25.6561,112
25.6932,102
25.7304,91
25.7675,97
25.8047,85
25.8418,91
25.8790,119
25.9161,93
25.9533,107
25.9904,84
26.0276,101
26.0647,95
26.1019,97
26.1390,89
26.1762,98
26.2133,117
26.2505,101
26.2876,91
26.3248,118
26.3619,109
26.3991,106
26.4362,98
26.4734,86
26.5105,106
26.5477,103
26.5848,102
26.6220,81
26.6591,92
26.6963,86
26.7335,93
26.7706,99
26.8078,107
26.8449,111
26.8821,86
26.9192,107
26.9564,95
26.9935,83
27.0307,105
27.0678,93
27.1050,85
27.1421,95
27.1793,130
27.2164,108
27.2536,111
27.2907,99
27.3279,104
27.3650,100
27.4022,92
27.4393,75
27.4765,91
27.5136,89
27.5508,84
27.5879,85
27.6251,97
27.6622,87
27.6994,89
27.7365,88
27.7737,76
27.8108,84
27.8480,84
27.8851,92
27.9223,72
27.9594,87
27.9966,95
28.0337,87
28.0709,89
28.1080,83
28.1452,84
28.1823,84
28.2195,84
28.2567,77
28.2938,77
28.3310,74
28.3681,76
28.4053,80
28.4424,74
28.4796,95
28.5167,91
28.5539,100
28.5910,75
28.6282,78
28.6653,83
28.7025,84
28.7396,82
28.7768,76
28.8139,82
28.8511,95
28.8882,80
28.9254,84
28.9625,84
28.9997,64
29.0368,85
29.0740,80
29.1111,87
29.1483,82
29.1854,72
29.2226,92
29.2597,70
29.2969,83
29.3340,67
29.3712,74
29.4083,75
29.4455,70
29.4826,69
29.5198,87
29.5569,79
29.5941,66
29.6312,87
29.6684,79
29.7055,76
29.7427,78
29.7799,103
29.8170,83
29.8542,65
29.8913,60
29.9285,82
29.9656,83
30.0028,82
30.0399,75
30.0771,89
30.1142,76
30.1514,76
30.1885,62
30.2257,73
30.2628,74
30.3000,76
30.3371,99
30.3743,158
30.4114,143
30.4486,135
30.4857,112
30.5229,81
30.5600,70
30.5972,80
30.6343,83
30.6715,89
30.7086,69
30.7458,83
30.7829,74
30.8201,78
30.8572,66
30.8944,83
30.9315,61
30.9687,65
31.0058,66
31.0430,64
31.0801,84
31.1173,74
31.1544,69
31.1916,76
31.2287,64
31.2659,66
31.3030,58
31.3402,64
31.3774,71
31.4145,65
31.4517,74
31.4888,66
31.5260,67
31.5631,63
31.6003,61
31.6374,57
31.6746,55
31.7117,71
31.7489,88
31.7860,63
31.8232,68
31.8603,82
31.8975,74
31.9346,63
31.9718,55
32.0089,71
32.0461,72
32.0832,60
32.1204,67
32.1575,69
32.1947,87
32.2318,70
32.2690,66
32.3061,64
32.3433,63
32.3804,75
32.4176,56
32.4547,88
32.4919,80
32.5290,73
32.5662,63
32.6033,84
32.6405,69
32.6776,64
32.7148,60
32.7519,67
32.7891,43
32.8262,47
32.8634,77
32.9006,63
32.9377,68
32.9749,61
33.0120,52
33.0492,56
33.0863,63
33.1235,64
33.1606,42
33.1978,61
33.2349,54
33.2721,62
33.3092,51
33.3464,68
33.3835,50
33.4207,63
33.4578,60
33.4950,45
33.5321,46
33.5693,60
33.6064,50
33.6436,52
33.6807,44
33.7179,50
33.7550,62
33.7922,57
33.8293,58
33.8665,63
33.9036,53
33.9408,51
33.9779,51
34.0151,61
34.0522,57
34.0894,56
34.1265,56
34.1637,54
34.2008,61
34.2380,72
34.2751,56
34.3123,59
34.3494,47
34.3866,58
34.4238,68
34.4609,61
34.4981,66
34.5352,54
34.5724,75
34.6095,60
34.6467,66
34.6838,55
34.7210,77
34.7581,80
34.7953,89
34.8324,68
34.8696,69
34.9067,67
34.9439,51
34.9810,54
35.0182,56
35.0553,59
35.0925,61
35.1296,47
35.1668,45
35.2039,51
35.2411,47
35.2782,42
35.3154,52
35.3525,51
35.3897,55
35.4268,42
35.4640,36
35.5011,46
35.5383,54
35.5754,48
35.6126,40
35.6497,40
35.6869,51
35.7240,54
35.7612,60
35.7983,60
35.8355,55
35.8726,41
35.9098,41
35.9469,41
35.9841,47
36.0213,39
36.0584,50
36.0956,52
36.1327,46
36.1699,43
36.2070,46
36.2442,60
36.2813,53
36.3185,50
36.3556,48
36.3928,59
36.4299,53
36.4671,38
36.5042,43
36.5414,46
36.5785,50
36.6157,39
36.6528,52
36.6900,46
36.7271,46
36.7643,53
36.8014,40
36.8386,39
36.8757,49
36.9129,41
36.9500,56
36.9872,37
37.0243,46
37.0615,25
37.0986,44
37.1358,51
37.1729,56
37.2101,44
37.2472,43
37.2844,59
37.3215,44
37.3587,58
37.3958,48
37.4330,69
37.4701,56
37.5073,48
37.5445,56
37.5816,38
37.6188,49
37.6559,48
37.6931,49
37.7302,32
37.7674,49
37.8045,36
37.8417,43
37.8788,37
37.9160,34
37.9531,38
37.9903,52
38.0274,36
38.0646,37
38.1017,44
38.1389,45
38.1760,42
38.2132,40
38.2503,48
38.2875,47
38.3246,39
38.3618,38
38.3989,39
38.4361,50
38.4732,48
38.5104,41
38.5475,41
38.5847,37
38.6218,54
38.6590,41
38.6961,41
38.7333,49
38.7704,41
38.8076,41
38.8447,50
38.8819,42
38.9190,38
38.9562,44
38.9933,44
39.0305,34
39.0677,44
39.1048,47
39.1420,39
39.1791,36
39.2163,37
39.2534,41
39.2906,47
39.3277,51
39.3649,42
39.4020,46
39.4392,46
39.4763,40
39.5135,34
39.5506,39
39.5878,43
39.6249,27
39.6621,34
39.6992,41
39.7364,55
39.7735,45
39.8107,39
39.8478,44
39.8850,34
39.9221,50
39.9593,34
39.9964,52
40.0336,41
40.0707,40
40.1079,45
40.1450,48
40.1822,44
40.2193,35
40.2565,37
40.2936,25
40.3308,32
40.3679,37
40.4051,45
40.4422,30
40.4794,31
40.5165,46
40.5537,44
40.5908,39
40.6280,36
40.6652,40
40.7023,44
40.7395,41
40.7766,42
40.8138,38
40.8509,40
40.8881,39
40.9252,51
40.9624,42
40.9995,33
41.0367,50
41.0738,43
41.1110,51
41.1481,43
41.1853,30
41.2224,30
41.2596,40
41.2967,35
41.3339,28
41.3710,42
41.4082,27
41.4453,32
41.4825,30
41.5196,35
41.5568,34
41.5939,33
41.6311,34
41.6682,31
41.7054,50
41.7425,49
41.7797,41
41.8168,39
41.8540,38
41.8911,37
41.9283,38
41.9654,36
42.0026,39
42.0397,32
42.0769,44
42.1140,37
42.1512,43
42.1884,44
42.2255,37
42.2627,33
42.2998,31
42.3370,31
42.3741,32
42.4113,40
42.4484,25
42.4856,51
42.5227,30
42.5599,40
42.5970,43
42.6342,31
42.6713,40
42.7085,37
42.7456,33
42.7828,43
42.8199,40
42.8571,26
42.8942,49
42.9314,39
42.9685,27
43.0057,39
43.0428,39
43.0800,31
43.1171,50
43.1543,34
43.1914,37
43.2286,53
43.2657,51
43.3029,43
43.3400,44
43.3772,48
43.4143,48
43.4515,55
43.4886,45
43.5258,73
43.5629,48
43.6001,59
43.6372,60
43.6744,37
43.7116,44
43.7487,34
43.7859,30
43.8230,26
43.8602,42
43.8973,36
43.9345,31
43.9716,40
44.0088,34
44.0459,30
44.0831,35
44.1202,42
44.1574,40
44.1945,37
44.2317,50
44.2688,26
44.3060,27
44.3431,46
44.3803,41
44.4174,33
44.4546,47
44.4917,45
44.5289,41
44.5660,27
44.6032,27
44.6403,38
44.6775,48
44.7146,50
44.7518,37
44.7889,35
44.8261,49
44.8632,37
44.9004,41
44.9375,34
44.9747,32
45.0118,34
45.0490,35
45.0861,31
45.1233,36
45.1604,37
45.1976,31
45.2347,29
45.2719,45
45.3091,39
45.3462,28
45.3834,29
45.4205,43
45.4577,36
45.4948,39
45.5320,34
45.5691,23
45.6063,25
45.6434,35
45.6806,41
45.7177,35
45.7549,43
45.7920,33
45.8292,44
45.8663,36
45.9035,39
45.9406,31
45.9778,35
46.0149,31
46.0521,28
46.0892,35
46.1264,38
46.1635,39
46.2007,27
46.2378,36
46.2750,33
46.3121,27
46.3493,29
46.3864,51
46.4236,27
46.4607,31
46.4979,36
46.5350,39
46.5722,33
46.6093,32
46.6465,36
46.6836,39
46.7208,30
46.7579,29
46.7951,29
46.8323,52
46.8694,26
46.9066,37
46.9437,35
46.9809,38
47.0180,29
47.0552,34
47.0923,31
47.1295,24
47.1666,32
47.2038,48
47.2409,37
47.2781,24
47.3152,34
47.3524,43
47.3895,37
47.4267,25
47.4638,34
47.5010,25
47.5381,47
47.5753,34
47.6124,29
47.6496,35
47.6867,35
47.7239,29
47.7610,28
47.7982,32
47.8353,32
47.8725,30
47.9096,28
47.9468,28
47.9839,30
48.0211,33
48.0582,34
48.0954,35
48.1325,19
48.1697,30
48.2068,37
48.2440,36
48.2811,27
48.3183,30
48.3555,28
48.3926,29
48.4298,34
48.4669,27
48.5041,25
48.5412,42
48.5784,37
48.6155,32
48.6527,35
48.6898,37
48.7270,35
48.7641,30
48.8013,35
48.8384,32
48.8756,40
48.9127,32
48.9499,70
48.9870,60
49.0242,32
49.0613,34
49.0985,52
49.1356,47
49.1728,33
49.2099,32
49.2471,35
49.2842,42
49.3214,27
49.3585,34
49.3957,36
49.4328,26
49.4700,20
49.5071,33
49.5443,19
49.5814,24
49.6186,25
49.6557,27
49.6929,28
49.7300,28
49.7672,23
49.8043,24
49.8415,30
49.8786,32
49.9158,29
49.9530,24
49.9901,32
50.0273,38
50.0644,30
50.1016,41
50.1387,29
50.1759,35
50.2130,30
50.2502,42
50.2873,44
50.3245,30
50.3616,39
50.3988,37
50.4359,32
50.4731,32
50.5102,30
50.5474,30
50.5845,30
50.6217,36
50.6588,27
50.6960,32
50.7331,27
50.7703,21
50.8074,25
50.8446,28
50.8817,31
50.9189,26
50.9560,38
50.9932,29
51.0303,29
51.0675,30
51.1046,29
51.1418,28
51.1789,37
51.2161,32
51.2532,28
51.2904,30
51.3275,42
51.3647,39
51.4018,29
51.4390,35
51.4762,25
51.5133,30
51.5505,43
51.5876,32
51.6248,29
51.6619,32
51.6991,31
51.7362,31
51.7734,30
51.8105,27
51.8477,30
51.8848,35
51.9220,34
51.9591,29
51.9963,29
52.0334,27
52.0706,28
52.1077,28
52.1449,36
52.1820,41
52.2192,35
52.2563,24
52.2935,35
52.3306,35
52.3678,24
52.4049,27
52.4421,31
52.4792,34
52.5164,34
52.5535,25
52.5907,31
52.6278,30
52.6650,27
52.7021,20
52.7393,25
52.7764,32
52.8136,26
52.8507,28
52.8879,19
52.9250,29
52.9622,33
52.9994,31
53.0365,35
53.0737,27
53.1108,42
53.1480,24
53.1851,25
53.2223,37
53.2594,33
53.2966,23
53.3337,38
53.3709,37
53.4080,28
53.4452,26
53.4823,42
53.5195,23
53.5566,36
53.5938,30
53.6309,27
53.6681,32
53.7052,23
53.7424,34
53.7795,33
53.8167,36
53.8538,40
53.8910,32
53.9281,32
53.9653,39
54.0024,40
54.0396,18
54.0767,31
54.1139,41
54.1510,33
54.1882,26
54.2253,31
54.2625,43
54.2996,36
54.3368,22
54.3739,36
54.4111,31
54.4482,30
54.4854,33
54.5225,20
54.5597,30
54.5969,27
54.6340,25
54.6712,33
54.7083,27
54.7455,27
54.7826,29
54.8198,29
54.8569,23
54.8941,23
54.9312,31
54.9684,37
55.0055,29
55.0427,32
55.0798,27
55.1170,27
55.1541,24
55.1913,27
55.2284,28
55.2656,25
55.3027,20
55.3399,25
55.3770,37
55.4142,35
55.4513,25
55.4885,35
55.5256,30
55.5628,26
55.5999,21
55.6371,26
55.6742,23
55.7114,27
55.7485,43
55.7857,26
55.8228,30
55.8600,38
55.8971,30
55.9343,30
55.9714,33
56.0086,31
56.0457,20
56.0829,27
56.1201,33
56.1572,24
56.1944,22
56.2315,29
56.2687,28
56.3058,27
56.3430,24
56.3801,39
56.4173,32
56.4544,26
56.4916,32
56.5287,27
56.5659,23
56.6030,18
56.6402,29
56.6773,32
56.7145,31
56.7516,23
56.7888,28
56.8259,26
56.8631,28
56.9002,27
56.9374,27
56.9745,24
57.0117,28
57.0488,35
57.0860,29
57.1231,20
57.1603,26
57.1974,33
57.2346,38
57.2717,41
57.3089,28
57.3460,38
57.3832,32
57.4203,28
57.4575,18
57.4946,34
57.5318,27
57.5689,37
57.6061,33
57.6433,29
57.6804,29
57.7176,29
57.7547,28
57.7919,21
57.8290,39
57.8662,29
57.9033,34
57.9405,33
57.9776,22
58.0148,25
58.0519,28
58.0891,28
58.1262,24
58.1634,20
58.2005,16
58.2377,36
58.2748,32
58.3120,23
58.3491,22
58.3863,24
58.4234,25
58.4606,29
58.4977,31
58.5349,22
58.5720,38
58.6092,29
58.6463,26
58.6835,33
58.7206,39
58.7578,26
58.7949,18
58.8321,26
58.8692,22
58.9064,19
58.9435,30
58.9807,26
59.0178,20
59.0550,23
59.0921,31
59.1293,30
59.1664,23
59.2036,26
59.2408,21
59.2779,24
59.3151,33
59.3522,26
59.3894,12
59.4265,27
59.4637,39
59.5008,27
59.5380,25
59.5751,20
59.6123,24
59.6494,29
59.6866,18
59.7237,24
59.7609,22
59.7980,36
59.8352,28
59.8723,24
59.9095,28
59.9466,37
59.9838,16
60.0024,34