File: notebooks/data/xrd_data/ML_20220720_34_SJD_4_LaB6-1min.csv
;,2THETA,
5.0000,119
5.0372,91
5.0743,99
5.1115,77
5.1486,87
5.1858,105
5.2229,90
5.2601,83
5.2972,96
5.3344,91
5.3715,79
5.4087,90
5.4458,89
5.4830,76
5.5201,89
5.5573,71
5.5944,87
5.6316,71
5.6687,86
5.7059,70
5.7430,80
5.7802,81
5.8173,65
5.8545,84
5.8916,72
5.9288,74
5.9659,72
6.0031,63
6.0402,75
6.0774,61
6.1145,63
6.1517,72
6.1888,72
6.2260,88
6.2631,72
6.3003,60
6.3374,74
6.3746,56
6.4117,58
6.4489,54
6.4860,59
6.5232,76
6.5604,76
6.5975,51
6.6347,77
6.6718,58
6.7090,72
6.7461,51
6.7833,56
6.8204,52
6.8576,62
6.8947,60
6.9319,57
6.9690,57
7.0062,65
7.0433,63
7.0805,69
7.1176,76
7.1548,63
7.1919,53
7.2291,49
7.2662,61
7.3034,50
7.3405,69
7.3777,64
7.4148,48
7.4520,64
7.4891,66
7.5263,68
7.5634,58
7.6006,62
7.6377,55
7.6749,60
7.7120,63
7.7492,77
7.7863,66
7.8235,80
7.8606,74
7.8978,67
7.9349,70
7.9721,71
8.0092,48
8.0464,69
8.0835,79
8.1207,69
8.1579,74
8.1950,72
8.2322,80
8.2693,59
8.3065,76
8.3436,77
8.3808,79
8.4179,76
8.4551,74
8.4922,66
8.5294,69
8.5665,70
8.6037,66
8.6408,75
8.6780,75
8.7151,71
8.7523,65
8.7894,54
8.8266,76
8.8637,73
8.9009,63
8.9380,78
8.9752,88
9.0123,91
9.0495,65
9.0866,72
9.1238,78
9.1609,84
9.1981,75
9.2352,85
9.2724,84
9.3095,77
9.3467,67
9.3838,86
9.4210,83
9.4581,83
9.4953,72
9.5324,84
9.5696,75
9.6067,77
9.6439,70
9.6811,102
9.7182,71
9.7554,91
9.7925,80
9.8297,82
9.8668,103
9.9040,93
9.9411,100
9.9783,80
10.0154,91
10.0526,89
10.0897,66
10.1269,77
10.1640,81
10.2012,96
10.2383,96
10.2755,91
10.3126,86
10.3498,66
10.3869,99
10.4241,87
10.4612,85
10.4984,81
10.5355,90
10.5727,96
10.6098,91
10.6470,84
10.6841,89
10.7213,82
10.7584,80
10.7956,86
10.8327,101
10.8699,95
10.9070,92
10.9442,87
10.9813,82
11.0185,79
11.0556,81
11.0928,90
11.1299,88
11.1671,71
11.2043,91
11.2414,98
11.2786,96
11.3157,86
11.3529,93
11.3900,83
11.4272,88
11.4643,89
11.5015,98
11.5386,106
11.5758,77
11.6129,86
11.6501,98
11.6872,102
11.7244,87
11.7615,81
11.7987,96
11.8358,80
11.8730,87
11.9101,78
11.9473,81
11.9844,99
12.0216,79
12.0587,90
12.0959,89
12.1330,83
12.1702,76
12.2073,91
12.2445,76
12.2816,66
12.3188,81
12.3559,72
12.3931,82
12.4302,84
12.4674,93
12.5045,81
12.5417,83
12.5788,71
12.6160,96
12.6531,80
12.6903,78
12.7274,75
12.7646,82
12.8018,75
12.8389,86
12.8761,73
12.9132,80
12.9504,90
12.9875,83
13.0247,71
13.0618,79
13.0990,74
13.1361,66
13.1733,64
13.2104,68
13.2476,74
13.2847,82
13.3219,74
13.3590,82
13.3962,77
13.4333,71
13.4705,62
13.5076,68
13.5448,77
13.5819,94
13.6191,76
13.6562,88
13.6934,81
13.7305,64
13.7677,70
13.8048,68
13.8420,82
13.8791,68
13.9163,75
13.9534,59
13.9906,62
14.0277,70
14.0649,72
14.1020,66
14.1392,66
14.1763,54
14.2135,72
14.2506,63
14.2878,67
14.3250,65
14.3621,69
14.3993,63
14.4364,65
14.4736,52
14.5107,54
14.5479,53
14.5850,69
14.6222,64
14.6593,63
14.6965,55
14.7336,56
14.7708,59
14.8079,71
14.8451,59
14.8822,45
14.9194,60
14.9565,59
14.9937,59
15.0308,67
15.0680,71
15.1051,68
15.1423,62
15.1794,66
15.2166,59
15.2537,64
15.2909,54
15.3280,57
15.3652,67
15.4023,59
15.4395,68
15.4766,51
15.5138,70
15.5509,55
15.5881,60
15.6252,70
15.6624,55
15.6995,60
15.7367,73
15.7738,64
15.8110,58
15.8482,65
15.8853,58
15.9225,57
15.9596,49
15.9968,61
16.0339,55
16.0711,57
16.1082,68
16.1454,48
16.1825,62
16.2197,61
16.2568,60
16.2940,62
16.3311,70
16.3683,39
16.4054,70
16.4426,51
16.4797,54
16.5169,63
16.5540,51
16.5912,62
16.6283,47
16.6655,66
16.7026,72
16.7398,60
16.7769,56
16.8141,71
16.8512,49
16.8884,41
16.9255,59
16.9627,65
16.9998,65
17.0370,58
17.0741,53
17.1113,70
17.1484,69
17.1856,65
17.2227,61
17.2599,65
17.2970,65
17.3342,59
17.3713,79
17.4085,55
17.4457,59
17.4828,65
17.5200,56
17.5571,51
17.5943,65
17.6314,63
17.6686,66
17.7057,57
17.7429,65
17.7800,48
17.8172,56
17.8543,72
17.8915,66
17.9286,50
17.9658,64
18.0029,63
18.0401,57
18.0772,50
18.1144,72
18.1515,56
18.1887,56
18.2258,67
18.2630,61
18.3001,70
18.3373,52
18.3744,73
18.4116,51
18.4487,56
18.4859,57
18.5230,61
18.5602,66
18.5973,66
18.6345,53
18.6716,51
18.7088,43
18.7459,58
18.7831,48
18.8202,62
18.8574,58
18.8945,65
18.9317,57
18.9689,44
19.0060,56
19.0432,60
19.0803,54
19.1175,48
19.1546,64
19.1918,60
19.2289,63
19.2661,58
19.3032,57
19.3404,60
19.3775,72
19.4147,53
19.4518,64
19.4890,62
19.5261,74
19.5633,71
19.6004,58
19.6376,76
19.6747,70
19.7119,69
19.7490,61
19.7862,55
19.8233,63
19.8605,55
19.8976,59
19.9348,68
19.9719,53
20.0091,60
20.0462,57
20.0834,58
20.1205,59
20.1577,60
20.1948,73
20.2320,75
20.2691,72
20.3063,69
20.3434,78
20.3806,70
20.4177,79
20.4549,68
20.4921,67
20.5292,72
20.5664,67
20.6035,73
20.6407,57
20.6778,77
20.7150,85
20.7521,70
20.7893,79
20.8264,83
20.8636,61
20.9007,68
20.9379,81
20.9750,71
21.0122,76
21.0493,73
21.0865,88
21.1236,80
21.1608,80
21.1979,97
21.2351,119
21.2722,120
21.3094,133
21.3465,191
21.3837,163
21.4208,133
21.4580,80
21.4951,65
21.5323,77
21.5694,80
21.6066,72
21.6437,84
21.6809,73
21.7180,79
21.7552,99
21.7923,78
21.8295,66
21.8666,67
21.9038,54
21.9409,70
21.9781,61
22.0152,80
22.0524,77
22.0896,74
22.1267,80
22.1639,79
22.2010,89
22.2382,72
22.2753,69
22.3125,73
22.3496,75
22.3868,75
22.4239,60
22.4611,85
22.4982,70
22.5354,66
22.5725,74
22.6097,66
22.6468,67
22.6840,51
22.7211,58
22.7583,89
22.7954,70
22.8326,85
22.8697,70
22.9069,66
22.9440,61
22.9812,72
23.0183,95
23.0555,67
23.0926,72
23.1298,64
23.1669,66
23.2041,91
23.2412,67
23.2784,89
23.3155,94
23.3527,68
23.3898,85
23.4270,58
23.4641,73
23.5013,76
23.5384,75
23.5756,65
23.6128,74
23.6499,85
23.6871,72
23.7242,70
23.7614,80
23.7985,87
23.8357,72
23.8728,85
23.9100,65
23.9471,74
23.9843,83
24.0214,84
24.0586,64
24.0957,82
24.1329,82
24.1700,67
24.2072,86
24.2443,89
24.2815,87
24.3186,79
24.3558,86
24.3929,85
24.4301,80
24.4672,86
24.5044,84
24.5415,54
24.5787,83
24.6158,90
24.6530,91
24.6901,53
24.7273,76
24.7644,83
24.8016,79
24.8387,77
24.8759,75
24.9130,85
24.9502,84
24.9873,74
25.0245,92
25.0616,91
25.0988,69
25.1360,74
25.1731,75
25.2103,76
25.2474,53
25.2846,70
25.3217,74
25.3589,65
25.3960,61
25.4332,77
25.4703,66
25.5075,69
25.5446,60
25.5818,83
25.6189,71
25.6561,79
25.6932,74
25.7304,69
25.7675,54
25.8047,70
25.8418,58
25.8790,89
25.9161,61
25.9533,80
25.9904,62
26.0276,79
26.0647,83
26.1019,68
26.1390,81
26.1762,74
26.2133,83
26.2505,70
26.2876,74
26.3248,64
26.3619,65
26.3991,72
26.4362,76
26.4734,79
26.5105,73
26.5477,86
26.5848,69
26.6220,64
26.6591,58
26.6963,69
26.7335,76
26.7706,64
26.8078,74
26.8449,55
26.8821,59
26.9192,56
26.9564,51
26.9935,64
27.0307,62
27.0678,68
27.1050,60
27.1421,75
27.1793,102
27.2164,112
27.2536,92
27.2907,67
27.3279,64
27.3650,74
27.4022,85
27.4393,65
27.4765,67
27.5136,72
27.5508,70
27.5879,83
27.6251,64
27.6622,62
27.6994,66
27.7365,70
27.7737,51
27.8108,61
27.8480,78
27.8851,63
27.9223,61
27.9594,59
27.9966,60
28.0337,67
28.0709,70
28.1080,74
28.1452,59
28.1823,61
28.2195,59
28.2567,65
28.2938,73
28.3310,61
28.3681,65
28.4053,72
28.4424,55
28.4796,67
28.5167,54
28.5539,50
28.5910,62
28.6282,61
28.6653,59
28.7025,69
28.7396,60
28.7768,67
28.8139,60
28.8511,66
28.8882,72
28.9254,43
28.9625,53
28.9997,63
29.0368,61
29.0740,58
29.1111,55
29.1483,64
29.1854,49
29.2226,61
29.2597,62
29.2969,51
29.3340,66
29.3712,45
29.4083,49
29.4455,72
29.4826,71
29.5198,54
29.5569,49
29.5941,42
29.6312,61
29.6684,47
29.7055,61
29.7427,55
29.7799,54
29.8170,66
29.8542,49
29.8913,56
29.9285,57
29.9656,57
30.0028,84
30.0399,53
30.0771,58
30.1142,52
30.1514,52
30.1885,61
30.2257,50
30.2628,64
30.3000,57
30.3371,71
30.3743,109
30.4114,92
30.4486,98
30.4857,78
30.5229,69
30.5600,50
30.5972,67
30.6343,49
30.6715,53
30.7086,56
30.7458,50
30.7829,60
30.8201,52
30.8572,61
30.8944,69
30.9315,48
30.9687,41
31.0058,51
31.0430,54
31.0801,58
31.1173,43
31.1544,33
31.1916,66
31.2287,37
31.2659,53
31.3030,51
31.3402,52
31.3774,31
31.4145,55
31.4517,33
31.4888,53
31.5260,50
31.5631,47
31.6003,56
31.6374,44
31.6746,57
31.7117,50
31.7489,40
31.7860,36
31.8232,58
31.8603,41
31.8975,46
31.9346,45
31.9718,53
32.0089,38
32.0461,50
32.0832,49
32.1204,38
32.1575,57
32.1947,52
32.2318,47
32.2690,49
32.3061,44
32.3433,54
32.3804,49
32.4176,63
32.4547,83
32.4919,55
32.5290,58
32.5662,50
32.6033,45
32.6405,66
32.6776,54
32.7148,41
32.7519,40
32.7891,56
32.8262,39
32.8634,47
32.9006,48
32.9377,37
32.9749,40
33.0120,49
33.0492,47
33.0863,41
33.1235,50
33.1606,39
33.1978,49
33.2349,46
33.2721,48
33.3092,42
33.3464,40
33.3835,50
33.4207,49
33.4578,51
33.4950,49
33.5321,39
33.5693,35
33.6064,41
33.6436,51
33.6807,57
33.7179,53
33.7550,36
33.7922,37
33.8293,36
33.8665,38
33.9036,45
33.9408,44
33.9779,41
34.0151,37
34.0522,37
34.0894,52
34.1265,45
34.1637,39
34.2008,37
34.2380,40
34.2751,43
34.3123,39
34.3494,45
34.3866,46
34.4238,51
34.4609,36
34.4981,48
34.5352,48
34.5724,50
34.6095,50
34.6467,52
34.6838,60
34.7210,41
34.7581,41
34.7953,56
34.8324,58
34.8696,45
34.9067,51
34.9439,43
34.9810,38
35.0182,33
35.0553,45
35.0925,43
35.1296,45
35.1668,36
35.2039,37
35.2411,29
35.2782,40
35.3154,26
35.3525,38
35.3897,33
35.4268,44
35.4640,32
35.5011,49
35.5383,30
35.5754,28
35.6126,31
35.6497,35
35.6869,35
35.7240,38
35.7612,34
35.7983,42
35.8355,43
35.8726,45
35.9098,34
35.9469,37
35.9841,42
36.0213,40
36.0584,37
36.0956,41
36.1327,35
36.1699,33
36.2070,24
36.2442,39
36.2813,39
36.3185,42
36.3556,35
36.3928,44
36.4299,33
36.4671,43
36.5042,36
36.5414,30
36.5785,29
36.6157,36
36.6528,34
36.6900,38
36.7271,44
36.7643,39
36.8014,21
36.8386,29
36.8757,34
36.9129,43
36.9500,29
36.9872,37
37.0243,30
37.0615,38
37.0986,32
37.1358,23
37.1729,41
37.2101,41
37.2472,30
37.2844,37
37.3215,35
37.3587,32
37.3958,32
37.4330,62
37.4701,57
37.5073,41
37.5445,34
37.5816,40
37.6188,28
37.6559,42
37.6931,43
37.7302,28
37.7674,38
37.8045,36
37.8417,35
37.8788,33
37.9160,24
37.9531,28
37.9903,34
38.0274,37
38.0646,23
38.1017,32
38.1389,34
38.1760,40
38.2132,30
38.2503,33
38.2875,31
38.3246,29
38.3618,30
38.3989,32
38.4361,33
38.4732,27
38.5104,37
38.5475,29
38.5847,31
38.6218,30
38.6590,26
38.6961,22
38.7333,37
38.7704,35
38.8076,28
38.8447,39
38.8819,36
38.9190,39
38.9562,26
38.9933,20
39.0305,27
39.0677,31
39.1048,28
39.1420,38
39.1791,35
39.2163,30
39.2534,32
39.2906,30
39.3277,26
39.3649,33
39.4020,36
39.4392,25
39.4763,25
39.5135,27
39.5506,31
39.5878,30
39.6249,26
39.6621,20
39.6992,33
39.7364,32
39.7735,34
39.8107,22
39.8478,27
39.8850,39
39.9221,31
39.9593,26
39.9964,35
40.0336,27
40.0707,30
40.1079,30
40.1450,28
40.1822,31
40.2193,28
40.2565,14
40.2936,31
40.3308,24
40.3679,32
40.4051,23
40.4422,24
40.4794,18
40.5165,27
40.5537,29
40.5908,28
40.6280,20
40.6652,25
40.7023,24
40.7395,29
40.7766,31
40.8138,34
40.8509,25
40.8881,27
40.9252,24
40.9624,25
40.9995,28
41.0367,27
41.0738,35
41.1110,28
41.1481,32
41.1853,29
41.2224,22
41.2596,35
41.2967,28
41.3339,25
41.3710,29
41.4082,28
41.4453,18
41.4825,32
41.5196,23
41.5568,29
41.5939,28
41.6311,25
41.6682,28
41.7054,20
41.7425,25
41.7797,31
41.8168,32
41.8540,26
41.8911,23
41.9283,27
41.9654,25
42.0026,24
42.0397,26
42.0769,18
42.1140,32
42.1512,31
42.1884,36
42.2255,22
42.2627,28
42.2998,29
42.3370,27
42.3741,33
42.4113,30
42.4484,19
42.4856,18
42.5227,19
42.5599,24
42.5970,36
42.6342,34
42.6713,24
42.7085,32
42.7456,25
42.7828,30
42.8199,32
42.8571,25
42.8942,33
42.9314,21
42.9685,27
43.0057,28
43.0428,21
43.0800,28
43.1171,35
43.1543,25
43.1914,38
43.2286,40
43.2657,38
43.3029,31
43.3400,21
43.3772,28
43.4143,29
43.4515,39
43.4886,39
43.5258,58
43.5629,43
43.6001,42
43.6372,29
43.6744,23
43.7116,25
43.7487,15
43.7859,29
43.8230,23
43.8602,28
43.8973,31
43.9345,27
43.9716,24
44.0088,25
44.0459,30
44.0831,24
44.1202,27
44.1574,23
44.1945,34
44.2317,23
44.2688,35
44.3060,30
44.3431,21
44.3803,24
44.4174,26
44.4546,31
44.4917,25
44.5289,17
44.5660,23
44.6032,35
44.6403,30
44.6775,40
44.7146,25
44.7518,32
44.7889,32
44.8261,26
44.8632,26
44.9004,17
44.9375,28
44.9747,20
45.0118,22
45.0490,29
45.0861,25
45.1233,26
45.1604,28
45.1976,23
45.2347,37
45.2719,27
45.3091,25
45.3462,29
45.3834,28
45.4205,32
45.4577,22
45.4948,27
45.5320,26
45.5691,27
45.6063,28
45.6434,31
45.6806,27
45.7177,27
45.7549,24
45.7920,23
45.8292,23
45.8663,35
45.9035,19
45.9406,31
45.9778,24
46.0149,24
46.0521,29
46.0892,23
46.1264,33
46.1635,28
46.2007,20
46.2378,22
46.2750,18
46.3121,19
46.3493,27
46.3864,27
46.4236,24
46.4607,22
46.4979,30
46.5350,26
46.5722,31
46.6093,28
46.6465,22
46.6836,23
46.7208,23
46.7579,26
46.7951,22
46.8323,26
46.8694,23
46.9066,14
46.9437,28
46.9809,22
47.0180,23
47.0552,12
47.0923,23
47.1295,23
47.1666,27
47.2038,30
47.2409,25
47.2781,18
47.3152,22
47.3524,21
47.3895,27
47.4267,29
47.4638,20
47.5010,25
47.5381,22
47.5753,19
47.6124,26
47.6496,29
47.6867,17
47.7239,23
47.7610,31
47.7982,18
47.8353,18
47.8725,24
47.9096,23
47.9468,13
47.9839,30
48.0211,26
48.0582,28
48.0954,28
48.1325,26
48.1697,20
48.2068,27
48.2440,26
48.2811,27
48.3183,31
48.3555,30
48.3926,21
48.4298,24
48.4669,21
48.5041,27
48.5412,27
48.5784,21
48.6155,31
48.6527,15
48.6898,23
48.7270,12
48.7641,29
48.8013,25
48.8384,28
48.8756,25
48.9127,38
48.9499,50
48.9870,42
49.0242,33
49.0613,27
49.0985,39
49.1356,18
49.1728,25
49.2099,27
49.2471,31
49.2842,18
49.3214,20
49.3585,18
49.3957,22
49.4328,30
49.4700,27
49.5071,23
49.5443,24
49.5814,26
49.6186,16
49.6557,21
49.6929,16
49.7300,28
49.7672,16
49.8043,16
49.8415,26
49.8786,21
49.9158,25
49.9530,22
49.9901,23
50.0273,19
50.0644,22
50.1016,23
50.1387,26
50.1759,25
50.2130,22
50.2502,22
50.2873,19
50.3245,29
50.3616,25
50.3988,26
50.4359,19
50.4731,20
50.5102,26
50.5474,21
50.5845,28
50.6217,17
50.6588,24
50.6960,17
50.7331,23
50.7703,25
50.8074,18
50.8446,24
50.8817,26
50.9189,23
50.9560,23
50.9932,19
51.0303,18
51.0675,20
51.1046,19
51.1418,30
51.1789,28
51.2161,24
51.2532,18
51.2904,32
51.3275,27
51.3647,22
51.4018,26
51.4390,24
51.4762,21
51.5133,25
51.5505,26
51.5876,30
51.6248,21
51.6619,16
51.6991,22
51.7362,20
51.7734,23
51.8105,26
51.8477,28
51.8848,22
51.9220,21
51.9591,24
51.9963,26
52.0334,23
52.0706,21
52.1077,20
52.1449,26
52.1820,22
52.2192,21
52.2563,27
52.2935,18
52.3306,32
52.3678,18
52.4049,18
52.4421,22
52.4792,15
52.5164,14
52.5535,31
52.5907,14
52.6278,26
52.6650,26
52.7021,24
52.7393,20
52.7764,21
52.8136,20
52.8507,24
52.8879,19
52.9250,24
52.9622,21
52.9994,27
53.0365,18
53.0737,26
53.1108,28
53.1480,16
53.1851,26
53.2223,18
53.2594,27
53.2966,23
53.3337,20
53.3709,14
53.4080,25
53.4452,17
53.4823,17
53.5195,19
53.5566,28
53.5938,18
53.6309,27
53.6681,16
53.7052,24
53.7424,24
53.7795,18
53.8167,27
53.8538,16
53.8910,23
53.9281,30
53.9653,25
54.0024,31
54.0396,26
54.0767,19
54.1139,29
54.1510,28
54.1882,23
54.2253,19
54.2625,15
54.2996,22
54.3368,19
54.3739,18
54.4111,20
54.4482,16
54.4854,26
54.5225,17
54.5597,19
54.5969,20
54.6340,23
54.6712,13
54.7083,20
54.7455,19
54.7826,30
54.8198,20
54.8569,24
54.8941,20
54.9312,27
54.9684,24
55.0055,17
55.0427,27
55.0798,18
55.1170,21
55.1541,24
55.1913,18
55.2284,21
55.2656,22
55.3027,22
55.3399,27
55.3770,16
55.4142,24
55.4513,17
55.4885,22
55.5256,20
55.5628,18
55.5999,26
55.6371,20
55.6742,19
55.7114,26
55.7485,16
55.7857,32
55.8228,21
55.8600,17
55.8971,27
55.9343,24
55.9714,15
56.0086,23
56.0457,23
56.0829,11
56.1201,28
56.1572,25
56.1944,24
56.2315,23
56.2687,39
56.3058,28
56.3430,21
56.3801,27
56.4173,21
56.4544,26
56.4916,21
56.5287,19
56.5659,26
56.6030,21
56.6402,23
56.6773,21
56.7145,23
56.7516,20
56.7888,25
56.8259,13
56.8631,17
56.9002,14
56.9374,22
56.9745,22
57.0117,27
57.0488,24
57.0860,22
57.1231,30
57.1603,26
57.1974,21
57.2346,17
57.2717,19
57.3089,24
57.3460,24
57.3832,20
57.4203,24
57.4575,23
57.4946,24
57.5318,22
57.5689,25
57.6061,26
57.6433,20
57.6804,15
57.7176,19
57.7547,16
57.7919,18
57.8290,17
57.8662,25
57.9033,23
57.9405,29
57.9776,21
58.0148,19
58.0519,20
58.0891,10
58.1262,20
58.1634,9
58.2005,22
58.2377,21
58.2748,33
58.3120,17
58.3491,22
58.3863,18
58.4234,15
58.4606,22
58.4977,15
58.5349,19
58.5720,20
58.6092,24
58.6463,26
58.6835,16
58.7206,15
58.7578,20
58.7949,19
58.8321,18
58.8692,16
58.9064,17
58.9435,13
58.9807,17
59.0178,23
59.0550,23
59.0921,21
59.1293,23
59.1664,18
59.2036,15
59.2408,13
59.2779,18
59.3151,16
59.3522,18
59.3894,16
59.4265,19
59.4637,22
59.5008,27
59.5380,17
59.5751,23
59.6123,9
59.6494,21
59.6866,27
59.7237,17
59.7609,21
59.7980,18
59.8352,19
59.8723,19
59.9095,19
59.9466,20
59.9838,25
60.0024,15