File: notebooks/data/xrd_data/ML_20220718_53_SJD_4_LaB6-1min.csv
;,2THETA,
5.0000,87
5.0372,109
5.0743,106
5.1115,97
5.1486,93
5.1858,95
5.2229,99
5.2601,84
5.2972,87
5.3344,95
5.3715,97
5.4087,78
5.4458,79
5.4830,84
5.5201,79
5.5573,86
5.5944,75
5.6316,84
5.6687,70
5.7059,87
5.7430,87
5.7802,77
5.8173,75
5.8545,75
5.8916,83
5.9288,72
5.9659,63
6.0031,71
6.0402,82
6.0774,75
6.1145,51
6.1517,83
6.1888,61
6.2260,60
6.2631,75
6.3003,74
6.3374,71
6.3746,70
6.4117,64
6.4489,61
6.4860,55
6.5232,62
6.5604,70
6.5975,58
6.6347,55
6.6718,61
6.7090,56
6.7461,47
6.7833,54
6.8204,56
6.8576,64
6.8947,71
6.9319,61
6.9690,57
7.0062,66
7.0433,47
7.0805,64
7.1176,44
7.1548,63
7.1919,54
7.2291,72
7.2662,60
7.3034,58
7.3405,67
7.3777,58
7.4148,57
7.4520,68
7.4891,55
7.5263,58
7.5634,66
7.6006,52
7.6377,64
7.6749,55
7.7120,56
7.7492,60
7.7863,60
7.8235,57
7.8606,82
7.8978,57
7.9349,60
7.9721,71
8.0092,65
8.0464,69
8.0835,66
8.1207,72
8.1579,72
8.1950,67
8.2322,63
8.2693,55
8.3065,62
8.3436,75
8.3808,70
8.4179,78
8.4551,78
8.4922,61
8.5294,64
8.5665,72
8.6037,50
8.6408,77
8.6780,72
8.7151,77
8.7523,81
8.7894,82
8.8266,75
8.8637,77
8.9009,74
8.9380,77
8.9752,75
9.0123,75
9.0495,68
9.0866,84
9.1238,86
9.1609,84
9.1981,80
9.2352,77
9.2724,85
9.3095,76
9.3467,74
9.3838,90
9.4210,70
9.4581,87
9.4953,92
9.5324,83
9.5696,83
9.6067,79
9.6439,84
9.6811,77
9.7182,78
9.7554,72
9.7925,83
9.8297,79
9.8668,97
9.9040,87
9.9411,90
9.9783,87
10.0154,101
10.0526,109
10.0897,103
10.1269,96
10.1640,93
10.2012,74
10.2383,97
10.2755,98
10.3126,105
10.3498,71
10.3869,91
10.4241,90
10.4612,86
10.4984,104
10.5355,79
10.5727,83
10.6098,99
10.6470,97
10.6841,78
10.7213,62
10.7584,70
10.7956,87
10.8327,83
10.8699,77
10.9070,89
10.9442,73
10.9813,90
11.0185,86
11.0556,73
11.0928,101
11.1299,92
11.1671,101
11.2043,78
11.2414,92
11.2786,82
11.3157,89
11.3529,84
11.3900,80
11.4272,82
11.4643,93
11.5015,87
11.5386,99
11.5758,82
11.6129,99
11.6501,90
11.6872,85
11.7244,89
11.7615,77
11.7987,103
11.8358,78
11.8730,67
11.9101,80
11.9473,78
11.9844,78
12.0216,87
12.0587,80
12.0959,90
12.1330,76
12.1702,70
12.2073,66
12.2445,74
12.2816,97
12.3188,81
12.3559,76
12.3931,65
12.4302,94
12.4674,78
12.5045,71
12.5417,79
12.5788,72
12.6160,89
12.6531,77
12.6903,76
12.7274,78
12.7646,63
12.8018,78
12.8389,75
12.8761,70
12.9132,71
12.9504,80
12.9875,63
13.0247,87
13.0618,81
13.0990,73
13.1361,87
13.1733,70
13.2104,48
13.2476,53
13.2847,85
13.3219,74
13.3590,76
13.3962,61
13.4333,79
13.4705,80
13.5076,61
13.5448,75
13.5819,80
13.6191,62
13.6562,69
13.6934,75
13.7305,79
13.7677,55
13.8048,70
13.8420,68
13.8791,80
13.9163,60
13.9534,73
13.9906,66
14.0277,63
14.0649,56
14.1020,67
14.1392,51
14.1763,55
14.2135,68
14.2506,66
14.2878,76
14.3250,63
14.3621,60
14.3993,69
14.4364,69
14.4736,67
14.5107,72
14.5479,61
14.5850,58
14.6222,78
14.6593,67
14.6965,73
14.7336,67
14.7708,59
14.8079,60
14.8451,62
14.8822,61
14.9194,58
14.9565,69
14.9937,57
15.0308,81
15.0680,59
15.1051,71
15.1423,70
15.1794,68
15.2166,64
15.2537,60
15.2909,45
15.3280,60
15.3652,55
15.4023,63
15.4395,74
15.4766,55
15.5138,35
15.5509,58
15.5881,68
15.6252,53
15.6624,54
15.6995,48
15.7367,42
15.7738,63
15.8110,58
15.8482,62
15.8853,64
15.9225,55
15.9596,59
15.9968,59
16.0339,61
16.0711,69
16.1082,59
16.1454,70
16.1825,61
16.2197,64
16.2568,70
16.2940,56
16.3311,59
16.3683,65
16.4054,60
16.4426,60
16.4797,49
16.5169,46
16.5540,69
16.5912,45
16.6283,47
16.6655,53
16.7026,59
16.7398,52
16.7769,43
16.8141,55
16.8512,51
16.8884,63
16.9255,69
16.9627,58
16.9998,56
17.0370,52
17.0741,64
17.1113,65
17.1484,71
17.1856,56
17.2227,68
17.2599,54
17.2970,42
17.3342,63
17.3713,51
17.4085,59
17.4457,60
17.4828,67
17.5200,75
17.5571,66
17.5943,57
17.6314,49
17.6686,47
17.7057,64
17.7429,71
17.7800,62
17.8172,68
17.8543,68
17.8915,36
17.9286,61
17.9658,67
18.0029,59
18.0401,58
18.0772,63
18.1144,62
18.1515,61
18.1887,69
18.2258,41
18.2630,62
18.3001,65
18.3373,59
18.3744,53
18.4116,54
18.4487,70
18.4859,70
18.5230,73
18.5602,59
18.5973,51
18.6345,43
18.6716,60
18.7088,64
18.7459,66
18.7831,62
18.8202,56
18.8574,59
18.8945,64
18.9317,58
18.9689,54
19.0060,60
19.0432,66
19.0803,72
19.1175,62
19.1546,68
19.1918,61
19.2289,65
19.2661,64
19.3032,61
19.3404,53
19.3775,60
19.4147,52
19.4518,59
19.4890,70
19.5261,57
19.5633,74
19.6004,66
19.6376,85
19.6747,57
19.7119,59
19.7490,61
19.7862,53
19.8233,53
19.8605,72
19.8976,67
19.9348,76
19.9719,81
20.0091,79
20.0462,78
20.0834,55
20.1205,58
20.1577,77
20.1948,56
20.2320,68
20.2691,67
20.3063,68
20.3434,69
20.3806,63
20.4177,81
20.4549,64
20.4921,54
20.5292,67
20.5664,61
20.6035,68
20.6407,56
20.6778,68
20.7150,65
20.7521,61
20.7893,73
20.8264,64
20.8636,60
20.9007,66
20.9379,59
20.9750,63
21.0122,75
21.0493,79
21.0865,76
21.1236,74
21.1608,87
21.1979,97
21.2351,114
21.2722,112
21.3094,111
21.3465,189
21.3837,156
21.4208,143
21.4580,80
21.4951,73
21.5323,77
21.5694,58
21.6066,74
21.6437,74
21.6809,45
21.7180,74
21.7552,68
21.7923,78
21.8295,74
21.8666,81
21.9038,78
21.9409,83
21.9781,67
22.0152,77
22.0524,77
22.0896,70
22.1267,69
22.1639,77
22.2010,74
22.2382,79
22.2753,86
22.3125,72
22.3496,78
22.3868,64
22.4239,65
22.4611,59
22.4982,81
22.5354,71
22.5725,71
22.6097,67
22.6468,65
22.6840,87
22.7211,81
22.7583,74
22.7954,70
22.8326,71
22.8697,78
22.9069,68
22.9440,72
22.9812,68
23.0183,65
23.0555,63
23.0926,70
23.1298,72
23.1669,70
23.2041,82
23.2412,82
23.2784,85
23.3155,73
23.3527,81
23.3898,77
23.4270,69
23.4641,99
23.5013,64
23.5384,90
23.5756,65
23.6128,73
23.6499,70
23.6871,74
23.7242,75
23.7614,67
23.7985,74
23.8357,72
23.8728,76
23.9100,76
23.9471,63
23.9843,69
24.0214,82
24.0586,67
24.0957,81
24.1329,74
24.1700,85
24.2072,74
24.2443,79
24.2815,98
24.3186,89
24.3558,88
24.3929,67
24.4301,76
24.4672,73
24.5044,78
24.5415,81
24.5787,68
24.6158,62
24.6530,76
24.6901,73
24.7273,92
24.7644,73
24.8016,72
24.8387,70
24.8759,76
24.9130,74
24.9502,78
24.9873,68
25.0245,87
25.0616,77
25.0988,76
25.1360,58
25.1731,74
25.2103,75
25.2474,67
25.2846,68
25.3217,72
25.3589,66
25.3960,62
25.4332,80
25.4703,71
25.5075,76
25.5446,73
25.5818,69
25.6189,74
25.6561,74
25.6932,70
25.7304,74
25.7675,64
25.8047,69
25.8418,65
25.8790,90
25.9161,76
25.9533,81
25.9904,73
26.0276,70
26.0647,82
26.1019,62
26.1390,70
26.1762,65
26.2133,65
26.2505,68
26.2876,86
26.3248,75
26.3619,75
26.3991,60
26.4362,85
26.4734,68
26.5105,61
26.5477,76
26.5848,63
26.6220,64
26.6591,60
26.6963,70
26.7335,58
26.7706,64
26.8078,78
26.8449,73
26.8821,69
26.9192,56
26.9564,56
26.9935,60
27.0307,59
27.0678,90
27.1050,70
27.1421,65
27.1793,83
27.2164,82
27.2536,74
27.2907,75
27.3279,68
27.3650,68
27.4022,65
27.4393,64
27.4765,78
27.5136,59
27.5508,84
27.5879,74
27.6251,71
27.6622,75
27.6994,62
27.7365,57
27.7737,65
27.8108,57
27.8480,85
27.8851,62
27.9223,67
27.9594,78
27.9966,65
28.0337,57
28.0709,61
28.1080,61
28.1452,66
28.1823,56
28.2195,60
28.2567,56
28.2938,57
28.3310,73
28.3681,69
28.4053,53
28.4424,53
28.4796,55
28.5167,69
28.5539,55
28.5910,58
28.6282,74
28.6653,59
28.7025,66
28.7396,63
28.7768,52
28.8139,67
28.8511,74
28.8882,57
28.9254,67
28.9625,59
28.9997,57
29.0368,58
29.0740,51
29.1111,79
29.1483,56
29.1854,64
29.2226,59
29.2597,59
29.2969,65
29.3340,51
29.3712,46
29.4083,67
29.4455,53
29.4826,55
29.5198,50
29.5569,64
29.5941,55
29.6312,67
29.6684,59
29.7055,64
29.7427,55
29.7799,47
29.8170,48
29.8542,35
29.8913,68
29.9285,61
29.9656,54
30.0028,54
30.0399,59
30.0771,56
30.1142,56
30.1514,53
30.1885,53
30.2257,52
30.2628,52
30.3000,56
30.3371,80
30.3743,121
30.4114,99
30.4486,96
30.4857,76
30.5229,57
30.5600,54
30.5972,56
30.6343,61
30.6715,46
30.7086,63
30.7458,55
30.7829,50
30.8201,50
30.8572,60
30.8944,60
30.9315,50
30.9687,46
31.0058,54
31.0430,52
31.0801,42
31.1173,51
31.1544,61
31.1916,44
31.2287,57
31.2659,48
31.3030,47
31.3402,44
31.3774,49
31.4145,50
31.4517,54
31.4888,52
31.5260,49
31.5631,54
31.6003,48
31.6374,60
31.6746,51
31.7117,62
31.7489,60
31.7860,57
31.8232,46
31.8603,52
31.8975,36
31.9346,56
31.9718,51
32.0089,48
32.0461,37
32.0832,45
32.1204,56
32.1575,48
32.1947,46
32.2318,52
32.2690,52
32.3061,47
32.3433,53
32.3804,50
32.4176,43
32.4547,49
32.4919,63
32.5290,54
32.5662,51
32.6033,53
32.6405,38
32.6776,45
32.7148,44
32.7519,42
32.7891,44
32.8262,44
32.8634,48
32.9006,44
32.9377,37
32.9749,46
33.0120,41
33.0492,38
33.0863,45
33.1235,38
33.1606,35
33.1978,53
33.2349,44
33.2721,47
33.3092,43
33.3464,44
33.3835,29
33.4207,49
33.4578,39
33.4950,39
33.5321,43
33.5693,49
33.6064,34
33.6436,52
33.6807,43
33.7179,51
33.7550,45
33.7922,52
33.8293,45
33.8665,41
33.9036,37
33.9408,47
33.9779,33
34.0151,41
34.0522,38
34.0894,36
34.1265,42
34.1637,42
34.2008,47
34.2380,48
34.2751,37
34.3123,42
34.3494,32
34.3866,35
34.4238,44
34.4609,46
34.4981,45
34.5352,43
34.5724,36
34.6095,48
34.6467,60
34.6838,47
34.7210,58
34.7581,53
34.7953,67
34.8324,62
34.8696,44
34.9067,39
34.9439,46
34.9810,43
35.0182,39
35.0553,35
35.0925,41
35.1296,42
35.1668,41
35.2039,42
35.2411,34
35.2782,29
35.3154,42
35.3525,37
35.3897,37
35.4268,36
35.4640,37
35.5011,28
35.5383,39
35.5754,38
35.6126,36
35.6497,30
35.6869,34
35.7240,28
35.7612,29
35.7983,30
35.8355,37
35.8726,35
35.9098,32
35.9469,39
35.9841,36
36.0213,31
36.0584,40
36.0956,31
36.1327,33
36.1699,31
36.2070,41
36.2442,37
36.2813,30
36.3185,32
36.3556,42
36.3928,31
36.4299,34
36.4671,40
36.5042,34
36.5414,36
36.5785,30
36.6157,43
36.6528,36
36.6900,33
36.7271,46
36.7643,30
36.8014,39
36.8386,37
36.8757,34
36.9129,40
36.9500,30
36.9872,29
37.0243,36
37.0615,28
37.0986,28
37.1358,39
37.1729,40
37.2101,32
37.2472,42
37.2844,36
37.3215,42
37.3587,25
37.3958,37
37.4330,53
37.4701,61
37.5073,57
37.5445,39
37.5816,38
37.6188,37
37.6559,37
37.6931,39
37.7302,26
37.7674,32
37.8045,24
37.8417,40
37.8788,30
37.9160,28
37.9531,33
37.9903,30
38.0274,33
38.0646,31
38.1017,27
38.1389,31
38.1760,38
38.2132,21
38.2503,37
38.2875,41
38.3246,33
38.3618,36
38.3989,25
38.4361,29
38.4732,37
38.5104,28
38.5475,25
38.5847,36
38.6218,20
38.6590,32
38.6961,31
38.7333,41
38.7704,28
38.8076,36
38.8447,30
38.8819,38
38.9190,34
38.9562,29
38.9933,22
39.0305,26
39.0677,37
39.1048,40
39.1420,26
39.1791,37
39.2163,29
39.2534,33
39.2906,33
39.3277,28
39.3649,35
39.4020,22
39.4392,31
39.4763,26
39.5135,25
39.5506,34
39.5878,32
39.6249,28
39.6621,31
39.6992,28
39.7364,26
39.7735,23
39.8107,26
39.8478,19
39.8850,25
39.9221,22
39.9593,16
39.9964,32
40.0336,27
40.0707,29
40.1079,26
40.1450,20
40.1822,31
40.2193,33
40.2565,27
40.2936,27
40.3308,18
40.3679,31
40.4051,30
40.4422,29
40.4794,36
40.5165,35
40.5537,27
40.5908,30
40.6280,15
40.6652,22
40.7023,38
40.7395,27
40.7766,25
40.8138,22
40.8509,38
40.8881,30
40.9252,27
40.9624,35
40.9995,18
41.0367,29
41.0738,38
41.1110,40
41.1481,24
41.1853,26
41.2224,30
41.2596,28
41.2967,26
41.3339,31
41.3710,33
41.4082,28
41.4453,28
41.4825,23
41.5196,33
41.5568,31
41.5939,26
41.6311,28
41.6682,23
41.7054,26
41.7425,27
41.7797,29
41.8168,27
41.8540,28
41.8911,17
41.9283,32
41.9654,22
42.0026,31
42.0397,34
42.0769,30
42.1140,23
42.1512,26
42.1884,31
42.2255,26
42.2627,36
42.2998,26
42.3370,27
42.3741,28
42.4113,21
42.4484,30
42.4856,31
42.5227,33
42.5599,21
42.5970,27
42.6342,29
42.6713,34
42.7085,22
42.7456,43
42.7828,27
42.8199,26
42.8571,30
42.8942,26
42.9314,18
42.9685,20
43.0057,23
43.0428,31
43.0800,26
43.1171,25
43.1543,33
43.1914,37
43.2286,26
43.2657,29
43.3029,26
43.3400,24
43.3772,41
43.4143,29
43.4515,37
43.4886,37
43.5258,53
43.5629,30
43.6001,29
43.6372,43
43.6744,30
43.7116,30
43.7487,30
43.7859,46
43.8230,27
43.8602,24
43.8973,33
43.9345,21
43.9716,30
44.0088,18
44.0459,32
44.0831,32
44.1202,18
44.1574,21
44.1945,30
44.2317,28
44.2688,24
44.3060,25
44.3431,22
44.3803,25
44.4174,25
44.4546,22
44.4917,23
44.5289,30
44.5660,28
44.6032,24
44.6403,17
44.6775,39
44.7146,25
44.7518,26
44.7889,33
44.8261,25
44.8632,38
44.9004,26
44.9375,33
44.9747,26
45.0118,29
45.0490,27
45.0861,28
45.1233,23
45.1604,37
45.1976,29
45.2347,23
45.2719,17
45.3091,25
45.3462,22
45.3834,25
45.4205,23
45.4577,26
45.4948,24
45.5320,23
45.5691,37
45.6063,27
45.6434,26
45.6806,26
45.7177,25
45.7549,26
45.7920,24
45.8292,20
45.8663,27
45.9035,25
45.9406,36
45.9778,21
46.0149,22
46.0521,18
46.0892,20
46.1264,19
46.1635,24
46.2007,27
46.2378,21
46.2750,21
46.3121,21
46.3493,27
46.3864,13
46.4236,26
46.4607,25
46.4979,31
46.5350,22
46.5722,24
46.6093,23
46.6465,27
46.6836,24
46.7208,25
46.7579,20
46.7951,33
46.8323,29
46.8694,23
46.9066,12
46.9437,20
46.9809,24
47.0180,20
47.0552,18
47.0923,21
47.1295,23
47.1666,30
47.2038,27
47.2409,25
47.2781,28
47.3152,31
47.3524,23
47.3895,25
47.4267,22
47.4638,26
47.5010,22
47.5381,20
47.5753,32
47.6124,25
47.6496,23
47.6867,17
47.7239,29
47.7610,32
47.7982,25
47.8353,25
47.8725,16
47.9096,25
47.9468,30
47.9839,24
48.0211,25
48.0582,28
48.0954,17
48.1325,16
48.1697,16
48.2068,22
48.2440,26
48.2811,21
48.3183,26
48.3555,23
48.3926,23
48.4298,20
48.4669,16
48.5041,20
48.5412,25
48.5784,22
48.6155,32
48.6527,27
48.6898,21
48.7270,29
48.7641,23
48.8013,19
48.8384,25
48.8756,26
48.9127,32
48.9499,44
48.9870,27
49.0242,19
49.0613,26
49.0985,32
49.1356,27
49.1728,26
49.2099,31
49.2471,19
49.2842,18
49.3214,17
49.3585,24
49.3957,27
49.4328,17
49.4700,23
49.5071,22
49.5443,23
49.5814,31
49.6186,18
49.6557,20
49.6929,28
49.7300,20
49.7672,24
49.8043,29
49.8415,25
49.8786,23
49.9158,23
49.9530,23
49.9901,17
50.0273,23
50.0644,29
50.1016,18
50.1387,24
50.1759,16
50.2130,29
50.2502,24
50.2873,28
50.3245,21
50.3616,21
50.3988,13
50.4359,34
50.4731,26
50.5102,23
50.5474,19
50.5845,23
50.6217,31
50.6588,22
50.6960,22
50.7331,15
50.7703,18
50.8074,13
50.8446,30
50.8817,12
50.9189,16
50.9560,24
50.9932,25
51.0303,25
51.0675,24
51.1046,15
51.1418,20
51.1789,23
51.2161,23
51.2532,25
51.2904,23
51.3275,30
51.3647,30
51.4018,23
51.4390,23
51.4762,25
51.5133,24
51.5505,21
51.5876,18
51.6248,24
51.6619,29
51.6991,25
51.7362,25
51.7734,26
51.8105,24
51.8477,19
51.8848,20
51.9220,28
51.9591,27
51.9963,19
52.0334,37
52.0706,21
52.1077,19
52.1449,25
52.1820,22
52.2192,31
52.2563,22
52.2935,17
52.3306,19
52.3678,16
52.4049,16
52.4421,32
52.4792,24
52.5164,18
52.5535,12
52.5907,28
52.6278,31
52.6650,19
52.7021,26
52.7393,15
52.7764,20
52.8136,18
52.8507,19
52.8879,20
52.9250,24
52.9622,25
52.9994,32
53.0365,19
53.0737,19
53.1108,26
53.1480,22
53.1851,20
53.2223,16
53.2594,20
53.2966,17
53.3337,16
53.3709,30
53.4080,19
53.4452,32
53.4823,18
53.5195,22
53.5566,23
53.5938,23
53.6309,13
53.6681,20
53.7052,26
53.7424,20
53.7795,31
53.8167,37
53.8538,27
53.8910,23
53.9281,35
53.9653,21
54.0024,35
54.0396,25
54.0767,22
54.1139,18
54.1510,20
54.1882,20
54.2253,25
54.2625,28
54.2996,19
54.3368,25
54.3739,30
54.4111,19
54.4482,23
54.4854,20
54.5225,21
54.5597,23
54.5969,27
54.6340,21
54.6712,19
54.7083,19
54.7455,21
54.7826,23
54.8198,19
54.8569,20
54.8941,25
54.9312,15
54.9684,23
55.0055,25
55.0427,18
55.0798,22
55.1170,25
55.1541,19
55.1913,19
55.2284,24
55.2656,27
55.3027,19
55.3399,25
55.3770,22
55.4142,19
55.4513,26
55.4885,22
55.5256,25
55.5628,19
55.5999,15
55.6371,26
55.6742,9
55.7114,22
55.7485,25
55.7857,19
55.8228,24
55.8600,29
55.8971,13
55.9343,12
55.9714,21
56.0086,16
56.0457,20
56.0829,24
56.1201,35
56.1572,26
56.1944,22
56.2315,18
56.2687,31
56.3058,21
56.3430,19
56.3801,17
56.4173,24
56.4544,17
56.4916,19
56.5287,23
56.5659,25
56.6030,18
56.6402,20
56.6773,19
56.7145,23
56.7516,34
56.7888,31
56.8259,21
56.8631,25
56.9002,17
56.9374,21
56.9745,23
57.0117,21
57.0488,19
57.0860,15
57.1231,20
57.1603,15
57.1974,18
57.2346,21
57.2717,27
57.3089,28
57.3460,30
57.3832,29
57.4203,19
57.4575,18
57.4946,18
57.5318,25
57.5689,18
57.6061,28
57.6433,16
57.6804,24
57.7176,19
57.7547,28
57.7919,27
57.8290,16
57.8662,14
57.9033,17
57.9405,19
57.9776,20
58.0148,22
58.0519,20
58.0891,18
58.1262,14
58.1634,14
58.2005,15
58.2377,24
58.2748,15
58.3120,13
58.3491,7
58.3863,17
58.4234,21
58.4606,28
58.4977,23
58.5349,16
58.5720,18
58.6092,18
58.6463,21
58.6835,19
58.7206,20
58.7578,25
58.7949,23
58.8321,18
58.8692,15
58.9064,21
58.9435,19
58.9807,18
59.0178,16
59.0550,12
59.0921,16
59.1293,25
59.1664,28
59.2036,20
59.2408,20
59.2779,23
59.3151,12
59.3522,20
59.3894,18
59.4265,20
59.4637,19
59.5008,21
59.5380,17
59.5751,15
59.6123,24
59.6494,19
59.6866,24
59.7237,20
59.7609,22
59.7980,9
59.8352,22
59.8723,20
59.9095,25
59.9466,18
59.9838,14
60.0024,20