File: notebooks/data/xrd_data/ML_20220720_28_SJD_4_LaB6-1min.csv
;,2THETA,
5.0000,112
5.0372,101
5.0743,111
5.1115,95
5.1486,102
5.1858,77
5.2229,94
5.2601,96
5.2972,81
5.3344,83
5.3715,107
5.4087,98
5.4458,101
5.4830,76
5.5201,88
5.5573,81
5.5944,83
5.6316,74
5.6687,104
5.7059,72
5.7430,74
5.7802,96
5.8173,70
5.8545,78
5.8916,79
5.9288,76
5.9659,74
6.0031,83
6.0402,77
6.0774,61
6.1145,76
6.1517,64
6.1888,75
6.2260,67
6.2631,59
6.3003,71
6.3374,74
6.3746,70
6.4117,62
6.4489,66
6.4860,54
6.5232,53
6.5604,71
6.5975,72
6.6347,69
6.6718,60
6.7090,59
6.7461,71
6.7833,70
6.8204,71
6.8576,57
6.8947,65
6.9319,73
6.9690,71
7.0062,60
7.0433,61
7.0805,57
7.1176,56
7.1548,55
7.1919,56
7.2291,57
7.2662,57
7.3034,70
7.3405,71
7.3777,66
7.4148,52
7.4520,66
7.4891,65
7.5263,77
7.5634,50
7.6006,66
7.6377,56
7.6749,77
7.7120,72
7.7492,60
7.7863,71
7.8235,72
7.8606,62
7.8978,68
7.9349,64
7.9721,63
8.0092,75
8.0464,65
8.0835,65
8.1207,72
8.1579,60
8.1950,87
8.2322,59
8.2693,71
8.3065,70
8.3436,83
8.3808,79
8.4179,68
8.4551,75
8.4922,76
8.5294,68
8.5665,81
8.6037,86
8.6408,82
8.6780,80
8.7151,78
8.7523,87
8.7894,74
8.8266,76
8.8637,65
8.9009,79
8.9380,85
8.9752,75
9.0123,83
9.0495,76
9.0866,71
9.1238,78
9.1609,84
9.1981,75
9.2352,88
9.2724,97
9.3095,67
9.3467,85
9.3838,83
9.4210,85
9.4581,75
9.4953,84
9.5324,95
9.5696,89
9.6067,84
9.6439,68
9.6811,59
9.7182,84
9.7554,83
9.7925,90
9.8297,77
9.8668,99
9.9040,106
9.9411,75
9.9783,92
10.0154,91
10.0526,84
10.0897,110
10.1269,102
10.1640,98
10.2012,90
10.2383,96
10.2755,88
10.3126,94
10.3498,84
10.3869,77
10.4241,101
10.4612,93
10.4984,89
10.5355,97
10.5727,90
10.6098,93
10.6470,83
10.6841,97
10.7213,75
10.7584,87
10.7956,93
10.8327,71
10.8699,76
10.9070,89
10.9442,84
10.9813,82
11.0185,88
11.0556,98
11.0928,109
11.1299,81
11.1671,89
11.2043,89
11.2414,87
11.2786,75
11.3157,78
11.3529,89
11.3900,90
11.4272,79
11.4643,78
11.5015,95
11.5386,87
11.5758,75
11.6129,72
11.6501,97
11.6872,77
11.7244,88
11.7615,95
11.7987,104
11.8358,80
11.8730,104
11.9101,91
11.9473,88
11.9844,88
12.0216,64
12.0587,79
12.0959,84
12.1330,80
12.1702,79
12.2073,86
12.2445,79
12.2816,86
12.3188,78
12.3559,81
12.3931,84
12.4302,74
12.4674,89
12.5045,95
12.5417,78
12.5788,72
12.6160,95
12.6531,90
12.6903,77
12.7274,80
12.7646,80
12.8018,87
12.8389,70
12.8761,61
12.9132,78
12.9504,86
12.9875,75
13.0247,84
13.0618,87
13.0990,79
13.1361,77
13.1733,86
13.2104,77
13.2476,74
13.2847,81
13.3219,73
13.3590,75
13.3962,76
13.4333,75
13.4705,72
13.5076,69
13.5448,68
13.5819,72
13.6191,79
13.6562,65
13.6934,59
13.7305,71
13.7677,75
13.8048,65
13.8420,73
13.8791,58
13.9163,81
13.9534,71
13.9906,73
14.0277,65
14.0649,80
14.1020,67
14.1392,66
14.1763,69
14.2135,69
14.2506,74
14.2878,59
14.3250,49
14.3621,73
14.3993,68
14.4364,72
14.4736,66
14.5107,60
14.5479,50
14.5850,80
14.6222,51
14.6593,66
14.6965,60
14.7336,64
14.7708,66
14.8079,73
14.8451,76
14.8822,69
14.9194,59
14.9565,58
14.9937,69
15.0308,67
15.0680,50
15.1051,55
15.1423,68
15.1794,61
15.2166,58
15.2537,70
15.2909,57
15.3280,67
15.3652,72
15.4023,66
15.4395,54
15.4766,72
15.5138,69
15.5509,59
15.5881,56
15.6252,59
15.6624,70
15.6995,68
15.7367,60
15.7738,44
15.8110,68
15.8482,70
15.8853,63
15.9225,68
15.9596,62
15.9968,68
16.0339,52
16.0711,47
16.1082,49
16.1454,61
16.1825,66
16.2197,58
16.2568,50
16.2940,69
16.3311,68
16.3683,60
16.4054,60
16.4426,54
16.4797,49
16.5169,58
16.5540,56
16.5912,63
16.6283,58
16.6655,64
16.7026,52
16.7398,52
16.7769,69
16.8141,54
16.8512,64
16.8884,51
16.9255,62
16.9627,58
16.9998,75
17.0370,61
17.0741,63
17.1113,53
17.1484,73
17.1856,68
17.2227,70
17.2599,76
17.2970,55
17.3342,43
17.3713,50
17.4085,55
17.4457,69
17.4828,64
17.5200,67
17.5571,65
17.5943,55
17.6314,67
17.6686,62
17.7057,55
17.7429,47
17.7800,50
17.8172,57
17.8543,65
17.8915,67
17.9286,64
17.9658,70
18.0029,68
18.0401,54
18.0772,58
18.1144,64
18.1515,60
18.1887,55
18.2258,55
18.2630,55
18.3001,61
18.3373,71
18.3744,69
18.4116,57
18.4487,47
18.4859,70
18.5230,66
18.5602,59
18.5973,54
18.6345,49
18.6716,67
18.7088,68
18.7459,58
18.7831,63
18.8202,65
18.8574,70
18.8945,66
18.9317,57
18.9689,84
19.0060,67
19.0432,70
19.0803,63
19.1175,67
19.1546,59
19.1918,60
19.2289,68
19.2661,63
19.3032,71
19.3404,53
19.3775,65
19.4147,57
19.4518,67
19.4890,74
19.5261,49
19.5633,51
19.6004,77
19.6376,66
19.6747,64
19.7119,68
19.7490,64
19.7862,55
19.8233,54
19.8605,80
19.8976,59
19.9348,79
19.9719,63
20.0091,57
20.0462,71
20.0834,73
20.1205,79
20.1577,57
20.1948,72
20.2320,63
20.2691,72
20.3063,53
20.3434,60
20.3806,57
20.4177,72
20.4549,79
20.4921,68
20.5292,62
20.5664,57
20.6035,69
20.6407,74
20.6778,80
20.7150,82
20.7521,62
20.7893,69
20.8264,79
20.8636,81
20.9007,66
20.9379,91
20.9750,73
21.0122,85
21.0493,75
21.0865,70
21.1236,70
21.1608,92
21.1979,117
21.2351,127
21.2722,113
21.3094,117
21.3465,155
21.3837,165
21.4208,122
21.4580,92
21.4951,74
21.5323,64
21.5694,70
21.6066,83
21.6437,72
21.6809,85
21.7180,84
21.7552,67
21.7923,73
21.8295,78
21.8666,65
21.9038,61
21.9409,78
21.9781,78
22.0152,72
22.0524,84
22.0896,84
22.1267,71
22.1639,78
22.2010,80
22.2382,75
22.2753,82
22.3125,72
22.3496,72
22.3868,70
22.4239,80
22.4611,69
22.4982,94
22.5354,66
22.5725,69
22.6097,64
22.6468,70
22.6840,74
22.7211,68
22.7583,68
22.7954,67
22.8326,69
22.8697,74
22.9069,79
22.9440,62
22.9812,76
23.0183,71
23.0555,63
23.0926,77
23.1298,64
23.1669,81
23.2041,75
23.2412,84
23.2784,77
23.3155,88
23.3527,91
23.3898,80
23.4270,67
23.4641,69
23.5013,73
23.5384,77
23.5756,78
23.6128,81
23.6499,82
23.6871,72
23.7242,72
23.7614,66
23.7985,82
23.8357,56
23.8728,83
23.9100,70
23.9471,79
23.9843,64
24.0214,79
24.0586,71
24.0957,56
24.1329,73
24.1700,84
24.2072,83
24.2443,76
24.2815,77
24.3186,87
24.3558,70
24.3929,75
24.4301,79
24.4672,67
24.5044,80
24.5415,73
24.5787,69
24.6158,79
24.6530,78
24.6901,78
24.7273,64
24.7644,74
24.8016,73
24.8387,80
24.8759,65
24.9130,59
24.9502,78
24.9873,57
25.0245,67
25.0616,70
25.0988,73
25.1360,77
25.1731,82
25.2103,80
25.2474,76
25.2846,69
25.3217,67
25.3589,78
25.3960,77
25.4332,81
25.4703,82
25.5075,66
25.5446,62
25.5818,80
25.6189,74
25.6561,66
25.6932,65
25.7304,78
25.7675,80
25.8047,80
25.8418,66
25.8790,82
25.9161,55
25.9533,77
25.9904,53
26.0276,60
26.0647,67
26.1019,73
26.1390,65
26.1762,73
26.2133,87
26.2505,69
26.2876,69
26.3248,57
26.3619,63
26.3991,57
26.4362,80
26.4734,51
26.5105,58
26.5477,74
26.5848,74
26.6220,74
26.6591,45
26.6963,70
26.7335,63
26.7706,48
26.8078,77
26.8449,75
26.8821,66
26.9192,70
26.9564,75
26.9935,70
27.0307,47
27.0678,68
27.1050,71
27.1421,77
27.1793,79
27.2164,81
27.2536,94
27.2907,93
27.3279,73
27.3650,65
27.4022,68
27.4393,60
27.4765,59
27.5136,60
27.5508,60
27.5879,67
27.6251,65
27.6622,62
27.6994,62
27.7365,62
27.7737,45
27.8108,68
27.8480,69
27.8851,59
27.9223,60
27.9594,53
27.9966,51
28.0337,57
28.0709,76
28.1080,68
28.1452,53
28.1823,63
28.2195,68
28.2567,58
28.2938,57
28.3310,63
28.3681,49
28.4053,61
28.4424,59
28.4796,59
28.5167,40
28.5539,63
28.5910,72
28.6282,70
28.6653,67
28.7025,62
28.7396,58
28.7768,68
28.8139,63
28.8511,63
28.8882,66
28.9254,61
28.9625,58
28.9997,58
29.0368,61
29.0740,53
29.1111,56
29.1483,50
29.1854,66
29.2226,61
29.2597,54
29.2969,57
29.3340,59
29.3712,64
29.4083,60
29.4455,49
29.4826,61
29.5198,62
29.5569,56
29.5941,68
29.6312,58
29.6684,54
29.7055,58
29.7427,48
29.7799,57
29.8170,70
29.8542,73
29.8913,61
29.9285,49
29.9656,53
30.0028,56
30.0399,63
30.0771,45
30.1142,67
30.1514,65
30.1885,61
30.2257,53
30.2628,60
30.3000,67
30.3371,83
30.3743,127
30.4114,87
30.4486,89
30.4857,83
30.5229,79
30.5600,61
30.5972,64
30.6343,58
30.6715,47
30.7086,61
30.7458,58
30.7829,65
30.8201,45
30.8572,59
30.8944,45
30.9315,55
30.9687,53
31.0058,50
31.0430,56
31.0801,58
31.1173,59
31.1544,57
31.1916,64
31.2287,45
31.2659,57
31.3030,51
31.3402,49
31.3774,47
31.4145,49
31.4517,66
31.4888,60
31.5260,50
31.5631,42
31.6003,41
31.6374,62
31.6746,56
31.7117,38
31.7489,34
31.7860,46
31.8232,50
31.8603,42
31.8975,49
31.9346,41
31.9718,45
32.0089,42
32.0461,43
32.0832,48
32.1204,39
32.1575,52
32.1947,31
32.2318,51
32.2690,55
32.3061,48
32.3433,52
32.3804,43
32.4176,48
32.4547,43
32.4919,45
32.5290,66
32.5662,54
32.6033,32
32.6405,56
32.6776,48
32.7148,42
32.7519,58
32.7891,34
32.8262,42
32.8634,55
32.9006,39
32.9377,52
32.9749,58
33.0120,48
33.0492,33
33.0863,36
33.1235,48
33.1606,39
33.1978,44
33.2349,36
33.2721,53
33.3092,51
33.3464,51
33.3835,45
33.4207,46
33.4578,46
33.4950,42
33.5321,53
33.5693,44
33.6064,42
33.6436,46
33.6807,31
33.7179,51
33.7550,52
33.7922,43
33.8293,36
33.8665,50
33.9036,35
33.9408,61
33.9779,49
34.0151,38
34.0522,48
34.0894,40
34.1265,36
34.1637,53
34.2008,47
34.2380,38
34.2751,52
34.3123,56
34.3494,44
34.3866,36
34.4238,39
34.4609,41
34.4981,49
34.5352,47
34.5724,43
34.6095,60
34.6467,61
34.6838,44
34.7210,57
34.7581,67
34.7953,55
34.8324,61
34.8696,52
34.9067,53
34.9439,51
34.9810,41
35.0182,47
35.0553,41
35.0925,39
35.1296,42
35.1668,30
35.2039,49
35.2411,32
35.2782,40
35.3154,39
35.3525,33
35.3897,40
35.4268,28
35.4640,53
35.5011,24
35.5383,31
35.5754,32
35.6126,30
35.6497,31
35.6869,39
35.7240,44
35.7612,26
35.7983,40
35.8355,31
35.8726,28
35.9098,39
35.9469,41
35.9841,32
36.0213,33
36.0584,30
36.0956,38
36.1327,34
36.1699,40
36.2070,38
36.2442,33
36.2813,52
36.3185,51
36.3556,37
36.3928,32
36.4299,31
36.4671,41
36.5042,33
36.5414,35
36.5785,36
36.6157,31
36.6528,33
36.6900,46
36.7271,35
36.7643,26
36.8014,40
36.8386,28
36.8757,40
36.9129,37
36.9500,34
36.9872,26
37.0243,32
37.0615,41
37.0986,33
37.1358,47
37.1729,34
37.2101,32
37.2472,22
37.2844,29
37.3215,34
37.3587,40
37.3958,43
37.4330,55
37.4701,38
37.5073,40
37.5445,42
37.5816,35
37.6188,34
37.6559,49
37.6931,34
37.7302,46
37.7674,38
37.8045,41
37.8417,31
37.8788,28
37.9160,35
37.9531,21
37.9903,23
38.0274,32
38.0646,29
38.1017,28
38.1389,21
38.1760,25
38.2132,23
38.2503,29
38.2875,33
38.3246,27
38.3618,25
38.3989,32
38.4361,39
38.4732,39
38.5104,36
38.5475,37
38.5847,28
38.6218,34
38.6590,29
38.6961,26
38.7333,35
38.7704,22
38.8076,25
38.8447,36
38.8819,26
38.9190,30
38.9562,31
38.9933,37
39.0305,20
39.0677,36
39.1048,36
39.1420,35
39.1791,29
39.2163,17
39.2534,27
39.2906,29
39.3277,32
39.3649,34
39.4020,31
39.4392,31
39.4763,30
39.5135,37
39.5506,28
39.5878,22
39.6249,22
39.6621,30
39.6992,33
39.7364,23
39.7735,45
39.8107,34
39.8478,36
39.8850,32
39.9221,32
39.9593,26
39.9964,30
40.0336,25
40.0707,35
40.1079,37
40.1450,31
40.1822,28
40.2193,21
40.2565,27
40.2936,22
40.3308,25
40.3679,31
40.4051,28
40.4422,30
40.4794,27
40.5165,13
40.5537,37
40.5908,28
40.6280,23
40.6652,23
40.7023,23
40.7395,27
40.7766,27
40.8138,22
40.8509,32
40.8881,24
40.9252,19
40.9624,37
40.9995,38
41.0367,25
41.0738,26
41.1110,47
41.1481,23
41.1853,24
41.2224,27
41.2596,28
41.2967,28
41.3339,27
41.3710,26
41.4082,25
41.4453,33
41.4825,25
41.5196,30
41.5568,31
41.5939,32
41.6311,25
41.6682,34
41.7054,27
41.7425,27
41.7797,39
41.8168,22
41.8540,26
41.8911,22
41.9283,28
41.9654,27
42.0026,28
42.0397,20
42.0769,24
42.1140,21
42.1512,31
42.1884,35
42.2255,34
42.2627,40
42.2998,26
42.3370,27
42.3741,26
42.4113,24
42.4484,32
42.4856,24
42.5227,30
42.5599,25
42.5970,27
42.6342,21
42.6713,22
42.7085,30
42.7456,25
42.7828,25
42.8199,28
42.8571,26
42.8942,30
42.9314,24
42.9685,38
43.0057,22
43.0428,27
43.0800,32
43.1171,32
43.1543,29
43.1914,31
43.2286,47
43.2657,33
43.3029,37
43.3400,39
43.3772,28
43.4143,31
43.4515,39
43.4886,57
43.5258,43
43.5629,33
43.6001,34
43.6372,18
43.6744,39
43.7116,23
43.7487,24
43.7859,26
43.8230,33
43.8602,28
43.8973,21
43.9345,17
43.9716,34
44.0088,22
44.0459,21
44.0831,25
44.1202,29
44.1574,21
44.1945,29
44.2317,18
44.2688,28
44.3060,24
44.3431,19
44.3803,12
44.4174,31
44.4546,26
44.4917,37
44.5289,30
44.5660,37
44.6032,35
44.6403,26
44.6775,31
44.7146,27
44.7518,31
44.7889,22
44.8261,24
44.8632,25
44.9004,28
44.9375,23
44.9747,20
45.0118,26
45.0490,32
45.0861,25
45.1233,22
45.1604,23
45.1976,20
45.2347,15
45.2719,23
45.3091,24
45.3462,22
45.3834,26
45.4205,31
45.4577,25
45.4948,27
45.5320,25
45.5691,19
45.6063,19
45.6434,21
45.6806,28
45.7177,23
45.7549,25
45.7920,14
45.8292,23
45.8663,22
45.9035,18
45.9406,25
45.9778,25
46.0149,26
46.0521,24
46.0892,23
46.1264,30
46.1635,16
46.2007,30
46.2378,27
46.2750,29
46.3121,20
46.3493,22
46.3864,31
46.4236,18
46.4607,24
46.4979,31
46.5350,26
46.5722,26
46.6093,21
46.6465,25
46.6836,28
46.7208,25
46.7579,24
46.7951,21
46.8323,28
46.8694,34
46.9066,21
46.9437,28
46.9809,22
47.0180,16
47.0552,35
47.0923,20
47.1295,22
47.1666,34
47.2038,30
47.2409,24
47.2781,41
47.3152,28
47.3524,27
47.3895,25
47.4267,18
47.4638,23
47.5010,21
47.5381,24
47.5753,23
47.6124,20
47.6496,23
47.6867,24
47.7239,14
47.7610,28
47.7982,19
47.8353,21
47.8725,25
47.9096,16
47.9468,23
47.9839,21
48.0211,25
48.0582,22
48.0954,24
48.1325,15
48.1697,28
48.2068,31
48.2440,22
48.2811,18
48.3183,31
48.3555,27
48.3926,32
48.4298,21
48.4669,21
48.5041,22
48.5412,24
48.5784,23
48.6155,23
48.6527,26
48.6898,28
48.7270,21
48.7641,32
48.8013,16
48.8384,24
48.8756,29
48.9127,26
48.9499,44
48.9870,50
49.0242,27
49.0613,25
49.0985,32
49.1356,32
49.1728,27
49.2099,27
49.2471,23
49.2842,18
49.3214,25
49.3585,22
49.3957,20
49.4328,30
49.4700,19
49.5071,10
49.5443,31
49.5814,27
49.6186,16
49.6557,15
49.6929,31
49.7300,17
49.7672,23
49.8043,33
49.8415,20
49.8786,24
49.9158,30
49.9530,26
49.9901,16
50.0273,19
50.0644,29
50.1016,30
50.1387,26
50.1759,25
50.2130,27
50.2502,29
50.2873,23
50.3245,24
50.3616,18
50.3988,18
50.4359,25
50.4731,20
50.5102,24
50.5474,31
50.5845,20
50.6217,18
50.6588,21
50.6960,21
50.7331,20
50.7703,17
50.8074,19
50.8446,22
50.8817,15
50.9189,15
50.9560,23
50.9932,23
51.0303,19
51.0675,23
51.1046,25
51.1418,27
51.1789,28
51.2161,19
51.2532,18
51.2904,22
51.3275,16
51.3647,20
51.4018,21
51.4390,27
51.4762,28
51.5133,26
51.5505,25
51.5876,22
51.6248,23
51.6619,15
51.6991,28
51.7362,21
51.7734,29
51.8105,22
51.8477,22
51.8848,17
51.9220,21
51.9591,20
51.9963,18
52.0334,33
52.0706,21
52.1077,28
52.1449,14
52.1820,14
52.2192,30
52.2563,20
52.2935,23
52.3306,25
52.3678,16
52.4049,20
52.4421,10
52.4792,19
52.5164,28
52.5535,26
52.5907,28
52.6278,17
52.6650,28
52.7021,24
52.7393,25
52.7764,22
52.8136,15
52.8507,32
52.8879,24
52.9250,16
52.9622,28
52.9994,34
53.0365,17
53.0737,25
53.1108,17
53.1480,24
53.1851,23
53.2223,20
53.2594,20
53.2966,23
53.3337,20
53.3709,17
53.4080,19
53.4452,23
53.4823,21
53.5195,19
53.5566,15
53.5938,23
53.6309,16
53.6681,19
53.7052,21
53.7424,27
53.7795,17
53.8167,23
53.8538,25
53.8910,27
53.9281,27
53.9653,30
54.0024,35
54.0396,33
54.0767,33
54.1139,25
54.1510,27
54.1882,18
54.2253,19
54.2625,14
54.2996,29
54.3368,23
54.3739,22
54.4111,16
54.4482,19
54.4854,28
54.5225,29
54.5597,11
54.5969,16
54.6340,27
54.6712,22
54.7083,20
54.7455,19
54.7826,29
54.8198,19
54.8569,22
54.8941,18
54.9312,15
54.9684,25
55.0055,15
55.0427,25
55.0798,19
55.1170,16
55.1541,23
55.1913,18
55.2284,28
55.2656,23
55.3027,25
55.3399,29
55.3770,21
55.4142,17
55.4513,9
55.4885,18
55.5256,19
55.5628,20
55.5999,20
55.6371,19
55.6742,18
55.7114,26
55.7485,17
55.7857,23
55.8228,25
55.8600,27
55.8971,21
55.9343,21
55.9714,17
56.0086,22
56.0457,28
56.0829,23
56.1201,18
56.1572,17
56.1944,18
56.2315,26
56.2687,19
56.3058,24
56.3430,28
56.3801,16
56.4173,24
56.4544,24
56.4916,14
56.5287,24
56.5659,24
56.6030,14
56.6402,18
56.6773,19
56.7145,25
56.7516,16
56.7888,27
56.8259,19
56.8631,13
56.9002,24
56.9374,21
56.9745,21
57.0117,24
57.0488,31
57.0860,17
57.1231,18
57.1603,8
57.1974,21
57.2346,19
57.2717,24
57.3089,22
57.3460,24
57.3832,17
57.4203,16
57.4575,26
57.4946,17
57.5318,22
57.5689,22
57.6061,21
57.6433,18
57.6804,18
57.7176,24
57.7547,23
57.7919,25
57.8290,20
57.8662,20
57.9033,27
57.9405,21
57.9776,17
58.0148,28
58.0519,15
58.0891,22
58.1262,13
58.1634,14
58.2005,22
58.2377,21
58.2748,19
58.3120,25
58.3491,28
58.3863,27
58.4234,15
58.4606,18
58.4977,32
58.5349,25
58.5720,18
58.6092,20
58.6463,25
58.6835,24
58.7206,16
58.7578,20
58.7949,22
58.8321,22
58.8692,23
58.9064,13
58.9435,24
58.9807,27
59.0178,26
59.0550,19
59.0921,17
59.1293,20
59.1664,18
59.2036,19
59.2408,24
59.2779,21
59.3151,25
59.3522,21
59.3894,20
59.4265,18
59.4637,17
59.5008,19
59.5380,18
59.5751,21
59.6123,22
59.6494,26
59.6866,22
59.7237,17
59.7609,17
59.7980,20
59.8352,20
59.8723,16
59.9095,19
59.9466,20
59.9838,21
60.0024,27