File: notebooks/data/xrd_data/ML_20220721_25_SJD_4_LaB6-4min.csv
;,2THETA,
5.0000,284
5.0372,285
5.0743,268
5.1115,285
5.1486,256
5.1858,267
5.2229,246
5.2601,233
5.2972,231
5.3344,240
5.3715,274
5.4087,223
5.4458,230
5.4830,231
5.5201,213
5.5573,247
5.5944,211
5.6316,198
5.6687,196
5.7059,226
5.7430,221
5.7802,186
5.8173,212
5.8545,235
5.8916,215
5.9288,194
5.9659,222
6.0031,202
6.0402,194
6.0774,208
6.1145,175
6.1517,213
6.1888,201
6.2260,190
6.2631,191
6.3003,193
6.3374,167
6.3746,195
6.4117,183
6.4489,173
6.4860,188
6.5232,181
6.5604,168
6.5975,181
6.6347,163
6.6718,172
6.7090,171
6.7461,155
6.7833,179
6.8204,156
6.8576,168
6.8947,198
6.9319,168
6.9690,167
7.0062,168
7.0433,155
7.0805,176
7.1176,158
7.1548,173
7.1919,160
7.2291,149
7.2662,169
7.3034,139
7.3405,147
7.3777,156
7.4148,186
7.4520,170
7.4891,171
7.5263,172
7.5634,175
7.6006,144
7.6377,183
7.6749,157
7.7120,186
7.7492,194
7.7863,164
7.8235,193
7.8606,178
7.8978,210
7.9349,191
7.9721,172
8.0092,179
8.0464,161
8.0835,173
8.1207,189
8.1579,173
8.1950,216
8.2322,184
8.2693,209
8.3065,184
8.3436,199
8.3808,197
8.4179,196
8.4551,184
8.4922,203
8.5294,194
8.5665,205
8.6037,174
8.6408,201
8.6780,210
8.7151,225
8.7523,223
8.7894,223
8.8266,212
8.8637,230
8.9009,211
8.9380,197
8.9752,224
9.0123,230
9.0495,224
9.0866,222
9.1238,221
9.1609,231
9.1981,206
9.2352,251
9.2724,202
9.3095,214
9.3467,199
9.3838,211
9.4210,223
9.4581,231
9.4953,237
9.5324,225
9.5696,224
9.6067,238
9.6439,228
9.6811,248
9.7182,222
9.7554,247
9.7925,233
9.8297,235
9.8668,266
9.9040,240
9.9411,223
9.9783,278
10.0154,233
10.0526,262
10.0897,214
10.1269,229
10.1640,258
10.2012,234
10.2383,268
10.2755,227
10.3126,215
10.3498,247
10.3869,240
10.4241,255
10.4612,219
10.4984,243
10.5355,249
10.5727,227
10.6098,232
10.6470,229
10.6841,230
10.7213,230
10.7584,234
10.7956,216
10.8327,253
10.8699,279
10.9070,229
10.9442,248
10.9813,249
11.0185,243
11.0556,232
11.0928,239
11.1299,226
11.1671,253
11.2043,252
11.2414,222
11.2786,243
11.3157,271
11.3529,227
11.3900,211
11.4272,230
11.4643,227
11.5015,247
11.5386,242
11.5758,238
11.6129,243
11.6501,221
11.6872,221
11.7244,261
11.7615,258
11.7987,253
11.8358,227
11.8730,198
11.9101,240
11.9473,226
11.9844,229
12.0216,248
12.0587,246
12.0959,233
12.1330,256
12.1702,233
12.2073,235
12.2445,219
12.2816,233
12.3188,211
12.3559,203
12.3931,232
12.4302,213
12.4674,234
12.5045,201
12.5417,193
12.5788,230
12.6160,215
12.6531,190
12.6903,214
12.7274,192
12.7646,219
12.8018,209
12.8389,228
12.8761,215
12.9132,215
12.9504,214
12.9875,219
13.0247,209
13.0618,215
13.0990,195
13.1361,198
13.1733,203
13.2104,199
13.2476,189
13.2847,207
13.3219,208
13.3590,216
13.3962,193
13.4333,202
13.4705,203
13.5076,200
13.5448,181
13.5819,171
13.6191,168
13.6562,210
13.6934,199
13.7305,170
13.7677,194
13.8048,202
13.8420,187
13.8791,176
13.9163,183
13.9534,194
13.9906,192
14.0277,154
14.0649,165
14.1020,198
14.1392,178
14.1763,171
14.2135,178
14.2506,169
14.2878,165
14.3250,166
14.3621,203
14.3993,187
14.4364,176
14.4736,176
14.5107,188
14.5479,191
14.5850,188
14.6222,188
14.6593,145
14.6965,166
14.7336,163
14.7708,157
14.8079,154
14.8451,155
14.8822,162
14.9194,178
14.9565,165
14.9937,178
15.0308,187
15.0680,167
15.1051,153
15.1423,164
15.1794,175
15.2166,166
15.2537,172
15.2909,125
15.3280,167
15.3652,183
15.4023,160
15.4395,193
15.4766,170
15.5138,190
15.5509,173
15.5881,177
15.6252,157
15.6624,172
15.6995,156
15.7367,153
15.7738,143
15.8110,177
15.8482,162
15.8853,155
15.9225,140
15.9596,155
15.9968,163
16.0339,139
16.0711,159
16.1082,156
16.1454,141
16.1825,175
16.2197,152
16.2568,167
16.2940,162
16.3311,164
16.3683,158
16.4054,163
16.4426,146
16.4797,158
16.5169,155
16.5540,168
16.5912,186
16.6283,155
16.6655,163
16.7026,153
16.7398,157
16.7769,152
16.8141,170
16.8512,151
16.8884,152
16.9255,163
16.9627,184
16.9998,184
17.0370,160
17.0741,145
17.1113,148
17.1484,154
17.1856,168
17.2227,170
17.2599,167
17.2970,165
17.3342,147
17.3713,157
17.4085,169
17.4457,169
17.4828,158
17.5200,149
17.5571,173
17.5943,165
17.6314,167
17.6686,175
17.7057,136
17.7429,156
17.7800,165
17.8172,151
17.8543,163
17.8915,155
17.9286,163
17.9658,145
18.0029,160
18.0401,161
18.0772,143
18.1144,166
18.1515,162
18.1887,156
18.2258,163
18.2630,145
18.3001,166
18.3373,173
18.3744,178
18.4116,158
18.4487,151
18.4859,168
18.5230,163
18.5602,172
18.5973,156
18.6345,161
18.6716,169
18.7088,182
18.7459,164
18.7831,167
18.8202,163
18.8574,183
18.8945,172
18.9317,146
18.9689,174
19.0060,161
19.0432,175
19.0803,204
19.1175,196
19.1546,156
19.1918,175
19.2289,175
19.2661,169
19.3032,167
19.3404,184
19.3775,169
19.4147,202
19.4518,187
19.4890,175
19.5261,180
19.5633,175
19.6004,189
19.6376,166
19.6747,142
19.7119,182
19.7490,186
19.7862,198
19.8233,173
19.8605,189
19.8976,199
19.9348,188
19.9719,181
20.0091,164
20.0462,173
20.0834,170
20.1205,219
20.1577,168
20.1948,164
20.2320,204
20.2691,205
20.3063,178
20.3434,173
20.3806,170
20.4177,188
20.4549,199
20.4921,203
20.5292,181
20.5664,178
20.6035,174
20.6407,175
20.6778,195
20.7150,218
20.7521,181
20.7893,191
20.8264,209
20.8636,194
20.9007,220
20.9379,171
20.9750,205
21.0122,220
21.0493,203
21.0865,201
21.1236,216
21.1608,221
21.1979,297
21.2351,326
21.2722,291
21.3094,327
21.3465,453
21.3837,415
21.4208,349
21.4580,223
21.4951,222
21.5323,211
21.5694,204
21.6066,195
21.6437,193
21.6809,213
21.7180,223
21.7552,194
21.7923,222
21.8295,184
21.8666,187
21.9038,179
21.9409,212
21.9781,190
22.0152,181
22.0524,188
22.0896,198
22.1267,204
22.1639,189
22.2010,188
22.2382,189
22.2753,207
22.3125,217
22.3496,199
22.3868,206
22.4239,198
22.4611,195
22.4982,191
22.5354,236
22.5725,184
22.6097,219
22.6468,196
22.6840,235
22.7211,187
22.7583,219
22.7954,213
22.8326,200
22.8697,197
22.9069,193
22.9440,199
22.9812,241
23.0183,205
23.0555,216
23.0926,198
23.1298,202
23.1669,212
23.2041,193
23.2412,193
23.2784,212
23.3155,206
23.3527,186
23.3898,177
23.4270,182
23.4641,199
23.5013,194
23.5384,186
23.5756,196
23.6128,185
23.6499,194
23.6871,232
23.7242,213
23.7614,186
23.7985,206
23.8357,206
23.8728,204
23.9100,221
23.9471,185
23.9843,198
24.0214,209
24.0586,198
24.0957,197
24.1329,190
24.1700,219
24.2072,230
24.2443,198
24.2815,262
24.3186,213
24.3558,198
24.3929,236
24.4301,205
24.4672,207
24.5044,221
24.5415,186
24.5787,198
24.6158,230
24.6530,212
24.6901,202
24.7273,180
24.7644,226
24.8016,214
24.8387,209
24.8759,186
24.9130,212
24.9502,189
24.9873,174
25.0245,193
25.0616,195
25.0988,187
25.1360,204
25.1731,212
25.2103,198
25.2474,205
25.2846,205
25.3217,200
25.3589,195
25.3960,184
25.4332,208
25.4703,186
25.5075,187
25.5446,184
25.5818,218
25.6189,207
25.6561,203
25.6932,167
25.7304,180
25.7675,227
25.8047,186
25.8418,184
25.8790,200
25.9161,185
25.9533,190
25.9904,207
26.0276,173
26.0647,180
26.1019,192
26.1390,190
26.1762,186
26.2133,200
26.2505,185
26.2876,188
26.3248,239
26.3619,202
26.3991,165
26.4362,203
26.4734,167
26.5105,192
26.5477,179
26.5848,204
26.6220,179
26.6591,157
26.6963,216
26.7335,175
26.7706,210
26.8078,206
26.8449,175
26.8821,181
26.9192,203
26.9564,205
26.9935,207
27.0307,214
27.0678,191
27.1050,186
27.1421,226
27.1793,222
27.2164,241
27.2536,238
27.2907,206
27.3279,219
27.3650,191
27.4022,181
27.4393,183
27.4765,192
27.5136,192
27.5508,208
27.5879,187
27.6251,152
27.6622,170
27.6994,154
27.7365,189
27.7737,167
27.8108,177
27.8480,146
27.8851,169
27.9223,201
27.9594,187
27.9966,167
28.0337,182
28.0709,161
28.1080,174
28.1452,196
28.1823,159
28.2195,196
28.2567,189
28.2938,172
28.3310,179
28.3681,192
28.4053,183
28.4424,180
28.4796,153
28.5167,174
28.5539,170
28.5910,189
28.6282,140
28.6653,170
28.7025,173
28.7396,176
28.7768,167
28.8139,153
28.8511,156
28.8882,183
28.9254,176
28.9625,163
28.9997,184
29.0368,164
29.0740,172
29.1111,161
29.1483,154
29.1854,163
29.2226,175
29.2597,161
29.2969,145
29.3340,190
29.3712,165
29.4083,157
29.4455,159
29.4826,182
29.5198,186
29.5569,159
29.5941,125
29.6312,163
29.6684,168
29.7055,185
29.7427,150
29.7799,180
29.8170,164
29.8542,149
29.8913,168
29.9285,171
29.9656,177
30.0028,135
30.0399,166
30.0771,148
30.1142,175
30.1514,189
30.1885,149
30.2257,179
30.2628,163
30.3000,170
30.3371,221
30.3743,326
30.4114,273
30.4486,253
30.4857,228
30.5229,168
30.5600,156
30.5972,148
30.6343,169
30.6715,162
30.7086,148
30.7458,149
30.7829,147
30.8201,156
30.8572,151
30.8944,160
30.9315,144
30.9687,150
31.0058,138
31.0430,124
31.0801,148
31.1173,156
31.1544,138
31.1916,138
31.2287,146
31.2659,140
31.3030,138
31.3402,143
31.3774,113
31.4145,130
31.4517,123
31.4888,139
31.5260,131
31.5631,142
31.6003,126
31.6374,153
31.6746,139
31.7117,136
31.7489,138
31.7860,140
31.8232,139
31.8603,124
31.8975,131
31.9346,126
31.9718,128
32.0089,135
32.0461,124
32.0832,117
32.1204,147
32.1575,120
32.1947,120
32.2318,124
32.2690,110
32.3061,135
32.3433,150
32.3804,149
32.4176,160
32.4547,177
32.4919,164
32.5290,153
32.5662,145
32.6033,140
32.6405,135
32.6776,115
32.7148,132
32.7519,112
32.7891,127
32.8262,123
32.8634,120
32.9006,134
32.9377,123
32.9749,130
33.0120,131
33.0492,108
33.0863,132
33.1235,129
33.1606,103
33.1978,131
33.2349,131
33.2721,104
33.3092,115
33.3464,116
33.3835,124
33.4207,129
33.4578,104
33.4950,122
33.5321,108
33.5693,121
33.6064,123
33.6436,112
33.6807,128
33.7179,123
33.7550,105
33.7922,112
33.8293,115
33.8665,105
33.9036,109
33.9408,103
33.9779,123
34.0151,119
34.0522,118
34.0894,142
34.1265,105
34.1637,107
34.2008,92
34.2380,114
34.2751,112
34.3123,114
34.3494,99
34.3866,101
34.4238,114
34.4609,119
34.4981,110
34.5352,125
34.5724,116
34.6095,105
34.6467,119
34.6838,141
34.7210,158
34.7581,156
34.7953,143
34.8324,126
34.8696,120
34.9067,132
34.9439,127
34.9810,123
35.0182,128
35.0553,104
35.0925,117
35.1296,98
35.1668,114
35.2039,124
35.2411,127
35.2782,101
35.3154,103
35.3525,89
35.3897,121
35.4268,99
35.4640,94
35.5011,113
35.5383,102
35.5754,96
35.6126,98
35.6497,103
35.6869,112
35.7240,105
35.7612,96
35.7983,83
35.8355,98
35.8726,123
35.9098,116
35.9469,101
35.9841,102
36.0213,111
36.0584,77
36.0956,91
36.1327,95
36.1699,102
36.2070,101
36.2442,105
36.2813,99
36.3185,105
36.3556,89
36.3928,82
36.4299,111
36.4671,102
36.5042,88
36.5414,107
36.5785,101
36.6157,104
36.6528,101
36.6900,82
36.7271,83
36.7643,81
36.8014,107
36.8386,87
36.8757,95
36.9129,100
36.9500,100
36.9872,88
37.0243,99
37.0615,94
37.0986,111
37.1358,110
37.1729,95
37.2101,73
37.2472,98
37.2844,88
37.3215,104
37.3587,92
37.3958,105
37.4330,144
37.4701,123
37.5073,117
37.5445,133
37.5816,78
37.6188,92
37.6559,69
37.6931,99
37.7302,99
37.7674,76
37.8045,98
37.8417,77
37.8788,90
37.9160,88
37.9531,100
37.9903,104
38.0274,99
38.0646,94
38.1017,79
38.1389,84
38.1760,95
38.2132,74
38.2503,91
38.2875,96
38.3246,95
38.3618,84
38.3989,88
38.4361,85
38.4732,85
38.5104,70
38.5475,76
38.5847,70
38.6218,93
38.6590,92
38.6961,81
38.7333,76
38.7704,90
38.8076,81
38.8447,100
38.8819,81
38.9190,75
38.9562,89
38.9933,76
39.0305,65
39.0677,87
39.1048,76
39.1420,77
39.1791,68
39.2163,77
39.2534,83
39.2906,69
39.3277,92
39.3649,80
39.4020,70
39.4392,91
39.4763,69
39.5135,81
39.5506,63
39.5878,73
39.6249,103
39.6621,86
39.6992,85
39.7364,83
39.7735,80
39.8107,82
39.8478,74
39.8850,74
39.9221,82
39.9593,81
39.9964,99
40.0336,84
40.0707,80
40.1079,73
40.1450,87
40.1822,78
40.2193,73
40.2565,80
40.2936,80
40.3308,78
40.3679,56
40.4051,80
40.4422,69
40.4794,82
40.5165,67
40.5537,89
40.5908,85
40.6280,85
40.6652,79
40.7023,78
40.7395,84
40.7766,95
40.8138,74
40.8509,80
40.8881,65
40.9252,92
40.9624,73
40.9995,88
41.0367,91
41.0738,75
41.1110,71
41.1481,84
41.1853,77
41.2224,81
41.2596,76
41.2967,91
41.3339,86
41.3710,82
41.4082,84
41.4453,86
41.4825,85
41.5196,70
41.5568,88
41.5939,79
41.6311,81
41.6682,65
41.7054,88
41.7425,84
41.7797,69
41.8168,86
41.8540,75
41.8911,60
41.9283,69
41.9654,72
42.0026,80
42.0397,64
42.0769,71
42.1140,80
42.1512,68
42.1884,80
42.2255,88
42.2627,72
42.2998,67
42.3370,83
42.3741,71
42.4113,81
42.4484,70
42.4856,75
42.5227,65
42.5599,80
42.5970,83
42.6342,75
42.6713,74
42.7085,61
42.7456,71
42.7828,63
42.8199,91
42.8571,61
42.8942,70
42.9314,91
42.9685,82
43.0057,82
43.0428,83
43.0800,73
43.1171,65
43.1543,62
43.1914,65
43.2286,85
43.2657,94
43.3029,103
43.3400,86
43.3772,85
43.4143,91
43.4515,93
43.4886,120
43.5258,128
43.5629,100
43.6001,80
43.6372,107
43.6744,86
43.7116,71
43.7487,67
43.7859,82
43.8230,73
43.8602,67
43.8973,65
43.9345,82
43.9716,71
44.0088,81
44.0459,70
44.0831,76
44.1202,75
44.1574,74
44.1945,67
44.2317,52
44.2688,74
44.3060,81
44.3431,87
44.3803,87
44.4174,77
44.4546,93
44.4917,80
44.5289,70
44.5660,91
44.6032,82
44.6403,80
44.6775,84
44.7146,80
44.7518,67
44.7889,64
44.8261,80
44.8632,62
44.9004,74
44.9375,60
44.9747,73
45.0118,62
45.0490,62
45.0861,79
45.1233,63
45.1604,67
45.1976,68
45.2347,69
45.2719,63
45.3091,79
45.3462,68
45.3834,62
45.4205,56
45.4577,67
45.4948,62
45.5320,72
45.5691,69
45.6063,61
45.6434,68
45.6806,67
45.7177,59
45.7549,65
45.7920,62
45.8292,76
45.8663,70
45.9035,70
45.9406,69
45.9778,78
46.0149,70
46.0521,68
46.0892,68
46.1264,72
46.1635,73
46.2007,73
46.2378,71
46.2750,65
46.3121,73
46.3493,66
46.3864,71
46.4236,64
46.4607,63
46.4979,63
46.5350,77
46.5722,68
46.6093,65
46.6465,68
46.6836,66
46.7208,73
46.7579,63
46.7951,75
46.8323,75
46.8694,83
46.9066,61
46.9437,60
46.9809,63
47.0180,73
47.0552,62
47.0923,74
47.1295,62
47.1666,57
47.2038,72
47.2409,60
47.2781,65
47.3152,63
47.3524,66
47.3895,74
47.4267,58
47.4638,67
47.5010,62
47.5381,65
47.5753,85
47.6124,60
47.6496,56
47.6867,76
47.7239,59
47.7610,64
47.7982,63
47.8353,65
47.8725,56
47.9096,61
47.9468,65
47.9839,60
48.0211,57
48.0582,55
48.0954,74
48.1325,57
48.1697,62
48.2068,55
48.2440,70
48.2811,59
48.3183,70
48.3555,78
48.3926,76
48.4298,62
48.4669,66
48.5041,62
48.5412,68
48.5784,54
48.6155,68
48.6527,72
48.6898,81
48.7270,66
48.7641,77
48.8013,58
48.8384,59
48.8756,64
48.9127,90
48.9499,121
48.9870,126
49.0242,86
49.0613,100
49.0985,120
49.1356,81
49.1728,62
49.2099,62
49.2471,78
49.2842,73
49.3214,58
49.3585,72
49.3957,60
49.4328,56
49.4700,58
49.5071,60
49.5443,60
49.5814,66
49.6186,55
49.6557,67
49.6929,63
49.7300,55
49.7672,61
49.8043,66
49.8415,61
49.8786,64
49.9158,59
49.9530,73
49.9901,59
50.0273,54
50.0644,74
50.1016,48
50.1387,93
50.1759,71
50.2130,67
50.2502,59
50.2873,70
50.3245,56
50.3616,69
50.3988,57
50.4359,61
50.4731,54
50.5102,64
50.5474,58
50.5845,67
50.6217,57
50.6588,46
50.6960,53
50.7331,65
50.7703,54
50.8074,59
50.8446,47
50.8817,58
50.9189,52
50.9560,57
50.9932,54
51.0303,54
51.0675,50
51.1046,55
51.1418,63
51.1789,70
51.2161,65
51.2532,59
51.2904,50
51.3275,57
51.3647,64
51.4018,60
51.4390,71
51.4762,60
51.5133,64
51.5505,64
51.5876,80
51.6248,56
51.6619,74
51.6991,53
51.7362,51
51.7734,65
51.8105,58
51.8477,76
51.8848,67
51.9220,65
51.9591,74
51.9963,76
52.0334,67
52.0706,64
52.1077,57
52.1449,50
52.1820,56
52.2192,51
52.2563,45
52.2935,61
52.3306,58
52.3678,62
52.4049,58
52.4421,62
52.4792,63
52.5164,59
52.5535,65
52.5907,53
52.6278,62
52.6650,73
52.7021,54
52.7393,65
52.7764,59
52.8136,53
52.8507,64
52.8879,75
52.9250,54
52.9622,63
52.9994,86
53.0365,63
53.0737,64
53.1108,76
53.1480,82
53.1851,63
53.2223,64
53.2594,68
53.2966,55
53.3337,59
53.3709,41
53.4080,57
53.4452,65
53.4823,55
53.5195,73
53.5566,42
53.5938,66
53.6309,52
53.6681,52
53.7052,49
53.7424,58
53.7795,52
53.8167,57
53.8538,58
53.8910,60
53.9281,57
53.9653,85
54.0024,79
54.0396,65
54.0767,61
54.1139,70
54.1510,64
54.1882,65
54.2253,59
54.2625,56
54.2996,62
54.3368,43
54.3739,63
54.4111,60
54.4482,49
54.4854,51
54.5225,59
54.5597,63
54.5969,54
54.6340,67
54.6712,50
54.7083,43
54.7455,65
54.7826,58
54.8198,54
54.8569,51
54.8941,65
54.9312,41
54.9684,60
55.0055,63
55.0427,72
55.0798,61
55.1170,52
55.1541,72
55.1913,57
55.2284,59
55.2656,53
55.3027,53
55.3399,55
55.3770,56
55.4142,61
55.4513,51
55.4885,53
55.5256,60
55.5628,58
55.5999,63
55.6371,61
55.6742,60
55.7114,56
55.7485,61
55.7857,45
55.8228,69
55.8600,50
55.8971,69
55.9343,66
55.9714,58
56.0086,52
56.0457,57
56.0829,49
56.1201,64
56.1572,59
56.1944,50
56.2315,69
56.2687,55
56.3058,63
56.3430,69
56.3801,58
56.4173,55
56.4544,52
56.4916,56
56.5287,54
56.5659,63
56.6030,51
56.6402,54
56.6773,59
56.7145,52
56.7516,58
56.7888,46
56.8259,61
56.8631,50
56.9002,79
56.9374,52
56.9745,63
57.0117,54
57.0488,56
57.0860,50
57.1231,68
57.1603,51
57.1974,51
57.2346,58
57.2717,59
57.3089,58
57.3460,46
57.3832,70
57.4203,60
57.4575,61
57.4946,63
57.5318,58
57.5689,47
57.6061,58
57.6433,64
57.6804,66
57.7176,64
57.7547,53
57.7919,55
57.8290,55
57.8662,64
57.9033,58
57.9405,66
57.9776,58
58.0148,69
58.0519,63
58.0891,52
58.1262,50
58.1634,62
58.2005,53
58.2377,47
58.2748,65
58.3120,62
58.3491,51
58.3863,62
58.4234,46
58.4606,55
58.4977,68
58.5349,64
58.5720,63
58.6092,52
58.6463,57
58.6835,49
58.7206,54
58.7578,51
58.7949,58
58.8321,47
58.8692,50
58.9064,61
58.9435,65
58.9807,49
59.0178,42
59.0550,52
59.0921,56
59.1293,61
59.1664,53
59.2036,68
59.2408,59
59.2779,56
59.3151,55
59.3522,51
59.3894,48
59.4265,57
59.4637,69
59.5008,56
59.5380,67
59.5751,50
59.6123,53
59.6494,56
59.6866,71
59.7237,58
59.7609,58
59.7980,36
59.8352,58
59.8723,54
59.9095,60
59.9466,66
59.9838,56
60.0024,56