File: notebooks/data/xrd_data/ML_20220720_0_SJD_4_LaB6-2min.csv
;,2THETA,
5.0000,124
5.0372,127
5.0743,117
5.1115,134
5.1486,117
5.1858,127
5.2229,122
5.2601,138
5.2972,113
5.3344,103
5.3715,121
5.4087,87
5.4458,101
5.4830,110
5.5201,110
5.5573,118
5.5944,113
5.6316,110
5.6687,102
5.7059,96
5.7430,105
5.7802,109
5.8173,96
5.8545,91
5.8916,85
5.9288,114
5.9659,86
6.0031,100
6.0402,105
6.0774,91
6.1145,87
6.1517,87
6.1888,88
6.2260,86
6.2631,92
6.3003,86
6.3374,89
6.3746,86
6.4117,95
6.4489,93
6.4860,84
6.5232,106
6.5604,94
6.5975,88
6.6347,67
6.6718,76
6.7090,85
6.7461,82
6.7833,74
6.8204,85
6.8576,83
6.8947,71
6.9319,67
6.9690,72
7.0062,92
7.0433,82
7.0805,83
7.1176,78
7.1548,84
7.1919,79
7.2291,80
7.2662,69
7.3034,83
7.3405,95
7.3777,85
7.4148,77
7.4520,90
7.4891,64
7.5263,93
7.5634,75
7.6006,80
7.6377,94
7.6749,92
7.7120,98
7.7492,85
7.7863,75
7.8235,93
7.8606,76
7.8978,84
7.9349,91
7.9721,79
8.0092,100
8.0464,92
8.0835,59
8.1207,94
8.1579,94
8.1950,86
8.2322,93
8.2693,85
8.3065,77
8.3436,105
8.3808,82
8.4179,89
8.4551,112
8.4922,79
8.5294,112
8.5665,95
8.6037,102
8.6408,81
8.6780,119
8.7151,101
8.7523,87
8.7894,90
8.8266,89
8.8637,96
8.9009,101
8.9380,106
8.9752,99
9.0123,98
9.0495,103
9.0866,108
9.1238,87
9.1609,99
9.1981,109
9.2352,104
9.2724,117
9.3095,100
9.3467,125
9.3838,97
9.4210,85
9.4581,123
9.4953,135
9.5324,118
9.5696,108
9.6067,125
9.6439,123
9.6811,99
9.7182,118
9.7554,96
9.7925,117
9.8297,124
9.8668,110
9.9040,117
9.9411,127
9.9783,115
10.0154,95
10.0526,115
10.0897,115
10.1269,124
10.1640,112
10.2012,117
10.2383,107
10.2755,110
10.3126,100
10.3498,118
10.3869,100
10.4241,104
10.4612,96
10.4984,115
10.5355,101
10.5727,112
10.6098,106
10.6470,114
10.6841,114
10.7213,131
10.7584,110
10.7956,118
10.8327,124
10.8699,128
10.9070,143
10.9442,111
10.9813,100
11.0185,112
11.0556,113
11.0928,110
11.1299,103
11.1671,119
11.2043,113
11.2414,95
11.2786,109
11.3157,97
11.3529,96
11.3900,112
11.4272,125
11.4643,101
11.5015,111
11.5386,118
11.5758,108
11.6129,116
11.6501,101
11.6872,116
11.7244,107
11.7615,84
11.7987,96
11.8358,104
11.8730,95
11.9101,105
11.9473,117
11.9844,110
12.0216,94
12.0587,94
12.0959,112
12.1330,104
12.1702,100
12.2073,106
12.2445,107
12.2816,108
12.3188,103
12.3559,90
12.3931,102
12.4302,102
12.4674,107
12.5045,114
12.5417,81
12.5788,81
12.6160,100
12.6531,103
12.6903,108
12.7274,93
12.7646,103
12.8018,109
12.8389,97
12.8761,113
12.9132,98
12.9504,92
12.9875,93
13.0247,100
13.0618,101
13.0990,81
13.1361,94
13.1733,121
13.2104,97
13.2476,96
13.2847,91
13.3219,95
13.3590,93
13.3962,89
13.4333,89
13.4705,101
13.5076,104
13.5448,87
13.5819,98
13.6191,99
13.6562,126
13.6934,112
13.7305,90
13.7677,108
13.8048,89
13.8420,86
13.8791,79
13.9163,94
13.9534,89
13.9906,66
14.0277,86
14.0649,89
14.1020,102
14.1392,84
14.1763,87
14.2135,85
14.2506,85
14.2878,77
14.3250,78
14.3621,79
14.3993,72
14.4364,92
14.4736,88
14.5107,75
14.5479,82
14.5850,82
14.6222,86
14.6593,70
14.6965,73
14.7336,79
14.7708,72
14.8079,86
14.8451,87
14.8822,94
14.9194,82
14.9565,84
14.9937,90
15.0308,86
15.0680,59
15.1051,84
15.1423,79
15.1794,76
15.2166,84
15.2537,76
15.2909,77
15.3280,71
15.3652,96
15.4023,54
15.4395,102
15.4766,67
15.5138,91
15.5509,72
15.5881,83
15.6252,84
15.6624,75
15.6995,77
15.7367,76
15.7738,86
15.8110,85
15.8482,85
15.8853,79
15.9225,74
15.9596,85
15.9968,75
16.0339,75
16.0711,85
16.1082,68
16.1454,62
16.1825,68
16.2197,80
16.2568,72
16.2940,83
16.3311,72
16.3683,91
16.4054,88
16.4426,84
16.4797,80
16.5169,68
16.5540,93
16.5912,91
16.6283,79
16.6655,68
16.7026,71
16.7398,76
16.7769,75
16.8141,83
16.8512,73
16.8884,63
16.9255,70
16.9627,79
16.9998,81
17.0370,84
17.0741,85
17.1113,68
17.1484,61
17.1856,70
17.2227,72
17.2599,66
17.2970,83
17.3342,82
17.3713,66
17.4085,88
17.4457,66
17.4828,72
17.5200,72
17.5571,81
17.5943,95
17.6314,68
17.6686,79
17.7057,82
17.7429,90
17.7800,63
17.8172,74
17.8543,84
17.8915,83
17.9286,87
17.9658,86
18.0029,76
18.0401,77
18.0772,77
18.1144,67
18.1515,80
18.1887,85
18.2258,90
18.2630,73
18.3001,81
18.3373,96
18.3744,74
18.4116,79
18.4487,82
18.4859,89
18.5230,89
18.5602,78
18.5973,80
18.6345,77
18.6716,89
18.7088,97
18.7459,79
18.7831,85
18.8202,89
18.8574,82
18.8945,91
18.9317,78
18.9689,78
19.0060,101
19.0432,81
19.0803,88
19.1175,85
19.1546,83
19.1918,84
19.2289,83
19.2661,111
19.3032,87
19.3404,93
19.3775,73
19.4147,85
19.4518,93
19.4890,77
19.5261,96
19.5633,87
19.6004,81
19.6376,94
19.6747,92
19.7119,93
19.7490,75
19.7862,97
19.8233,79
19.8605,87
19.8976,99
19.9348,81
19.9719,90
20.0091,76
20.0462,81
20.0834,83
20.1205,96
20.1577,91
20.1948,85
20.2320,95
20.2691,78
20.3063,79
20.3434,84
20.3806,90
20.4177,86
20.4549,96
20.4921,87
20.5292,81
20.5664,90
20.6035,81
20.6407,85
20.6778,106
20.7150,81
20.7521,87
20.7893,111
20.8264,87
20.8636,91
20.9007,96
20.9379,97
20.9750,82
21.0122,80
21.0493,97
21.0865,107
21.1236,99
21.1608,125
21.1979,145
21.2351,144
21.2722,145
21.3094,213
21.3465,256
21.3837,180
21.4208,122
21.4580,94
21.4951,107
21.5323,105
21.5694,107
21.6066,91
21.6437,100
21.6809,83
21.7180,86
21.7552,101
21.7923,92
21.8295,110
21.8666,81
21.9038,85
21.9409,107
21.9781,85
22.0152,99
22.0524,100
22.0896,94
22.1267,91
22.1639,97
22.2010,97
22.2382,97
22.2753,107
22.3125,104
22.3496,110
22.3868,94
22.4239,103
22.4611,101
22.4982,108
22.5354,93
22.5725,99
22.6097,81
22.6468,93
22.6840,105
22.7211,91
22.7583,87
22.7954,95
22.8326,98
22.8697,76
22.9069,104
22.9440,96
22.9812,91
23.0183,121
23.0555,93
23.0926,89
23.1298,108
23.1669,73
23.2041,109
23.2412,80
23.2784,89
23.3155,84
23.3527,104
23.3898,104
23.4270,90
23.4641,105
23.5013,99
23.5384,96
23.5756,118
23.6128,92
23.6499,91
23.6871,85
23.7242,97
23.7614,85
23.7985,109
23.8357,123
23.8728,99
23.9100,109
23.9471,100
23.9843,93
24.0214,113
24.0586,98
24.0957,92
24.1329,98
24.1700,97
24.2072,90
24.2443,107
24.2815,100
24.3186,107
24.3558,111
24.3929,85
24.4301,114
24.4672,98
24.5044,100
24.5415,89
24.5787,88
24.6158,88
24.6530,106
24.6901,94
24.7273,100
24.7644,91
24.8016,92
24.8387,113
24.8759,87
24.9130,111
24.9502,134
24.9873,97
25.0245,98
25.0616,114
25.0988,123
25.1360,90
25.1731,106
25.2103,82
25.2474,92
25.2846,95
25.3217,105
25.3589,108
25.3960,76
25.4332,101
25.4703,109
25.5075,83
25.5446,101
25.5818,107
25.6189,112
25.6561,99
25.6932,119
25.7304,89
25.7675,89
25.8047,93
25.8418,95
25.8790,97
25.9161,96
25.9533,76
25.9904,98
26.0276,120
26.0647,81
26.1019,81
26.1390,103
26.1762,86
26.2133,81
26.2505,91
26.2876,97
26.3248,90
26.3619,86
26.3991,107
26.4362,93
26.4734,94
26.5105,85
26.5477,99
26.5848,91
26.6220,83
26.6591,89
26.6963,85
26.7335,79
26.7706,97
26.8078,93
26.8449,95
26.8821,72
26.9192,99
26.9564,91
26.9935,92
27.0307,79
27.0678,95
27.1050,103
27.1421,114
27.1793,123
27.2164,113
27.2536,114
27.2907,96
27.3279,87
27.3650,102
27.4022,99
27.4393,82
27.4765,88
27.5136,100
27.5508,106
27.5879,83
27.6251,92
27.6622,71
27.6994,94
27.7365,89
27.7737,80
27.8108,71
27.8480,103
27.8851,70
27.9223,80
27.9594,83
27.9966,92
28.0337,65
28.0709,113
28.1080,89
28.1452,81
28.1823,83
28.2195,79
28.2567,80
28.2938,101
28.3310,69
28.3681,79
28.4053,78
28.4424,87
28.4796,88
28.5167,83
28.5539,91
28.5910,72
28.6282,80
28.6653,76
28.7025,82
28.7396,78
28.7768,70
28.8139,63
28.8511,78
28.8882,84
28.9254,82
28.9625,84
28.9997,81
29.0368,88
29.0740,72
29.1111,70
29.1483,78
29.1854,76
29.2226,86
29.2597,85
29.2969,60
29.3340,75
29.3712,77
29.4083,74
29.4455,78
29.4826,65
29.5198,76
29.5569,81
29.5941,75
29.6312,68
29.6684,77
29.7055,71
29.7427,90
29.7799,57
29.8170,77
29.8542,85
29.8913,66
29.9285,64
29.9656,71
30.0028,71
30.0399,75
30.0771,78
30.1142,67
30.1514,73
30.1885,66
30.2257,86
30.2628,58
30.3000,104
30.3371,123
30.3743,167
30.4114,111
30.4486,142
30.4857,89
30.5229,71
30.5600,89
30.5972,80
30.6343,62
30.6715,64
30.7086,75
30.7458,80
30.7829,65
30.8201,73
30.8572,62
30.8944,62
30.9315,75
30.9687,75
31.0058,77
31.0430,68
31.0801,71
31.1173,62
31.1544,71
31.1916,71
31.2287,66
31.2659,46
31.3030,83
31.3402,69
31.3774,76
31.4145,68
31.4517,57
31.4888,56
31.5260,64
31.5631,69
31.6003,61
31.6374,68
31.6746,68
31.7117,71
31.7489,72
31.7860,83
31.8232,64
31.8603,65
31.8975,70
31.9346,62
31.9718,66
32.0089,62
32.0461,68
32.0832,56
32.1204,62
32.1575,58
32.1947,76
32.2318,69
32.2690,65
32.3061,70
32.3433,51
32.3804,75
32.4176,64
32.4547,82
32.4919,63
32.5290,66
32.5662,60
32.6033,78
32.6405,79
32.6776,59
32.7148,69
32.7519,82
32.7891,79
32.8262,60
32.8634,65
32.9006,70
32.9377,58
32.9749,69
33.0120,50
33.0492,62
33.0863,58
33.1235,58
33.1606,65
33.1978,52
33.2349,75
33.2721,65
33.3092,59
33.3464,52
33.3835,55
33.4207,55
33.4578,58
33.4950,64
33.5321,55
33.5693,76
33.6064,52
33.6436,52
33.6807,63
33.7179,47
33.7550,62
33.7922,55
33.8293,44
33.8665,54
33.9036,57
33.9408,56
33.9779,65
34.0151,49
34.0522,62
34.0894,59
34.1265,58
34.1637,52
34.2008,52
34.2380,53
34.2751,53
34.3123,48
34.3494,55
34.3866,52
34.4238,48
34.4609,41
34.4981,55
34.5352,59
34.5724,62
34.6095,69
34.6467,49
34.6838,56
34.7210,75
34.7581,78
34.7953,62
34.8324,58
34.8696,72
34.9067,52
34.9439,43
34.9810,61
35.0182,52
35.0553,61
35.0925,70
35.1296,53
35.1668,41
35.2039,65
35.2411,61
35.2782,47
35.3154,77
35.3525,59
35.3897,53
35.4268,53
35.4640,45
35.5011,43
35.5383,61
35.5754,43
35.6126,51
35.6497,57
35.6869,46
35.7240,50
35.7612,47
35.7983,38
35.8355,50
35.8726,46
35.9098,56
35.9469,49
35.9841,53
36.0213,41
36.0584,46
36.0956,47
36.1327,37
36.1699,53
36.2070,52
36.2442,44
36.2813,51
36.3185,43
36.3556,39
36.3928,48
36.4299,44
36.4671,35
36.5042,41
36.5414,36
36.5785,41
36.6157,53
36.6528,43
36.6900,40
36.7271,51
36.7643,35
36.8014,38
36.8386,42
36.8757,57
36.9129,49
36.9500,47
36.9872,52
37.0243,39
37.0615,40
37.0986,51
37.1358,40
37.1729,43
37.2101,41
37.2472,40
37.2844,37
37.3215,42
37.3587,36
37.3958,53
37.4330,74
37.4701,57
37.5073,72
37.5445,54
37.5816,45
37.6188,50
37.6559,39
37.6931,33
37.7302,42
37.7674,46
37.8045,41
37.8417,38
37.8788,53
37.9160,44
37.9531,35
37.9903,34
38.0274,44
38.0646,34
38.1017,40
38.1389,46
38.1760,32
38.2132,37
38.2503,35
38.2875,43
38.3246,36
38.3618,49
38.3989,49
38.4361,37
38.4732,34
38.5104,33
38.5475,43
38.5847,38
38.6218,52
38.6590,39
38.6961,30
38.7333,43
38.7704,31
38.8076,38
38.8447,44
38.8819,39
38.9190,47
38.9562,45
38.9933,41
39.0305,55
39.0677,37
39.1048,32
39.1420,38
39.1791,45
39.2163,40
39.2534,45
39.2906,40
39.3277,43
39.3649,44
39.4020,33
39.4392,38
39.4763,35
39.5135,37
39.5506,37
39.5878,35
39.6249,29
39.6621,33
39.6992,32
39.7364,50
39.7735,33
39.8107,44
39.8478,32
39.8850,40
39.9221,39
39.9593,47
39.9964,49
40.0336,48
40.0707,43
40.1079,43
40.1450,33
40.1822,51
40.2193,29
40.2565,46
40.2936,41
40.3308,36
40.3679,32
40.4051,34
40.4422,42
40.4794,39
40.5165,31
40.5537,43
40.5908,41
40.6280,26
40.6652,36
40.7023,54
40.7395,42
40.7766,40
40.8138,32
40.8509,29
40.8881,38
40.9252,30
40.9624,36
40.9995,34
41.0367,33
41.0738,44
41.1110,44
41.1481,35
41.1853,38
41.2224,30
41.2596,41
41.2967,32
41.3339,31
41.3710,30
41.4082,38
41.4453,36
41.4825,31
41.5196,33
41.5568,33
41.5939,30
41.6311,35
41.6682,50
41.7054,38
41.7425,41
41.7797,35
41.8168,37
41.8540,32
41.8911,32
41.9283,25
41.9654,41
42.0026,36
42.0397,40
42.0769,38
42.1140,36
42.1512,43
42.1884,36
42.2255,39
42.2627,36
42.2998,54
42.3370,29
42.3741,30
42.4113,43
42.4484,43
42.4856,33
42.5227,34
42.5599,34
42.5970,30
42.6342,32
42.6713,37
42.7085,44
42.7456,32
42.7828,37
42.8199,43
42.8571,35
42.8942,36
42.9314,33
42.9685,31
43.0057,31
43.0428,30
43.0800,43
43.1171,36
43.1543,35
43.1914,40
43.2286,45
43.2657,40
43.3029,53
43.3400,46
43.3772,42
43.4143,41
43.4515,44
43.4886,79
43.5258,52
43.5629,37
43.6001,44
43.6372,25
43.6744,38
43.7116,45
43.7487,28
43.7859,31
43.8230,30
43.8602,27
43.8973,27
43.9345,41
43.9716,38
44.0088,37
44.0459,34
44.0831,32
44.1202,31
44.1574,37
44.1945,36
44.2317,41
44.2688,25
44.3060,33
44.3431,35
44.3803,43
44.4174,36
44.4546,35
44.4917,44
44.5289,37
44.5660,38
44.6032,38
44.6403,32
44.6775,41
44.7146,44
44.7518,34
44.7889,41
44.8261,34
44.8632,33
44.9004,35
44.9375,36
44.9747,43
45.0118,48
45.0490,32
45.0861,35
45.1233,39
45.1604,36
45.1976,35
45.2347,39
45.2719,29
45.3091,41
45.3462,35
45.3834,27
45.4205,35
45.4577,37
45.4948,47
45.5320,33
45.5691,35
45.6063,37
45.6434,30
45.6806,51
45.7177,33
45.7549,31
45.7920,28
45.8292,31
45.8663,39
45.9035,22
45.9406,32
45.9778,34
46.0149,32
46.0521,38
46.0892,37
46.1264,33
46.1635,30
46.2007,47
46.2378,27
46.2750,35
46.3121,38
46.3493,34
46.3864,25
46.4236,31
46.4607,31
46.4979,39
46.5350,42
46.5722,28
46.6093,34
46.6465,38
46.6836,35
46.7208,21
46.7579,42
46.7951,31
46.8323,34
46.8694,31
46.9066,36
46.9437,38
46.9809,39
47.0180,31
47.0552,30
47.0923,34
47.1295,37
47.1666,27
47.2038,34
47.2409,22
47.2781,25
47.3152,32
47.3524,36
47.3895,24
47.4267,33
47.4638,40
47.5010,23
47.5381,26
47.5753,27
47.6124,18
47.6496,29
47.6867,46
47.7239,27
47.7610,29
47.7982,22
47.8353,25
47.8725,25
47.9096,29
47.9468,29
47.9839,32
48.0211,33
48.0582,39
48.0954,30
48.1325,28
48.1697,31
48.2068,27
48.2440,36
48.2811,27
48.3183,32
48.3555,32
48.3926,25
48.4298,31
48.4669,41
48.5041,37
48.5412,44
48.5784,23
48.6155,20
48.6527,27
48.6898,31
48.7270,32
48.7641,31
48.8013,35
48.8384,42
48.8756,40
48.9127,45
48.9499,57
48.9870,38
49.0242,35
49.0613,42
49.0985,40
49.1356,32
49.1728,19
49.2099,37
49.2471,35
49.2842,29
49.3214,27
49.3585,40
49.3957,29
49.4328,35
49.4700,26
49.5071,33
49.5443,35
49.5814,25
49.6186,26
49.6557,29
49.6929,34
49.7300,25
49.7672,33
49.8043,31
49.8415,26
49.8786,25
49.9158,39
49.9530,26
49.9901,32
50.0273,33
50.0644,24
50.1016,25
50.1387,36
50.1759,33
50.2130,35
50.2502,34
50.2873,32
50.3245,32
50.3616,28
50.3988,36
50.4359,22
50.4731,33
50.5102,23
50.5474,40
50.5845,25
50.6217,31
50.6588,25
50.6960,22
50.7331,23
50.7703,34
50.8074,40
50.8446,35
50.8817,27
50.9189,22
50.9560,25
50.9932,32
51.0303,33
51.0675,21
51.1046,37
51.1418,29
51.1789,43
51.2161,24
51.2532,26
51.2904,35
51.3275,40
51.3647,30
51.4018,40
51.4390,38
51.4762,23
51.5133,28
51.5505,34
51.5876,28
51.6248,28
51.6619,35
51.6991,28
51.7362,30
51.7734,31
51.8105,30
51.8477,32
51.8848,29
51.9220,36
51.9591,30
51.9963,27
52.0334,28
52.0706,26
52.1077,22
52.1449,32
52.1820,25
52.2192,33
52.2563,31
52.2935,25
52.3306,19
52.3678,24
52.4049,38
52.4421,27
52.4792,25
52.5164,27
52.5535,23
52.5907,37
52.6278,29
52.6650,32
52.7021,23
52.7393,34
52.7764,24
52.8136,29
52.8507,33
52.8879,21
52.9250,36
52.9622,31
52.9994,31
53.0365,38
53.0737,28
53.1108,29
53.1480,23
53.1851,24
53.2223,27
53.2594,25
53.2966,25
53.3337,29
53.3709,29
53.4080,27
53.4452,33
53.4823,31
53.5195,32
53.5566,18
53.5938,24
53.6309,21
53.6681,33
53.7052,28
53.7424,32
53.7795,39
53.8167,33
53.8538,23
53.8910,20
53.9281,31
53.9653,41
54.0024,30
54.0396,31
54.0767,38
54.1139,46
54.1510,21
54.1882,35
54.2253,39
54.2625,28
54.2996,34
54.3368,27
54.3739,27
54.4111,31
54.4482,33
54.4854,27
54.5225,36
54.5597,35
54.5969,24
54.6340,36
54.6712,22
54.7083,22
54.7455,25
54.7826,24
54.8198,30
54.8569,26
54.8941,29
54.9312,20
54.9684,22
55.0055,32
55.0427,23
55.0798,33
55.1170,26
55.1541,24
55.1913,34
55.2284,34
55.2656,30
55.3027,29
55.3399,25
55.3770,26
55.4142,27
55.4513,18
55.4885,29
55.5256,20
55.5628,20
55.5999,27
55.6371,38
55.6742,37
55.7114,30
55.7485,18
55.7857,24
55.8228,23
55.8600,30
55.8971,28
55.9343,28
55.9714,21
56.0086,30
56.0457,21
56.0829,33
56.1201,22
56.1572,30
56.1944,36
56.2315,33
56.2687,39
56.3058,34
56.3430,37
56.3801,35
56.4173,29
56.4544,36
56.4916,25
56.5287,38
56.5659,26
56.6030,29
56.6402,21
56.6773,32
56.7145,26
56.7516,37
56.7888,23
56.8259,25
56.8631,31
56.9002,23
56.9374,30
56.9745,20
57.0117,24
57.0488,34
57.0860,27
57.1231,33
57.1603,17
57.1974,31
57.2346,31
57.2717,19
57.3089,29
57.3460,22
57.3832,23
57.4203,25
57.4575,20
57.4946,18
57.5318,35
57.5689,23
57.6061,34
57.6433,22
57.6804,27
57.7176,43
57.7547,34
57.7919,27
57.8290,34
57.8662,29
57.9033,26
57.9405,25
57.9776,31
58.0148,26
58.0519,18
58.0891,30
58.1262,22
58.1634,38
58.2005,32
58.2377,27
58.2748,21
58.3120,34
58.3491,28
58.3863,20
58.4234,30
58.4606,25
58.4977,21
58.5349,34
58.5720,22
58.6092,29
58.6463,36
58.6835,30
58.7206,28
58.7578,20
58.7949,28
58.8321,19
58.8692,30
58.9064,28
58.9435,24
58.9807,27
59.0178,29
59.0550,25
59.0921,28
59.1293,33
59.1664,24
59.2036,25
59.2408,33
59.2779,32
59.3151,25
59.3522,19
59.3894,24
59.4265,32
59.4637,32
59.5008,24
59.5380,25
59.5751,25
59.6123,21
59.6494,22
59.6866,27
59.7237,28
59.7609,28
59.7980,27
59.8352,24
59.8723,20
59.9095,30
59.9466,30
59.9838,22
60.0024,26