File: notebooks/data/xrd_data/ML_20220720_15_SJD_4_LaB6-1min.uxd
; (content of file Y:\Sam\Apurva-07-20-2022\puck2\ML_20220720_15_SJD_0_LaB6-1min.raw)
_FILEVERSION = 3
_SAMPLE = ML_20220720_15_SJD_0_LaB6-1mi
_+SAMPLE =
_SITE = USA
_USER = Administrator
_GONIOMETER_CODE = 20
; Goniometer : D8 theta/2theta, stage : Unknown
_ATTACHMENTS_CODE = 0
_GONIOMETER_RADIUS = 200.5
_FIXED_DIVSLIT = 0.6
_FIXED_SAMPLESLIT = 0
_SOLLER_SLITS = 2
_FIXED_DETSLIT = 9.55
_MONOCHROMATOR = 0
; Incident beam monochromator : None
_SOLLER_SLITS_2 = N
_THIN_FILM = N
_BETA_FILTER = Y
_FIXED_ANTISLIT = 5.89
_ANALYZER_CODE = 0
; Received beam analyzer : None
_DATEMEASURED = "25-Jul-2022 18:14:18"
_WL_UNIT = A
_WL1 = 1.5406
_WL2 = 1.54439
_WL3 = 1.39222
_WLRATIO = 0.5
_ANODE = Cu
_V4_INF_CREATOR = XRDWizard
_V4_INF_CREATOR_VERSION = V2.9.0.22
_V4_INF_WIZARD_VERSION = V2.9.0.22
_V4_INF_WIZARD_ADDINS = V2.9.0.22
_V4_INF_WIZARD_DOCTYPE = XRD
_V4_INF_OSUSER = McQueenLab
_V4_INF_USER = Administrator
_V4_INF_SITE = USA
_V4_INF_SAMPLEID = ML_20220720_15_SJD_0_LaB6-1mi

; Data for range 1
_DRIVE = COUPLED
_STEPTIME = 4.23
_STEPSIZE = 0.0185756
_STEPMODE = C
_START = 5
_THETA = 2.5
_2THETA = 5
_KHI = 0
_PHI = 0
_X = 0
_Y = 0
_Z = 0
_DETECTOR = 5
; Detector type : Unknown
_DETECTORSLIT = unkn
_AUX1 = 0
_AUX2 = 0
_AUX3 = 0
_TIMESTARTED = 16
_TEMP_RATE = -1
_TEMP_DELAY = -1
_KV = 40
_MA = 40
_RANGE_WL = 1.5406
_3DPLANE = 0
_V4_ADDITIONALDETECTOR = 257
_V4_PSD2THETA = 3.4436
_V4_PSDCHANNEL1 = 0
_V4_PSDAPERTURE = 12.68
_V4_PSDTYPE = 5
_V4_PSDFIXED = 0
_V4_COUNTERS_MASK = 4096
_V4_DRIVES_MASK = 0
_V4_ENCODERS_MASK = 0
_2THETACOUNTS = 1
; 2THETA  PSD
   5.0000         83
   5.0372         96
   5.0743         89
   5.1115        108
   5.1486        113
   5.1858        109
   5.2229        109
   5.2601         87
   5.2972        102
   5.3344         97
   5.3715         85
   5.4087         78
   5.4458         93
   5.4830         81
   5.5201         75
   5.5573         73
   5.5944         68
   5.6316         63
   5.6687         75
   5.7059         74
   5.7430         85
   5.7802         67
   5.8173         78
   5.8545         81
   5.8916         70
   5.9288         69
   5.9659         76
   6.0031         76
   6.0402         82
   6.0774         69
   6.1145         81
   6.1517         63
   6.1888         67
   6.2260         62
   6.2631         72
   6.3003         57
   6.3374         74
   6.3746         73
   6.4117         64
   6.4489         71
   6.4860         48
   6.5232         70
   6.5604         52
   6.5975         68
   6.6347         70
   6.6718         60
   6.7090         70
   6.7461         57
   6.7833         45
   6.8204         53
   6.8576         50
   6.8947         64
   6.9319         61
   6.9690         61
   7.0062         58
   7.0433         64
   7.0805         70
   7.1176         59
   7.1548         54
   7.1919         58
   7.2291         62
   7.2662         56
   7.3034         60
   7.3405         59
   7.3777         66
   7.4148         66
   7.4520         73
   7.4891         64
   7.5263         67
   7.5634         63
   7.6006         62
   7.6377         78
   7.6749         84
   7.7120         70
   7.7492         51
   7.7863         62
   7.8235         63
   7.8606         61
   7.8978         63
   7.9349         54
   7.9721         65
   8.0092         73
   8.0464         63
   8.0835         67
   8.1207         66
   8.1579         87
   8.1950         66
   8.2322         73
   8.2693         77
   8.3065         63
   8.3436         77
   8.3808         65
   8.4179         77
   8.4551         62
   8.4922         74
   8.5294         78
   8.5665         73
   8.6037         69
   8.6408         79
   8.6780         75
   8.7151         54
   8.7523         90
   8.7894         77
   8.8266         54
   8.8637         79
   8.9009         76
   8.9380         64
   8.9752         85
   9.0123         76
   9.0495         85
   9.0866         80
   9.1238         73
   9.1609         79
   9.1981         73
   9.2352         66
   9.2724         86
   9.3095         85
   9.3467         94
   9.3838         68
   9.4210         80
   9.4581         92
   9.4953         85
   9.5324         89
   9.5696         91
   9.6067         74
   9.6439         85
   9.6811         89
   9.7182         76
   9.7554         81
   9.7925         85
   9.8297        100
   9.8668        104
   9.9040        102
   9.9411         81
   9.9783         92
  10.0154        102
  10.0526         96
  10.0897        101
  10.1269         88
  10.1640        101
  10.2012         93
  10.2383         96
  10.2755         81
  10.3126         79
  10.3498         95
  10.3869         97
  10.4241         94
  10.4612         83
  10.4984         84
  10.5355         88
  10.5727         95
  10.6098        111
  10.6470         87
  10.6841         73
  10.7213         96
  10.7584         81
  10.7956        123
  10.8327         98
  10.8699        105
  10.9070         93
  10.9442         67
  10.9813         76
  11.0185         94
  11.0556         85
  11.0928         84
  11.1299         98
  11.1671         85
  11.2043         88
  11.2414         76
  11.2786         84
  11.3157         79
  11.3529         88
  11.3900         91
  11.4272         76
  11.4643        102
  11.5015        101
  11.5386         78
  11.5758         86
  11.6129         91
  11.6501        103
  11.6872         88
  11.7244         66
  11.7615        101
  11.7987         89
  11.8358         86
  11.8730         79
  11.9101         73
  11.9473         91
  11.9844         75
  12.0216         97
  12.0587         72
  12.0959         75
  12.1330        105
  12.1702         88
  12.2073         90
  12.2445         88
  12.2816         87
  12.3188         87
  12.3559         84
  12.3931         92
  12.4302         87
  12.4674         77
  12.5045         79
  12.5417         73
  12.5788         93
  12.6160         83
  12.6531         71
  12.6903         91
  12.7274         72
  12.7646         70
  12.8018         92
  12.8389         85
  12.8761         83
  12.9132         79
  12.9504         66
  12.9875         88
  13.0247         74
  13.0618         78
  13.0990         75
  13.1361         76
  13.1733         64
  13.2104         49
  13.2476         69
  13.2847         78
  13.3219         76
  13.3590         86
  13.3962         71
  13.4333         79
  13.4705         71
  13.5076         67
  13.5448         70
  13.5819         58
  13.6191         63
  13.6562         79
  13.6934         74
  13.7305         67
  13.7677         73
  13.8048         68
  13.8420         86
  13.8791         70
  13.9163         79
  13.9534         60
  13.9906         62
  14.0277         53
  14.0649         53
  14.1020         54
  14.1392         72
  14.1763         56
  14.2135         66
  14.2506         70
  14.2878         69
  14.3250         68
  14.3621         81
  14.3993         67
  14.4364         67
  14.4736         62
  14.5107         58
  14.5479         54
  14.5850         67
  14.6222         58
  14.6593         74
  14.6965         54
  14.7336         55
  14.7708         51
  14.8079         57
  14.8451         61
  14.8822         76
  14.9194         48
  14.9565         71
  14.9937         61
  15.0308         70
  15.0680         64
  15.1051         63
  15.1423         52
  15.1794         50
  15.2166         64
  15.2537         62
  15.2909         60
  15.3280         53
  15.3652         66
  15.4023         63
  15.4395         46
  15.4766         53
  15.5138         58
  15.5509         58
  15.5881         66
  15.6252         68
  15.6624         52
  15.6995         75
  15.7367         53
  15.7738         73
  15.8110         50
  15.8482         52
  15.8853         52
  15.9225         46
  15.9596         70
  15.9968         61
  16.0339         61
  16.0711         61
  16.1082         57
  16.1454         47
  16.1825         63
  16.2197         61
  16.2568         64
  16.2940         69
  16.3311         65
  16.3683         54
  16.4054         51
  16.4426         59
  16.4797         43
  16.5169         56
  16.5540         69
  16.5912         69
  16.6283         54
  16.6655         59
  16.7026         59
  16.7398         63
  16.7769         64
  16.8141         61
  16.8512         66
  16.8884         61
  16.9255         65
  16.9627         55
  16.9998         66
  17.0370         54
  17.0741         57
  17.1113         61
  17.1484         52
  17.1856         56
  17.2227         62
  17.2599         74
  17.2970         63
  17.3342         67
  17.3713         57
  17.4085         59
  17.4457         48
  17.4828         56
  17.5200         58
  17.5571         74
  17.5943         60
  17.6314         65
  17.6686         67
  17.7057         60
  17.7429         70
  17.7800         69
  17.8172         53
  17.8543         73
  17.8915         73
  17.9286         60
  17.9658         53
  18.0029         55
  18.0401         47
  18.0772         53
  18.1144         64
  18.1515         65
  18.1887         49
  18.2258         49
  18.2630         83
  18.3001         66
  18.3373         57
  18.3744         62
  18.4116         61
  18.4487         53
  18.4859         61
  18.5230         62
  18.5602         60
  18.5973         73
  18.6345         56
  18.6716         67
  18.7088         56
  18.7459         59
  18.7831         58
  18.8202         70
  18.8574         66
  18.8945         72
  18.9317         63
  18.9689         65
  19.0060         43
  19.0432         61
  19.0803         66
  19.1175         69
  19.1546         60
  19.1918         52
  19.2289         65
  19.2661         61
  19.3032         61
  19.3404         64
  19.3775         47
  19.4147         68
  19.4518         62
  19.4890         71
  19.5261         55
  19.5633         71
  19.6004         57
  19.6376         69
  19.6747         58
  19.7119         68
  19.7490         56
  19.7862         52
  19.8233         72
  19.8605         55
  19.8976         82
  19.9348         71
  19.9719         66
  20.0091         59
  20.0462         58
  20.0834         64
  20.1205         60
  20.1577         66
  20.1948         75
  20.2320         70
  20.2691         64
  20.3063         61
  20.3434         64
  20.3806         70
  20.4177         58
  20.4549         67
  20.4921         71
  20.5292         69
  20.5664         72
  20.6035         66
  20.6407         68
  20.6778         65
  20.7150         63
  20.7521         61
  20.7893         73
  20.8264         90
  20.8636         72
  20.9007         76
  20.9379         79
  20.9750         76
  21.0122         70
  21.0493         70
  21.0865         84
  21.1236         79
  21.1608         79
  21.1979         87
  21.2351        126
  21.2722        116
  21.3094        129
  21.3465        165
  21.3837        163
  21.4208        128
  21.4580         76
  21.4951         70
  21.5323         77
  21.5694         67
  21.6066         87
  21.6437         69
  21.6809         67
  21.7180         66
  21.7552         85
  21.7923         63
  21.8295         58
  21.8666         78
  21.9038         91
  21.9409         74
  21.9781         65
  22.0152         77
  22.0524         68
  22.0896         88
  22.1267         61
  22.1639         69
  22.2010         62
  22.2382         79
  22.2753         88
  22.3125         77
  22.3496         72
  22.3868         74
  22.4239         82
  22.4611         87
  22.4982         59
  22.5354         73
  22.5725         78
  22.6097         76
  22.6468         75
  22.6840         72
  22.7211         63
  22.7583         78
  22.7954         64
  22.8326         89
  22.8697         76
  22.9069         73
  22.9440         75
  22.9812         70
  23.0183         75
  23.0555         76
  23.0926         58
  23.1298         83
  23.1669         74
  23.2041         70
  23.2412         72
  23.2784         64
  23.3155         87
  23.3527         85
  23.3898         74
  23.4270         72
  23.4641         78
  23.5013         75
  23.5384         63
  23.5756         93
  23.6128         63
  23.6499         79
  23.6871         81
  23.7242         80
  23.7614         95
  23.7985         81
  23.8357         82
  23.8728         71
  23.9100         89
  23.9471         55
  23.9843         81
  24.0214         69
  24.0586         71
  24.0957         69
  24.1329         79
  24.1700         87
  24.2072         75
  24.2443         97
  24.2815         71
  24.3186         96
  24.3558         73
  24.3929        100
  24.4301        104
  24.4672         77
  24.5044         73
  24.5415         62
  24.5787         85
  24.6158         73
  24.6530         66
  24.6901         73
  24.7273         75
  24.7644         68
  24.8016         59
  24.8387         83
  24.8759         75
  24.9130         68
  24.9502         74
  24.9873         62
  25.0245         72
  25.0616         74
  25.0988         72
  25.1360         71
  25.1731         65
  25.2103         85
  25.2474         77
  25.2846         75
  25.3217         75
  25.3589         68
  25.3960         75
  25.4332         78
  25.4703         63
  25.5075         79
  25.5446         71
  25.5818         58
  25.6189         68
  25.6561         72
  25.6932         67
  25.7304         81
  25.7675         70
  25.8047         70
  25.8418         61
  25.8790         69
  25.9161         74
  25.9533         55
  25.9904         77
  26.0276         75
  26.0647         76
  26.1019         76
  26.1390         65
  26.1762         81
  26.2133         81
  26.2505         71
  26.2876         90
  26.3248         62
  26.3619         64
  26.3991         55
  26.4362         81
  26.4734         65
  26.5105         58
  26.5477         81
  26.5848         86
  26.6220         75
  26.6591         76
  26.6963         69
  26.7335         61
  26.7706         70
  26.8078         60
  26.8449         73
  26.8821         63
  26.9192         60
  26.9564         83
  26.9935         65
  27.0307         78
  27.0678         75
  27.1050         67
  27.1421         66
  27.1793         88
  27.2164         81
  27.2536         80
  27.2907        103
  27.3279         75
  27.3650         66
  27.4022         74
  27.4393         76
  27.4765         67
  27.5136         55
  27.5508         65
  27.5879         56
  27.6251         63
  27.6622         65
  27.6994         72
  27.7365         63
  27.7737         61
  27.8108         58
  27.8480         55
  27.8851         83
  27.9223         52
  27.9594         56
  27.9966         55
  28.0337         82
  28.0709         66
  28.1080         53
  28.1452         74
  28.1823         60
  28.2195         78
  28.2567         64
  28.2938         64
  28.3310         66
  28.3681         66
  28.4053         68
  28.4424         64
  28.4796         47
  28.5167         55
  28.5539         51
  28.5910         57
  28.6282         56
  28.6653         69
  28.7025         53
  28.7396         58
  28.7768         63
  28.8139         70
  28.8511         65
  28.8882         63
  28.9254         55
  28.9625         48
  28.9997         72
  29.0368         62
  29.0740         52
  29.1111         58
  29.1483         59
  29.1854         57
  29.2226         70
  29.2597         50
  29.2969         67
  29.3340         57
  29.3712         73
  29.4083         70
  29.4455         57
  29.4826         54
  29.5198         70
  29.5569         58
  29.5941         64
  29.6312         56
  29.6684         47
  29.7055         57
  29.7427         57
  29.7799         59
  29.8170         46
  29.8542         46
  29.8913         67
  29.9285         59
  29.9656         54
  30.0028         61
  30.0399         46
  30.0771         60
  30.1142         49
  30.1514         61
  30.1885         51
  30.2257         59
  30.2628         56
  30.3000         72
  30.3371         78
  30.3743        105
  30.4114        101
  30.4486         81
  30.4857         91
  30.5229         53
  30.5600         58
  30.5972         54
  30.6343         54
  30.6715         68
  30.7086         46
  30.7458         48
  30.7829         53
  30.8201         48
  30.8572         62
  30.8944         57
  30.9315         51
  30.9687         62
  31.0058         60
  31.0430         52
  31.0801         47
  31.1173         48
  31.1544         36
  31.1916         48
  31.2287         54
  31.2659         56
  31.3030         62
  31.3402         60
  31.3774         39
  31.4145         49
  31.4517         50
  31.4888         55
  31.5260         43
  31.5631         55
  31.6003         55
  31.6374         41
  31.6746         46
  31.7117         45
  31.7489         57
  31.7860         46
  31.8232         44
  31.8603         47
  31.8975         54
  31.9346         67
  31.9718         57
  32.0089         43
  32.0461         58
  32.0832         46
  32.1204         42
  32.1575         52
  32.1947         48
  32.2318         68
  32.2690         51
  32.3061         49
  32.3433         45
  32.3804         59
  32.4176         57
  32.4547         54
  32.4919         58
  32.5290         46
  32.5662         56
  32.6033         48
  32.6405         48
  32.6776         46
  32.7148         50
  32.7519         45
  32.7891         56
  32.8262         38
  32.8634         38
  32.9006         29
  32.9377         48
  32.9749         48
  33.0120         49
  33.0492         52
  33.0863         45
  33.1235         41
  33.1606         34
  33.1978         47
  33.2349         36
  33.2721         49
  33.3092         51
  33.3464         39
  33.3835         33
  33.4207         29
  33.4578         48
  33.4950         39
  33.5321         43
  33.5693         58
  33.6064         39
  33.6436         36
  33.6807         41
  33.7179         46
  33.7550         40
  33.7922         52
  33.8293         31
  33.8665         54
  33.9036         55
  33.9408         47
  33.9779         46
  34.0151         41
  34.0522         36
  34.0894         39
  34.1265         45
  34.1637         52
  34.2008         38
  34.2380         51
  34.2751         45
  34.3123         43
  34.3494         55
  34.3866         35
  34.4238         43
  34.4609         48
  34.4981         41
  34.5352         41
  34.5724         43
  34.6095         40
  34.6467         45
  34.6838         56
  34.7210         65
  34.7581         60
  34.7953         55
  34.8324         48
  34.8696         50
  34.9067         27
  34.9439         29
  34.9810         33
  35.0182         44
  35.0553         38
  35.0925         40
  35.1296         37
  35.1668         36
  35.2039         43
  35.2411         33
  35.2782         39
  35.3154         43
  35.3525         36
  35.3897         36
  35.4268         34
  35.4640         33
  35.5011         36
  35.5383         28
  35.5754         27
  35.6126         43
  35.6497         52
  35.6869         38
  35.7240         34
  35.7612         34
  35.7983         29
  35.8355         33
  35.8726         39
  35.9098         35
  35.9469         46
  35.9841         34
  36.0213         39
  36.0584         33
  36.0956         40
  36.1327         23
  36.1699         35
  36.2070         34
  36.2442         34
  36.2813         40
  36.3185         24
  36.3556         46
  36.3928         27
  36.4299         29
  36.4671         38
  36.5042         32
  36.5414         39
  36.5785         39
  36.6157         32
  36.6528         42
  36.6900         37
  36.7271         39
  36.7643         36
  36.8014         40
  36.8386         31
  36.8757         41
  36.9129         38
  36.9500         39
  36.9872         35
  37.0243         31
  37.0615         33
  37.0986         27
  37.1358         39
  37.1729         38
  37.2101         31
  37.2472         35
  37.2844         51
  37.3215         32
  37.3587         40
  37.3958         54
  37.4330         57
  37.4701         41
  37.5073         43
  37.5445         34
  37.5816         40
  37.6188         36
  37.6559         40
  37.6931         31
  37.7302         25
  37.7674         25
  37.8045         35
  37.8417         45
  37.8788         49
  37.9160         22
  37.9531         29
  37.9903         27
  38.0274         32
  38.0646         30
  38.1017         29
  38.1389         40
  38.1760         32
  38.2132         27
  38.2503         41
  38.2875         27
  38.3246         33
  38.3618         26
  38.3989         30
  38.4361         27
  38.4732         28
  38.5104         30
  38.5475         30
  38.5847         24
  38.6218         23
  38.6590         24
  38.6961         43
  38.7333         38
  38.7704         36
  38.8076         39
  38.8447         40
  38.8819         32
  38.9190         39
  38.9562         31
  38.9933         29
  39.0305         29
  39.0677         25
  39.1048         28
  39.1420         36
  39.1791         32
  39.2163         32
  39.2534         31
  39.2906         21
  39.3277         28
  39.3649         30
  39.4020         23
  39.4392         36
  39.4763         27
  39.5135         22
  39.5506         29
  39.5878         21
  39.6249         27
  39.6621         31
  39.6992         35
  39.7364         32
  39.7735         28
  39.8107         33
  39.8478         35
  39.8850         32
  39.9221         32
  39.9593         24
  39.9964         27
  40.0336         25
  40.0707         34
  40.1079         26
  40.1450         28
  40.1822         22
  40.2193         29
  40.2565         21
  40.2936         18
  40.3308         26
  40.3679         28
  40.4051         29
  40.4422         27
  40.4794         30
  40.5165         17
  40.5537         17
  40.5908         24
  40.6280         36
  40.6652         31
  40.7023         30
  40.7395         35
  40.7766         28
  40.8138         33
  40.8509         24
  40.8881         31
  40.9252         32
  40.9624         37
  40.9995         28
  41.0367         26
  41.0738         32
  41.1110         30
  41.1481         33
  41.1853         29
  41.2224         30
  41.2596         27
  41.2967         30
  41.3339         33
  41.3710         24
  41.4082         35
  41.4453         25
  41.4825         34
  41.5196         27
  41.5568         32
  41.5939         34
  41.6311         30
  41.6682         39
  41.7054         29
  41.7425         36
  41.7797         31
  41.8168         20
  41.8540         20
  41.8911         38
  41.9283         32
  41.9654         30
  42.0026         24
  42.0397         31
  42.0769         25
  42.1140         38
  42.1512         25
  42.1884         25
  42.2255         26
  42.2627         37
  42.2998         25
  42.3370         23
  42.3741         31
  42.4113         24
  42.4484         30
  42.4856         28
  42.5227         31
  42.5599         38
  42.5970         30
  42.6342         28
  42.6713         33
  42.7085         36
  42.7456         21
  42.7828         31
  42.8199         36
  42.8571         28
  42.8942         26
  42.9314         34
  42.9685         24
  43.0057         27
  43.0428         27
  43.0800         31
  43.1171         31
  43.1543         28
  43.1914         39
  43.2286         33
  43.2657         31
  43.3029         24
  43.3400         35
  43.3772         28
  43.4143         19
  43.4515         34
  43.4886         47
  43.5258         45
  43.5629         31
  43.6001         36
  43.6372         35
  43.6744         21
  43.7116         31
  43.7487         37
  43.7859         26
  43.8230         28
  43.8602         20
  43.8973         23
  43.9345         41
  43.9716         30
  44.0088         37
  44.0459         28
  44.0831         23
  44.1202         30
  44.1574         33
  44.1945         19
  44.2317         31
  44.2688         34
  44.3060         29
  44.3431         26
  44.3803         29
  44.4174         27
  44.4546         15
  44.4917         28
  44.5289         25
  44.5660         24
  44.6032         21
  44.6403         32
  44.6775         35
  44.7146         26
  44.7518         25
  44.7889         37
  44.8261         27
  44.8632         27
  44.9004         29
  44.9375         23
  44.9747         26
  45.0118         32
  45.0490         25
  45.0861         27
  45.1233         17
  45.1604         21
  45.1976         27
  45.2347         24
  45.2719         26
  45.3091         29
  45.3462         25
  45.3834         23
  45.4205         24
  45.4577         21
  45.4948         26
  45.5320         21
  45.5691         22
  45.6063         26
  45.6434         25
  45.6806         26
  45.7177         26
  45.7549         22
  45.7920         26
  45.8292         26
  45.8663         23
  45.9035         20
  45.9406         33
  45.9778         29
  46.0149         23
  46.0521         20
  46.0892         21
  46.1264         25
  46.1635         27
  46.2007         23
  46.2378         25
  46.2750         20
  46.3121         20
  46.3493         17
  46.3864         17
  46.4236         23
  46.4607         22
  46.4979         27
  46.5350         26
  46.5722         20
  46.6093         25
  46.6465         22
  46.6836         24
  46.7208         25
  46.7579         17
  46.7951         25
  46.8323         33
  46.8694         18
  46.9066         26
  46.9437         26
  46.9809         24
  47.0180         32
  47.0552         15
  47.0923         21
  47.1295         17
  47.1666         30
  47.2038         23
  47.2409         27
  47.2781         31
  47.3152         30
  47.3524         17
  47.3895         28
  47.4267         27
  47.4638         20
  47.5010         26
  47.5381         27
  47.5753         29
  47.6124         25
  47.6496         19
  47.6867         24
  47.7239         15
  47.7610         24
  47.7982         29
  47.8353         26
  47.8725         32
  47.9096         18
  47.9468         25
  47.9839         18
  48.0211         19
  48.0582         27
  48.0954         25
  48.1325         15
  48.1697         27
  48.2068         27
  48.2440         25
  48.2811         31
  48.3183         28
  48.3555         23
  48.3926         20
  48.4298         15
  48.4669         21
  48.5041         26
  48.5412         16
  48.5784         25
  48.6155         18
  48.6527         34
  48.6898         26
  48.7270         28
  48.7641         23
  48.8013         33
  48.8384         21
  48.8756         29
  48.9127         25
  48.9499         47
  48.9870         36
  49.0242         27
  49.0613         39
  49.0985         43
  49.1356         32
  49.1728         28
  49.2099         18
  49.2471         27
  49.2842         20
  49.3214         24
  49.3585         19
  49.3957         19
  49.4328         25
  49.4700         18
  49.5071         23
  49.5443         17
  49.5814         20
  49.6186         16
  49.6557         18
  49.6929         29
  49.7300         23
  49.7672         35
  49.8043         25
  49.8415         20
  49.8786         15
  49.9158         25
  49.9530         25
  49.9901         21
  50.0273         24
  50.0644         25
  50.1016         23
  50.1387         22
  50.1759         25
  50.2130         28
  50.2502         21
  50.2873         29
  50.3245         23
  50.3616         30
  50.3988         18
  50.4359         25
  50.4731         31
  50.5102         23
  50.5474         29
  50.5845         23
  50.6217         30
  50.6588         24
  50.6960         19
  50.7331         19
  50.7703         28
  50.8074         26
  50.8446         16
  50.8817         25
  50.9189         22
  50.9560         21
  50.9932         17
  51.0303         27
  51.0675         25
  51.1046         18
  51.1418         16
  51.1789         15
  51.2161         36
  51.2532         24
  51.2904         28
  51.3275         23
  51.3647         22
  51.4018         15
  51.4390         29
  51.4762         25
  51.5133         30
  51.5505         27
  51.5876         30
  51.6248         22
  51.6619         20
  51.6991         17
  51.7362         12
  51.7734         24
  51.8105         29
  51.8477         28
  51.8848         28
  51.9220         23
  51.9591         15
  51.9963         23
  52.0334         31
  52.0706         26
  52.1077         27
  52.1449         23
  52.1820         29
  52.2192         26
  52.2563         22
  52.2935         27
  52.3306         18
  52.3678         21
  52.4049         14
  52.4421         14
  52.4792         20
  52.5164         15
  52.5535         30
  52.5907         24
  52.6278         21
  52.6650         23
  52.7021         28
  52.7393         20
  52.7764         23
  52.8136         21
  52.8507         27
  52.8879         22
  52.9250         28
  52.9622         20
  52.9994         32
  53.0365         15
  53.0737         21
  53.1108         20
  53.1480         20
  53.1851         20
  53.2223         28
  53.2594         13
  53.2966         29
  53.3337         22
  53.3709         23
  53.4080         22
  53.4452         26
  53.4823         29
  53.5195         17
  53.5566         19
  53.5938         17
  53.6309         27
  53.6681         26
  53.7052         20
  53.7424         23
  53.7795         22
  53.8167         20
  53.8538         27
  53.8910         17
  53.9281         28
  53.9653         26
  54.0024         28
  54.0396         28
  54.0767         32
  54.1139         25
  54.1510         28
  54.1882         21
  54.2253         25
  54.2625         24
  54.2996         16
  54.3368         25
  54.3739         24
  54.4111         20
  54.4482         24
  54.4854         22
  54.5225         21
  54.5597         25
  54.5969         17
  54.6340         26
  54.6712         22
  54.7083         19
  54.7455         16
  54.7826         18
  54.8198         24
  54.8569         32
  54.8941         23
  54.9312         24
  54.9684         24
  55.0055         16
  55.0427         18
  55.0798         25
  55.1170         17
  55.1541         26
  55.1913         16
  55.2284         15
  55.2656         20
  55.3027         23
  55.3399         27
  55.3770         21
  55.4142         13
  55.4513         19
  55.4885         19
  55.5256         21
  55.5628         22
  55.5999         24
  55.6371         22
  55.6742         26
  55.7114         23
  55.7485         16
  55.7857         31
  55.8228         19
  55.8600         30
  55.8971         21
  55.9343         23
  55.9714         19
  56.0086         18
  56.0457         20
  56.0829         19
  56.1201         23
  56.1572         25
  56.1944         29
  56.2315         27
  56.2687         33
  56.3058         25
  56.3430         21
  56.3801         28
  56.4173         23
  56.4544         23
  56.4916         20
  56.5287         30
  56.5659         21
  56.6030         22
  56.6402         15
  56.6773         21
  56.7145         17
  56.7516         15
  56.7888         16
  56.8259         20
  56.8631         19
  56.9002         18
  56.9374         16
  56.9745         19
  57.0117         25
  57.0488         19
  57.0860         22
  57.1231         24
  57.1603         22
  57.1974         22
  57.2346         21
  57.2717         20
  57.3089         22
  57.3460         25
  57.3832         19
  57.4203         20
  57.4575         20
  57.4946         27
  57.5318         22
  57.5689         27
  57.6061         20
  57.6433         26
  57.6804         23
  57.7176         26
  57.7547         20
  57.7919         20
  57.8290         22
  57.8662         13
  57.9033         21
  57.9405         21
  57.9776         16
  58.0148         22
  58.0519         28
  58.0891         18
  58.1262         24
  58.1634         26
  58.2005         31
  58.2377         22
  58.2748         13
  58.3120         26
  58.3491         25
  58.3863         13
  58.4234         20
  58.4606         15
  58.4977         21
  58.5349         10
  58.5720         14
  58.6092         25
  58.6463         18
  58.6835         21
  58.7206         14
  58.7578         22
  58.7949         18
  58.8321         23
  58.8692         13
  58.9064         16
  58.9435         14
  58.9807         16
  59.0178          9
  59.0550         22
  59.0921         21
  59.1293         27
  59.1664         24
  59.2036         15
  59.2408         21
  59.2779         31
  59.3151         19
  59.3522         24
  59.3894         19
  59.4265         14
  59.4637         27
  59.5008         24
  59.5380         22
  59.5751         24
  59.6123         21
  59.6494         12
  59.6866         22
  59.7237         12
  59.7609         25
  59.7980         24
  59.8352         19
  59.8723         17
  59.9095         13
  59.9466         20
  59.9838         25
  60.0024         19