File: notebooks/data/xrd_data/ML_20220720_4_SJD_4_LaB6-2min.csv
;,2THETA,
5.0000,131
5.0372,136
5.0743,121
5.1115,124
5.1486,120
5.1858,119
5.2229,109
5.2601,133
5.2972,122
5.3344,128
5.3715,141
5.4087,112
5.4458,109
5.4830,120
5.5201,114
5.5573,100
5.5944,87
5.6316,99
5.6687,116
5.7059,100
5.7430,100
5.7802,102
5.8173,103
5.8545,106
5.8916,113
5.9288,97
5.9659,104
6.0031,91
6.0402,93
6.0774,83
6.1145,94
6.1517,81
6.1888,97
6.2260,88
6.2631,86
6.3003,68
6.3374,88
6.3746,89
6.4117,94
6.4489,81
6.4860,78
6.5232,102
6.5604,78
6.5975,84
6.6347,84
6.6718,80
6.7090,78
6.7461,76
6.7833,74
6.8204,93
6.8576,85
6.8947,87
6.9319,77
6.9690,67
7.0062,76
7.0433,102
7.0805,77
7.1176,79
7.1548,72
7.1919,76
7.2291,80
7.2662,75
7.3034,80
7.3405,76
7.3777,76
7.4148,65
7.4520,68
7.4891,77
7.5263,88
7.5634,84
7.6006,82
7.6377,82
7.6749,84
7.7120,89
7.7492,87
7.7863,102
7.8235,88
7.8606,96
7.8978,90
7.9349,84
7.9721,95
8.0092,92
8.0464,105
8.0835,91
8.1207,82
8.1579,91
8.1950,95
8.2322,90
8.2693,77
8.3065,76
8.3436,96
8.3808,104
8.4179,91
8.4551,102
8.4922,100
8.5294,110
8.5665,106
8.6037,81
8.6408,118
8.6780,96
8.7151,100
8.7523,100
8.7894,98
8.8266,88
8.8637,84
8.9009,87
8.9380,98
8.9752,98
9.0123,103
9.0495,107
9.0866,100
9.1238,115
9.1609,111
9.1981,85
9.2352,114
9.2724,112
9.3095,111
9.3467,105
9.3838,105
9.4210,111
9.4581,113
9.4953,98
9.5324,114
9.5696,125
9.6067,120
9.6439,88
9.6811,113
9.7182,115
9.7554,101
9.7925,107
9.8297,119
9.8668,117
9.9040,117
9.9411,105
9.9783,116
10.0154,131
10.0526,102
10.0897,107
10.1269,90
10.1640,107
10.2012,105
10.2383,126
10.2755,126
10.3126,93
10.3498,109
10.3869,141
10.4241,110
10.4612,134
10.4984,110
10.5355,93
10.5727,117
10.6098,116
10.6470,124
10.6841,103
10.7213,128
10.7584,114
10.7956,145
10.8327,117
10.8699,131
10.9070,89
10.9442,108
10.9813,119
11.0185,103
11.0556,108
11.0928,119
11.1299,113
11.1671,109
11.2043,123
11.2414,110
11.2786,103
11.3157,122
11.3529,119
11.3900,107
11.4272,100
11.4643,115
11.5015,101
11.5386,120
11.5758,106
11.6129,104
11.6501,106
11.6872,116
11.7244,111
11.7615,92
11.7987,114
11.8358,136
11.8730,106
11.9101,121
11.9473,101
11.9844,108
12.0216,110
12.0587,107
12.0959,109
12.1330,101
12.1702,94
12.2073,106
12.2445,114
12.2816,110
12.3188,97
12.3559,123
12.3931,102
12.4302,108
12.4674,98
12.5045,104
12.5417,113
12.5788,110
12.6160,125
12.6531,105
12.6903,84
12.7274,100
12.7646,105
12.8018,114
12.8389,89
12.8761,97
12.9132,111
12.9504,91
12.9875,98
13.0247,106
13.0618,100
13.0990,104
13.1361,83
13.1733,97
13.2104,99
13.2476,104
13.2847,102
13.3219,101
13.3590,110
13.3962,96
13.4333,85
13.4705,97
13.5076,94
13.5448,94
13.5819,77
13.6191,96
13.6562,99
13.6934,84
13.7305,89
13.7677,83
13.8048,94
13.8420,76
13.8791,98
13.9163,93
13.9534,64
13.9906,95
14.0277,96
14.0649,85
14.1020,84
14.1392,101
14.1763,84
14.2135,73
14.2506,85
14.2878,83
14.3250,79
14.3621,81
14.3993,91
14.4364,99
14.4736,91
14.5107,78
14.5479,97
14.5850,88
14.6222,70
14.6593,74
14.6965,86
14.7336,81
14.7708,72
14.8079,82
14.8451,81
14.8822,68
14.9194,80
14.9565,71
14.9937,81
15.0308,74
15.0680,71
15.1051,94
15.1423,76
15.1794,91
15.2166,86
15.2537,73
15.2909,70
15.3280,76
15.3652,85
15.4023,76
15.4395,90
15.4766,92
15.5138,77
15.5509,82
15.5881,93
15.6252,88
15.6624,67
15.6995,86
15.7367,73
15.7738,88
15.8110,107
15.8482,78
15.8853,91
15.9225,72
15.9596,71
15.9968,69
16.0339,84
16.0711,65
16.1082,84
16.1454,66
16.1825,74
16.2197,77
16.2568,88
16.2940,75
16.3311,81
16.3683,79
16.4054,73
16.4426,81
16.4797,72
16.5169,70
16.5540,74
16.5912,88
16.6283,70
16.6655,77
16.7026,86
16.7398,76
16.7769,72
16.8141,76
16.8512,88
16.8884,89
16.9255,89
16.9627,83
16.9998,92
17.0370,98
17.0741,86
17.1113,103
17.1484,75
17.1856,82
17.2227,81
17.2599,81
17.2970,75
17.3342,76
17.3713,85
17.4085,87
17.4457,78
17.4828,85
17.5200,78
17.5571,82
17.5943,69
17.6314,82
17.6686,66
17.7057,72
17.7429,66
17.7800,71
17.8172,62
17.8543,89
17.8915,94
17.9286,87
17.9658,85
18.0029,90
18.0401,77
18.0772,93
18.1144,82
18.1515,75
18.1887,91
18.2258,91
18.2630,79
18.3001,79
18.3373,69
18.3744,86
18.4116,83
18.4487,75
18.4859,71
18.5230,68
18.5602,61
18.5973,71
18.6345,57
18.6716,79
18.7088,82
18.7459,82
18.7831,92
18.8202,85
18.8574,86
18.8945,82
18.9317,77
18.9689,62
19.0060,86
19.0432,81
19.0803,85
19.1175,87
19.1546,93
19.1918,93
19.2289,80
19.2661,102
19.3032,79
19.3404,78
19.3775,100
19.4147,75
19.4518,98
19.4890,80
19.5261,78
19.5633,91
19.6004,77
19.6376,84
19.6747,83
19.7119,79
19.7490,75
19.7862,97
19.8233,94
19.8605,80
19.8976,98
19.9348,91
19.9719,74
20.0091,92
20.0462,84
20.0834,90
20.1205,84
20.1577,82
20.1948,90
20.2320,111
20.2691,85
20.3063,90
20.3434,79
20.3806,100
20.4177,87
20.4549,89
20.4921,83
20.5292,99
20.5664,87
20.6035,90
20.6407,105
20.6778,78
20.7150,90
20.7521,81
20.7893,92
20.8264,93
20.8636,100
20.9007,94
20.9379,89
20.9750,93
21.0122,96
21.0493,95
21.0865,111
21.1236,93
21.1608,133
21.1979,145
21.2351,139
21.2722,150
21.3094,165
21.3465,243
21.3837,166
21.4208,132
21.4580,91
21.4951,114
21.5323,80
21.5694,108
21.6066,88
21.6437,96
21.6809,100
21.7180,86
21.7552,86
21.7923,87
21.8295,93
21.8666,93
21.9038,104
21.9409,93
21.9781,100
22.0152,92
22.0524,95
22.0896,91
22.1267,83
22.1639,90
22.2010,79
22.2382,91
22.2753,91
22.3125,104
22.3496,87
22.3868,84
22.4239,105
22.4611,84
22.4982,114
22.5354,81
22.5725,78
22.6097,119
22.6468,109
22.6840,105
22.7211,121
22.7583,95
22.7954,94
22.8326,95
22.8697,100
22.9069,104
22.9440,101
22.9812,81
23.0183,93
23.0555,118
23.0926,97
23.1298,95
23.1669,92
23.2041,94
23.2412,77
23.2784,94
23.3155,107
23.3527,100
23.3898,82
23.4270,115
23.4641,87
23.5013,74
23.5384,95
23.5756,113
23.6128,81
23.6499,96
23.6871,102
23.7242,107
23.7614,102
23.7985,99
23.8357,102
23.8728,104
23.9100,111
23.9471,96
23.9843,86
24.0214,108
24.0586,89
24.0957,89
24.1329,107
24.1700,85
24.2072,106
24.2443,109
24.2815,101
24.3186,111
24.3558,91
24.3929,108
24.4301,101
24.4672,86
24.5044,96
24.5415,96
24.5787,84
24.6158,98
24.6530,116
24.6901,89
24.7273,92
24.7644,104
24.8016,104
24.8387,89
24.8759,112
24.9130,71
24.9502,89
24.9873,94
25.0245,113
25.0616,96
25.0988,109
25.1360,107
25.1731,101
25.2103,104
25.2474,88
25.2846,81
25.3217,98
25.3589,82
25.3960,92
25.4332,86
25.4703,102
25.5075,90
25.5446,82
25.5818,119
25.6189,96
25.6561,89
25.6932,95
25.7304,102
25.7675,77
25.8047,100
25.8418,94
25.8790,93
25.9161,109
25.9533,86
25.9904,92
26.0276,96
26.0647,104
26.1019,91
26.1390,83
26.1762,92
26.2133,98
26.2505,106
26.2876,100
26.3248,90
26.3619,84
26.3991,94
26.4362,97
26.4734,97
26.5105,96
26.5477,90
26.5848,82
26.6220,91
26.6591,104
26.6963,101
26.7335,112
26.7706,93
26.8078,99
26.8449,72
26.8821,84
26.9192,87
26.9564,87
26.9935,110
27.0307,98
27.0678,85
27.1050,107
27.1421,113
27.1793,132
27.2164,118
27.2536,98
27.2907,98
27.3279,100
27.3650,112
27.4022,91
27.4393,90
27.4765,94
27.5136,78
27.5508,97
27.5879,95
27.6251,82
27.6622,87
27.6994,68
27.7365,100
27.7737,86
27.8108,89
27.8480,95
27.8851,83
27.9223,80
27.9594,78
27.9966,85
28.0337,69
28.0709,89
28.1080,89
28.1452,99
28.1823,87
28.2195,96
28.2567,76
28.2938,81
28.3310,86
28.3681,88
28.4053,100
28.4424,74
28.4796,79
28.5167,95
28.5539,79
28.5910,78
28.6282,76
28.6653,86
28.7025,83
28.7396,79
28.7768,91
28.8139,75
28.8511,96
28.8882,93
28.9254,86
28.9625,75
28.9997,79
29.0368,73
29.0740,59
29.1111,80
29.1483,66
29.1854,85
29.2226,81
29.2597,90
29.2969,91
29.3340,88
29.3712,91
29.4083,88
29.4455,68
29.4826,84
29.5198,78
29.5569,80
29.5941,86
29.6312,55
29.6684,73
29.7055,60
29.7427,84
29.7799,72
29.8170,69
29.8542,94
29.8913,72
29.9285,70
29.9656,69
30.0028,76
30.0399,71
30.0771,63
30.1142,64
30.1514,83
30.1885,94
30.2257,89
30.2628,79
30.3000,92
30.3371,130
30.3743,161
30.4114,105
30.4486,118
30.4857,92
30.5229,77
30.5600,73
30.5972,77
30.6343,81
30.6715,67
30.7086,62
30.7458,87
30.7829,72
30.8201,83
30.8572,70
30.8944,67
30.9315,71
30.9687,57
31.0058,91
31.0430,81
31.0801,87
31.1173,57
31.1544,73
31.1916,73
31.2287,66
31.2659,76
31.3030,61
31.3402,67
31.3774,71
31.4145,69
31.4517,75
31.4888,73
31.5260,67
31.5631,67
31.6003,74
31.6374,58
31.6746,64
31.7117,72
31.7489,63
31.7860,67
31.8232,64
31.8603,62
31.8975,68
31.9346,67
31.9718,68
32.0089,72
32.0461,57
32.0832,61
32.1204,72
32.1575,65
32.1947,66
32.2318,59
32.2690,64
32.3061,60
32.3433,57
32.3804,59
32.4176,80
32.4547,105
32.4919,74
32.5290,62
32.5662,73
32.6033,62
32.6405,62
32.6776,45
32.7148,55
32.7519,62
32.7891,58
32.8262,64
32.8634,60
32.9006,47
32.9377,47
32.9749,57
33.0120,60
33.0492,66
33.0863,60
33.1235,57
33.1606,65
33.1978,46
33.2349,57
33.2721,49
33.3092,47
33.3464,65
33.3835,63
33.4207,50
33.4578,69
33.4950,65
33.5321,52
33.5693,59
33.6064,56
33.6436,44
33.6807,51
33.7179,51
33.7550,65
33.7922,56
33.8293,73
33.8665,58
33.9036,50
33.9408,56
33.9779,53
34.0151,58
34.0522,48
34.0894,59
34.1265,60
34.1637,60
34.2008,55
34.2380,62
34.2751,43
34.3123,51
34.3494,51
34.3866,50
34.4238,39
34.4609,66
34.4981,65
34.5352,48
34.5724,60
34.6095,70
34.6467,55
34.6838,60
34.7210,59
34.7581,83
34.7953,67
34.8324,69
34.8696,72
34.9067,58
34.9439,54
34.9810,55
35.0182,57
35.0553,54
35.0925,65
35.1296,47
35.1668,48
35.2039,54
35.2411,42
35.2782,48
35.3154,43
35.3525,46
35.3897,48
35.4268,55
35.4640,53
35.5011,45
35.5383,50
35.5754,68
35.6126,58
35.6497,57
35.6869,47
35.7240,47
35.7612,37
35.7983,45
35.8355,45
35.8726,57
35.9098,49
35.9469,61
35.9841,45
36.0213,46
36.0584,47
36.0956,49
36.1327,48
36.1699,38
36.2070,47
36.2442,44
36.2813,34
36.3185,48
36.3556,52
36.3928,42
36.4299,43
36.4671,37
36.5042,43
36.5414,52
36.5785,37
36.6157,58
36.6528,43
36.6900,45
36.7271,39
36.7643,28
36.8014,45
36.8386,44
36.8757,41
36.9129,33
36.9500,41
36.9872,51
37.0243,66
37.0615,50
37.0986,39
37.1358,39
37.1729,46
37.2101,48
37.2472,35
37.2844,46
37.3215,41
37.3587,47
37.3958,53
37.4330,72
37.4701,49
37.5073,57
37.5445,49
37.5816,55
37.6188,48
37.6559,51
37.6931,49
37.7302,57
37.7674,33
37.8045,41
37.8417,44
37.8788,48
37.9160,32
37.9531,41
37.9903,42
38.0274,38
38.0646,44
38.1017,41
38.1389,34
38.1760,35
38.2132,38
38.2503,32
38.2875,52
38.3246,40
38.3618,46
38.3989,51
38.4361,34
38.4732,47
38.5104,50
38.5475,35
38.5847,40
38.6218,43
38.6590,41
38.6961,34
38.7333,32
38.7704,31
38.8076,40
38.8447,51
38.8819,44
38.9190,44
38.9562,40
38.9933,47
39.0305,35
39.0677,44
39.1048,27
39.1420,50
39.1791,51
39.2163,51
39.2534,32
39.2906,48
39.3277,42
39.3649,33
39.4020,39
39.4392,41
39.4763,42
39.5135,35
39.5506,42
39.5878,35
39.6249,40
39.6621,58
39.6992,32
39.7364,35
39.7735,40
39.8107,41
39.8478,31
39.8850,40
39.9221,28
39.9593,44
39.9964,43
40.0336,26
40.0707,29
40.1079,37
40.1450,44
40.1822,33
40.2193,27
40.2565,35
40.2936,31
40.3308,25
40.3679,32
40.4051,33
40.4422,38
40.4794,46
40.5165,50
40.5537,41
40.5908,39
40.6280,31
40.6652,37
40.7023,33
40.7395,44
40.7766,45
40.8138,34
40.8509,30
40.8881,40
40.9252,44
40.9624,40
40.9995,31
41.0367,40
41.0738,44
41.1110,43
41.1481,41
41.1853,25
41.2224,40
41.2596,32
41.2967,49
41.3339,42
41.3710,41
41.4082,43
41.4453,46
41.4825,38
41.5196,26
41.5568,37
41.5939,27
41.6311,37
41.6682,37
41.7054,42
41.7425,35
41.7797,37
41.8168,26
41.8540,32
41.8911,41
41.9283,37
41.9654,35
42.0026,33
42.0397,50
42.0769,35
42.1140,36
42.1512,35
42.1884,30
42.2255,27
42.2627,33
42.2998,38
42.3370,45
42.3741,37
42.4113,38
42.4484,33
42.4856,32
42.5227,35
42.5599,39
42.5970,50
42.6342,34
42.6713,51
42.7085,36
42.7456,23
42.7828,33
42.8199,42
42.8571,56
42.8942,36
42.9314,36
42.9685,21
43.0057,33
43.0428,44
43.0800,43
43.1171,32
43.1543,36
43.1914,35
43.2286,60
43.2657,50
43.3029,35
43.3400,41
43.3772,46
43.4143,39
43.4515,45
43.4886,72
43.5258,64
43.5629,60
43.6001,58
43.6372,37
43.6744,36
43.7116,35
43.7487,37
43.7859,39
43.8230,33
43.8602,43
43.8973,32
43.9345,41
43.9716,48
44.0088,42
44.0459,39
44.0831,45
44.1202,40
44.1574,33
44.1945,45
44.2317,45
44.2688,33
44.3060,40
44.3431,33
44.3803,43
44.4174,33
44.4546,28
44.4917,46
44.5289,35
44.5660,40
44.6032,34
44.6403,40
44.6775,33
44.7146,39
44.7518,31
44.7889,36
44.8261,44
44.8632,30
44.9004,38
44.9375,33
44.9747,43
45.0118,43
45.0490,38
45.0861,36
45.1233,41
45.1604,22
45.1976,34
45.2347,23
45.2719,27
45.3091,36
45.3462,28
45.3834,33
45.4205,34
45.4577,21
45.4948,39
45.5320,42
45.5691,29
45.6063,48
45.6434,27
45.6806,26
45.7177,29
45.7549,40
45.7920,39
45.8292,24
45.8663,39
45.9035,37
45.9406,44
45.9778,33
46.0149,29
46.0521,34
46.0892,30
46.1264,33
46.1635,34
46.2007,37
46.2378,27
46.2750,26
46.3121,27
46.3493,24
46.3864,34
46.4236,38
46.4607,42
46.4979,27
46.5350,25
46.5722,36
46.6093,43
46.6465,37
46.6836,37
46.7208,26
46.7579,27
46.7951,35
46.8323,33
46.8694,38
46.9066,29
46.9437,30
46.9809,37
47.0180,35
47.0552,37
47.0923,27
47.1295,34
47.1666,38
47.2038,24
47.2409,38
47.2781,34
47.3152,31
47.3524,35
47.3895,29
47.4267,38
47.4638,30
47.5010,22
47.5381,32
47.5753,22
47.6124,30
47.6496,26
47.6867,26
47.7239,26
47.7610,32
47.7982,30
47.8353,32
47.8725,34
47.9096,34
47.9468,30
47.9839,30
48.0211,22
48.0582,32
48.0954,33
48.1325,31
48.1697,38
48.2068,36
48.2440,28
48.2811,26
48.3183,40
48.3555,33
48.3926,28
48.4298,26
48.4669,30
48.5041,26
48.5412,29
48.5784,28
48.6155,40
48.6527,34
48.6898,33
48.7270,29
48.7641,35
48.8013,31
48.8384,37
48.8756,39
48.9127,50
48.9499,54
48.9870,40
49.0242,37
49.0613,48
49.0985,34
49.1356,28
49.1728,28
49.2099,31
49.2471,34
49.2842,24
49.3214,39
49.3585,21
49.3957,28
49.4328,41
49.4700,21
49.5071,33
49.5443,30
49.5814,23
49.6186,42
49.6557,26
49.6929,27
49.7300,36
49.7672,27
49.8043,33
49.8415,27
49.8786,34
49.9158,26
49.9530,31
49.9901,32
50.0273,28
50.0644,35
50.1016,33
50.1387,29
50.1759,38
50.2130,41
50.2502,44
50.2873,37
50.3245,38
50.3616,32
50.3988,28
50.4359,29
50.4731,25
50.5102,25
50.5474,35
50.5845,29
50.6217,32
50.6588,34
50.6960,20
50.7331,26
50.7703,28
50.8074,27
50.8446,27
50.8817,27
50.9189,24
50.9560,17
50.9932,34
51.0303,28
51.0675,32
51.1046,27
51.1418,30
51.1789,23
51.2161,35
51.2532,21
51.2904,44
51.3275,22
51.3647,44
51.4018,43
51.4390,49
51.4762,24
51.5133,30
51.5505,33
51.5876,31
51.6248,38
51.6619,27
51.6991,29
51.7362,41
51.7734,36
51.8105,38
51.8477,26
51.8848,25
51.9220,25
51.9591,24
51.9963,45
52.0334,34
52.0706,33
52.1077,25
52.1449,36
52.1820,21
52.2192,24
52.2563,31
52.2935,26
52.3306,28
52.3678,31
52.4049,33
52.4421,25
52.4792,26
52.5164,33
52.5535,41
52.5907,15
52.6278,25
52.6650,40
52.7021,32
52.7393,29
52.7764,36
52.8136,28
52.8507,32
52.8879,29
52.9250,39
52.9622,33
52.9994,26
53.0365,34
53.0737,27
53.1108,29
53.1480,31
53.1851,26
53.2223,43
53.2594,36
53.2966,23
53.3337,22
53.3709,29
53.4080,28
53.4452,38
53.4823,40
53.5195,22
53.5566,26
53.5938,28
53.6309,28
53.6681,31
53.7052,26
53.7424,36
53.7795,27
53.8167,29
53.8538,38
53.8910,23
53.9281,23
53.9653,47
54.0024,39
54.0396,28
54.0767,33
54.1139,34
54.1510,29
54.1882,24
54.2253,20
54.2625,29
54.2996,30
54.3368,29
54.3739,38
54.4111,20
54.4482,26
54.4854,31
54.5225,30
54.5597,23
54.5969,27
54.6340,21
54.6712,25
54.7083,29
54.7455,30
54.7826,31
54.8198,26
54.8569,24
54.8941,24
54.9312,18
54.9684,34
55.0055,34
55.0427,23
55.0798,26
55.1170,23
55.1541,30
55.1913,31
55.2284,30
55.2656,24
55.3027,34
55.3399,34
55.3770,30
55.4142,20
55.4513,29
55.4885,29
55.5256,30
55.5628,33
55.5999,37
55.6371,30
55.6742,41
55.7114,28
55.7485,36
55.7857,24
55.8228,25
55.8600,19
55.8971,26
55.9343,23
55.9714,30
56.0086,32
56.0457,38
56.0829,33
56.1201,27
56.1572,32
56.1944,26
56.2315,36
56.2687,28
56.3058,27
56.3430,24
56.3801,19
56.4173,27
56.4544,32
56.4916,18
56.5287,24
56.5659,31
56.6030,22
56.6402,29
56.6773,24
56.7145,31
56.7516,34
56.7888,23
56.8259,26
56.8631,28
56.9002,29
56.9374,29
56.9745,22
57.0117,32
57.0488,28
57.0860,30
57.1231,24
57.1603,26
57.1974,30
57.2346,25
57.2717,31
57.3089,32
57.3460,26
57.3832,35
57.4203,22
57.4575,29
57.4946,27
57.5318,38
57.5689,27
57.6061,27
57.6433,40
57.6804,28
57.7176,26
57.7547,31
57.7919,23
57.8290,41
57.8662,28
57.9033,36
57.9405,33
57.9776,37
58.0148,28
58.0519,32
58.0891,23
58.1262,27
58.1634,26
58.2005,19
58.2377,30
58.2748,31
58.3120,30
58.3491,24
58.3863,31
58.4234,39
58.4606,27
58.4977,18
58.5349,26
58.5720,25
58.6092,23
58.6463,25
58.6835,17
58.7206,31
58.7578,25
58.7949,27
58.8321,26
58.8692,20
58.9064,20
58.9435,23
58.9807,30
59.0178,34
59.0550,31
59.0921,22
59.1293,27
59.1664,26
59.2036,27
59.2408,29
59.2779,17
59.3151,26
59.3522,19
59.3894,27
59.4265,30
59.4637,30
59.5008,27
59.5380,21
59.5751,21
59.6123,19
59.6494,27
59.6866,16
59.7237,33
59.7609,30
59.7980,26
59.8352,34
59.8723,22
59.9095,20
59.9466,31
59.9838,24
60.0024,29