File: notebooks/data/xrd_data/ML_20220718_49_SJD_4_LaB6-1min.csv
;,2THETA,
5.0000,99
5.0372,71
5.0743,95
5.1115,94
5.1486,87
5.1858,95
5.2229,92
5.2601,96
5.2972,90
5.3344,76
5.3715,96
5.4087,92
5.4458,87
5.4830,73
5.5201,81
5.5573,86
5.5944,87
5.6316,72
5.6687,91
5.7059,75
5.7430,91
5.7802,80
5.8173,79
5.8545,69
5.8916,88
5.9288,70
5.9659,66
6.0031,65
6.0402,75
6.0774,73
6.1145,71
6.1517,79
6.1888,81
6.2260,61
6.2631,64
6.3003,64
6.3374,73
6.3746,72
6.4117,78
6.4489,74
6.4860,66
6.5232,65
6.5604,53
6.5975,51
6.6347,75
6.6718,45
6.7090,64
6.7461,52
6.7833,70
6.8204,72
6.8576,57
6.8947,53
6.9319,61
6.9690,68
7.0062,66
7.0433,59
7.0805,59
7.1176,69
7.1548,55
7.1919,70
7.2291,65
7.2662,57
7.3034,63
7.3405,65
7.3777,56
7.4148,65
7.4520,64
7.4891,52
7.5263,62
7.5634,64
7.6006,71
7.6377,69
7.6749,48
7.7120,61
7.7492,63
7.7863,77
7.8235,66
7.8606,74
7.8978,56
7.9349,56
7.9721,61
8.0092,81
8.0464,72
8.0835,80
8.1207,75
8.1579,67
8.1950,82
8.2322,65
8.2693,63
8.3065,64
8.3436,74
8.3808,66
8.4179,78
8.4551,85
8.4922,70
8.5294,61
8.5665,80
8.6037,85
8.6408,74
8.6780,72
8.7151,82
8.7523,79
8.7894,78
8.8266,76
8.8637,70
8.9009,64
8.9380,68
8.9752,74
9.0123,77
9.0495,68
9.0866,78
9.1238,80
9.1609,96
9.1981,74
9.2352,86
9.2724,87
9.3095,71
9.3467,90
9.3838,65
9.4210,92
9.4581,75
9.4953,67
9.5324,101
9.5696,75
9.6067,72
9.6439,85
9.6811,89
9.7182,96
9.7554,78
9.7925,88
9.8297,88
9.8668,94
9.9040,88
9.9411,80
9.9783,78
10.0154,109
10.0526,78
10.0897,86
10.1269,103
10.1640,94
10.2012,83
10.2383,80
10.2755,96
10.3126,72
10.3498,74
10.3869,82
10.4241,109
10.4612,88
10.4984,89
10.5355,84
10.5727,84
10.6098,90
10.6470,65
10.6841,84
10.7213,99
10.7584,75
10.7956,90
10.8327,89
10.8699,101
10.9070,88
10.9442,82
10.9813,96
11.0185,79
11.0556,79
11.0928,88
11.1299,104
11.1671,86
11.2043,106
11.2414,84
11.2786,83
11.3157,86
11.3529,86
11.3900,87
11.4272,92
11.4643,91
11.5015,93
11.5386,84
11.5758,90
11.6129,92
11.6501,84
11.6872,84
11.7244,95
11.7615,90
11.7987,99
11.8358,88
11.8730,81
11.9101,97
11.9473,81
11.9844,71
12.0216,82
12.0587,78
12.0959,67
12.1330,97
12.1702,94
12.2073,69
12.2445,82
12.2816,81
12.3188,85
12.3559,80
12.3931,81
12.4302,80
12.4674,84
12.5045,97
12.5417,67
12.5788,87
12.6160,66
12.6531,76
12.6903,72
12.7274,82
12.7646,73
12.8018,68
12.8389,84
12.8761,67
12.9132,90
12.9504,68
12.9875,67
13.0247,74
13.0618,80
13.0990,79
13.1361,84
13.1733,83
13.2104,66
13.2476,80
13.2847,57
13.3219,77
13.3590,60
13.3962,77
13.4333,63
13.4705,63
13.5076,66
13.5448,81
13.5819,66
13.6191,63
13.6562,65
13.6934,62
13.7305,66
13.7677,72
13.8048,68
13.8420,67
13.8791,71
13.9163,71
13.9534,63
13.9906,63
14.0277,70
14.0649,71
14.1020,74
14.1392,67
14.1763,60
14.2135,59
14.2506,69
14.2878,53
14.3250,51
14.3621,66
14.3993,60
14.4364,69
14.4736,57
14.5107,61
14.5479,65
14.5850,63
14.6222,57
14.6593,63
14.6965,62
14.7336,55
14.7708,49
14.8079,66
14.8451,65
14.8822,54
14.9194,57
14.9565,82
14.9937,61
15.0308,51
15.0680,57
15.1051,57
15.1423,66
15.1794,67
15.2166,57
15.2537,75
15.2909,57
15.3280,72
15.3652,58
15.4023,61
15.4395,60
15.4766,70
15.5138,55
15.5509,57
15.5881,52
15.6252,62
15.6624,54
15.6995,64
15.7367,42
15.7738,43
15.8110,50
15.8482,53
15.8853,70
15.9225,55
15.9596,70
15.9968,55
16.0339,64
16.0711,65
16.1082,55
16.1454,58
16.1825,66
16.2197,56
16.2568,57
16.2940,53
16.3311,70
16.3683,66
16.4054,62
16.4426,72
16.4797,54
16.5169,66
16.5540,65
16.5912,67
16.6283,70
16.6655,66
16.7026,75
16.7398,63
16.7769,62
16.8141,52
16.8512,69
16.8884,64
16.9255,44
16.9627,47
16.9998,69
17.0370,42
17.0741,51
17.1113,50
17.1484,54
17.1856,56
17.2227,56
17.2599,44
17.2970,59
17.3342,53
17.3713,49
17.4085,56
17.4457,54
17.4828,67
17.5200,52
17.5571,59
17.5943,74
17.6314,62
17.6686,55
17.7057,53
17.7429,52
17.7800,63
17.8172,69
17.8543,58
17.8915,67
17.9286,50
17.9658,58
18.0029,64
18.0401,53
18.0772,64
18.1144,64
18.1515,61
18.1887,50
18.2258,71
18.2630,63
18.3001,70
18.3373,67
18.3744,66
18.4116,59
18.4487,59
18.4859,48
18.5230,67
18.5602,61
18.5973,57
18.6345,69
18.6716,57
18.7088,60
18.7459,58
18.7831,54
18.8202,50
18.8574,68
18.8945,61
18.9317,71
18.9689,68
19.0060,60
19.0432,76
19.0803,56
19.1175,66
19.1546,78
19.1918,70
19.2289,75
19.2661,58
19.3032,61
19.3404,65
19.3775,53
19.4147,54
19.4518,83
19.4890,67
19.5261,59
19.5633,58
19.6004,75
19.6376,53
19.6747,63
19.7119,60
19.7490,52
19.7862,46
19.8233,65
19.8605,57
19.8976,70
19.9348,85
19.9719,58
20.0091,87
20.0462,65
20.0834,60
20.1205,79
20.1577,67
20.1948,44
20.2320,53
20.2691,59
20.3063,49
20.3434,67
20.3806,62
20.4177,78
20.4549,51
20.4921,81
20.5292,74
20.5664,78
20.6035,65
20.6407,63
20.6778,76
20.7150,58
20.7521,81
20.7893,53
20.8264,84
20.8636,61
20.9007,74
20.9379,69
20.9750,78
21.0122,84
21.0493,83
21.0865,83
21.1236,83
21.1608,82
21.1979,92
21.2351,131
21.2722,121
21.3094,102
21.3465,194
21.3837,164
21.4208,120
21.4580,72
21.4951,67
21.5323,79
21.5694,70
21.6066,73
21.6437,70
21.6809,71
21.7180,70
21.7552,82
21.7923,78
21.8295,68
21.8666,63
21.9038,63
21.9409,64
21.9781,72
22.0152,72
22.0524,65
22.0896,78
22.1267,77
22.1639,71
22.2010,73
22.2382,77
22.2753,73
22.3125,77
22.3496,77
22.3868,77
22.4239,61
22.4611,69
22.4982,65
22.5354,68
22.5725,72
22.6097,75
22.6468,83
22.6840,58
22.7211,85
22.7583,63
22.7954,66
22.8326,73
22.8697,61
22.9069,65
22.9440,64
22.9812,67
23.0183,58
23.0555,78
23.0926,69
23.1298,74
23.1669,70
23.2041,75
23.2412,94
23.2784,80
23.3155,70
23.3527,56
23.3898,85
23.4270,61
23.4641,84
23.5013,71
23.5384,62
23.5756,74
23.6128,79
23.6499,57
23.6871,66
23.7242,69
23.7614,89
23.7985,80
23.8357,93
23.8728,70
23.9100,76
23.9471,73
23.9843,71
24.0214,86
24.0586,70
24.0957,75
24.1329,81
24.1700,81
24.2072,93
24.2443,65
24.2815,89
24.3186,84
24.3558,73
24.3929,77
24.4301,91
24.4672,69
24.5044,73
24.5415,84
24.5787,70
24.6158,67
24.6530,70
24.6901,81
24.7273,73
24.7644,80
24.8016,61
24.8387,76
24.8759,76
24.9130,59
24.9502,80
24.9873,77
25.0245,75
25.0616,80
25.0988,65
25.1360,82
25.1731,82
25.2103,67
25.2474,71
25.2846,73
25.3217,66
25.3589,83
25.3960,59
25.4332,81
25.4703,78
25.5075,79
25.5446,78
25.5818,75
25.6189,72
25.6561,81
25.6932,74
25.7304,79
25.7675,80
25.8047,68
25.8418,60
25.8790,73
25.9161,75
25.9533,51
25.9904,55
26.0276,67
26.0647,72
26.1019,71
26.1390,73
26.1762,68
26.2133,61
26.2505,67
26.2876,71
26.3248,53
26.3619,66
26.3991,60
26.4362,74
26.4734,77
26.5105,68
26.5477,77
26.5848,71
26.6220,54
26.6591,74
26.6963,73
26.7335,47
26.7706,65
26.8078,74
26.8449,54
26.8821,68
26.9192,54
26.9564,63
26.9935,68
27.0307,70
27.0678,69
27.1050,83
27.1421,78
27.1793,82
27.2164,104
27.2536,75
27.2907,100
27.3279,68
27.3650,67
27.4022,60
27.4393,83
27.4765,62
27.5136,61
27.5508,62
27.5879,55
27.6251,81
27.6622,65
27.6994,61
27.7365,78
27.7737,69
27.8108,61
27.8480,67
27.8851,83
27.9223,64
27.9594,70
27.9966,66
28.0337,59
28.0709,70
28.1080,66
28.1452,57
28.1823,66
28.2195,62
28.2567,75
28.2938,67
28.3310,69
28.3681,57
28.4053,71
28.4424,74
28.4796,48
28.5167,60
28.5539,54
28.5910,55
28.6282,57
28.6653,77
28.7025,65
28.7396,56
28.7768,61
28.8139,55
28.8511,65
28.8882,61
28.9254,77
28.9625,60
28.9997,61
29.0368,61
29.0740,65
29.1111,60
29.1483,59
29.1854,68
29.2226,49
29.2597,54
29.2969,80
29.3340,62
29.3712,62
29.4083,49
29.4455,45
29.4826,61
29.5198,57
29.5569,56
29.5941,69
29.6312,59
29.6684,39
29.7055,54
29.7427,52
29.7799,48
29.8170,55
29.8542,61
29.8913,47
29.9285,46
29.9656,46
30.0028,63
30.0399,56
30.0771,51
30.1142,52
30.1514,50
30.1885,69
30.2257,60
30.2628,57
30.3000,61
30.3371,69
30.3743,127
30.4114,98
30.4486,86
30.4857,80
30.5229,61
30.5600,50
30.5972,51
30.6343,56
30.6715,46
30.7086,61
30.7458,56
30.7829,62
30.8201,53
30.8572,56
30.8944,39
30.9315,45
30.9687,51
31.0058,51
31.0430,47
31.0801,50
31.1173,50
31.1544,49
31.1916,54
31.2287,55
31.2659,48
31.3030,38
31.3402,54
31.3774,51
31.4145,54
31.4517,54
31.4888,47
31.5260,55
31.5631,54
31.6003,56
31.6374,53
31.6746,42
31.7117,52
31.7489,66
31.7860,53
31.8232,39
31.8603,54
31.8975,61
31.9346,41
31.9718,54
32.0089,64
32.0461,56
32.0832,50
32.1204,53
32.1575,51
32.1947,67
32.2318,43
32.2690,46
32.3061,44
32.3433,36
32.3804,48
32.4176,64
32.4547,48
32.4919,56
32.5290,58
32.5662,45
32.6033,58
32.6405,61
32.6776,40
32.7148,36
32.7519,38
32.7891,55
32.8262,51
32.8634,51
32.9006,41
32.9377,40
32.9749,46
33.0120,40
33.0492,41
33.0863,35
33.1235,46
33.1606,55
33.1978,40
33.2349,42
33.2721,47
33.3092,46
33.3464,53
33.3835,45
33.4207,49
33.4578,45
33.4950,42
33.5321,29
33.5693,30
33.6064,46
33.6436,52
33.6807,51
33.7179,43
33.7550,32
33.7922,38
33.8293,52
33.8665,35
33.9036,38
33.9408,46
33.9779,46
34.0151,41
34.0522,37
34.0894,45
34.1265,32
34.1637,36
34.2008,43
34.2380,42
34.2751,40
34.3123,40
34.3494,36
34.3866,32
34.4238,43
34.4609,34
34.4981,43
34.5352,42
34.5724,44
34.6095,39
34.6467,42
34.6838,31
34.7210,43
34.7581,67
34.7953,54
34.8324,40
34.8696,61
34.9067,37
34.9439,40
34.9810,44
35.0182,47
35.0553,39
35.0925,40
35.1296,46
35.1668,39
35.2039,48
35.2411,32
35.2782,35
35.3154,33
35.3525,31
35.3897,29
35.4268,38
35.4640,44
35.5011,51
35.5383,53
35.5754,39
35.6126,38
35.6497,37
35.6869,45
35.7240,32
35.7612,38
35.7983,34
35.8355,43
35.8726,43
35.9098,24
35.9469,37
35.9841,34
36.0213,40
36.0584,34
36.0956,30
36.1327,37
36.1699,32
36.2070,40
36.2442,37
36.2813,32
36.3185,45
36.3556,34
36.3928,38
36.4299,32
36.4671,46
36.5042,37
36.5414,27
36.5785,35
36.6157,50
36.6528,27
36.6900,37
36.7271,35
36.7643,39
36.8014,35
36.8386,37
36.8757,38
36.9129,27
36.9500,31
36.9872,37
37.0243,29
37.0615,41
37.0986,35
37.1358,34
37.1729,30
37.2101,33
37.2472,29
37.2844,45
37.3215,46
37.3587,50
37.3958,34
37.4330,46
37.4701,58
37.5073,34
37.5445,51
37.5816,24
37.6188,38
37.6559,32
37.6931,20
37.7302,26
37.7674,39
37.8045,29
37.8417,26
37.8788,36
37.9160,27
37.9531,22
37.9903,35
38.0274,32
38.0646,22
38.1017,25
38.1389,27
38.1760,27
38.2132,26
38.2503,23
38.2875,32
38.3246,36
38.3618,31
38.3989,28
38.4361,34
38.4732,34
38.5104,35
38.5475,27
38.5847,30
38.6218,36
38.6590,31
38.6961,38
38.7333,33
38.7704,29
38.8076,37
38.8447,35
38.8819,27
38.9190,32
38.9562,36
38.9933,25
39.0305,34
39.0677,31
39.1048,36
39.1420,33
39.1791,30
39.2163,31
39.2534,43
39.2906,27
39.3277,22
39.3649,26
39.4020,26
39.4392,28
39.4763,33
39.5135,24
39.5506,30
39.5878,23
39.6249,31
39.6621,25
39.6992,30
39.7364,41
39.7735,35
39.8107,27
39.8478,21
39.8850,20
39.9221,24
39.9593,38
39.9964,24
40.0336,29
40.0707,19
40.1079,29
40.1450,30
40.1822,38
40.2193,28
40.2565,29
40.2936,40
40.3308,18
40.3679,23
40.4051,24
40.4422,23
40.4794,35
40.5165,20
40.5537,35
40.5908,36
40.6280,36
40.6652,43
40.7023,21
40.7395,28
40.7766,27
40.8138,24
40.8509,23
40.8881,36
40.9252,37
40.9624,24
40.9995,29
41.0367,31
41.0738,35
41.1110,27
41.1481,26
41.1853,26
41.2224,25
41.2596,27
41.2967,28
41.3339,34
41.3710,31
41.4082,28
41.4453,24
41.4825,26
41.5196,26
41.5568,30
41.5939,22
41.6311,26
41.6682,28
41.7054,25
41.7425,28
41.7797,29
41.8168,22
41.8540,32
41.8911,26
41.9283,20
41.9654,29
42.0026,24
42.0397,24
42.0769,35
42.1140,23
42.1512,19
42.1884,27
42.2255,23
42.2627,28
42.2998,19
42.3370,27
42.3741,24
42.4113,29
42.4484,23
42.4856,34
42.5227,34
42.5599,16
42.5970,24
42.6342,21
42.6713,33
42.7085,21
42.7456,34
42.7828,19
42.8199,17
42.8571,32
42.8942,24
42.9314,23
42.9685,32
43.0057,37
43.0428,24
43.0800,27
43.1171,22
43.1543,30
43.1914,23
43.2286,34
43.2657,26
43.3029,26
43.3400,45
43.3772,25
43.4143,34
43.4515,31
43.4886,50
43.5258,46
43.5629,34
43.6001,26
43.6372,35
43.6744,31
43.7116,24
43.7487,25
43.7859,29
43.8230,25
43.8602,22
43.8973,25
43.9345,31
43.9716,30
44.0088,24
44.0459,31
44.0831,29
44.1202,36
44.1574,28
44.1945,23
44.2317,37
44.2688,37
44.3060,31
44.3431,23
44.3803,18
44.4174,26
44.4546,27
44.4917,27
44.5289,24
44.5660,21
44.6032,28
44.6403,26
44.6775,19
44.7146,36
44.7518,25
44.7889,29
44.8261,29
44.8632,29
44.9004,29
44.9375,21
44.9747,19
45.0118,20
45.0490,27
45.0861,24
45.1233,27
45.1604,26
45.1976,18
45.2347,24
45.2719,36
45.3091,23
45.3462,23
45.3834,29
45.4205,26
45.4577,26
45.4948,29
45.5320,26
45.5691,30
45.6063,21
45.6434,15
45.6806,29
45.7177,25
45.7549,22
45.7920,22
45.8292,21
45.8663,24
45.9035,23
45.9406,21
45.9778,24
46.0149,23
46.0521,30
46.0892,23
46.1264,23
46.1635,25
46.2007,24
46.2378,32
46.2750,27
46.3121,19
46.3493,21
46.3864,30
46.4236,26
46.4607,18
46.4979,16
46.5350,19
46.5722,21
46.6093,21
46.6465,27
46.6836,31
46.7208,30
46.7579,24
46.7951,21
46.8323,16
46.8694,24
46.9066,20
46.9437,25
46.9809,27
47.0180,19
47.0552,17
47.0923,13
47.1295,29
47.1666,27
47.2038,25
47.2409,26
47.2781,21
47.3152,26
47.3524,25
47.3895,22
47.4267,35
47.4638,24
47.5010,22
47.5381,25
47.5753,25
47.6124,22
47.6496,19
47.6867,19
47.7239,29
47.7610,15
47.7982,25
47.8353,25
47.8725,25
47.9096,22
47.9468,22
47.9839,31
48.0211,22
48.0582,29
48.0954,30
48.1325,19
48.1697,23
48.2068,26
48.2440,19
48.2811,19
48.3183,30
48.3555,19
48.3926,21
48.4298,21
48.4669,29
48.5041,25
48.5412,14
48.5784,32
48.6155,28
48.6527,20
48.6898,20
48.7270,19
48.7641,26
48.8013,21
48.8384,22
48.8756,13
48.9127,35
48.9499,52
48.9870,45
49.0242,31
49.0613,31
49.0985,24
49.1356,30
49.1728,14
49.2099,30
49.2471,25
49.2842,30
49.3214,19
49.3585,20
49.3957,26
49.4328,27
49.4700,24
49.5071,24
49.5443,22
49.5814,23
49.6186,28
49.6557,19
49.6929,18
49.7300,23
49.7672,27
49.8043,24
49.8415,27
49.8786,26
49.9158,21
49.9530,24
49.9901,19
50.0273,17
50.0644,31
50.1016,19
50.1387,30
50.1759,20
50.2130,20
50.2502,22
50.2873,31
50.3245,25
50.3616,17
50.3988,27
50.4359,18
50.4731,25
50.5102,15
50.5474,18
50.5845,23
50.6217,27
50.6588,27
50.6960,24
50.7331,31
50.7703,16
50.8074,22
50.8446,27
50.8817,20
50.9189,12
50.9560,22
50.9932,18
51.0303,22
51.0675,14
51.1046,15
51.1418,16
51.1789,23
51.2161,30
51.2532,22
51.2904,13
51.3275,24
51.3647,26
51.4018,25
51.4390,26
51.4762,24
51.5133,18
51.5505,23
51.5876,18
51.6248,25
51.6619,19
51.6991,25
51.7362,20
51.7734,23
51.8105,30
51.8477,28
51.8848,27
51.9220,18
51.9591,37
51.9963,19
52.0334,26
52.0706,21
52.1077,26
52.1449,18
52.1820,27
52.2192,25
52.2563,17
52.2935,21
52.3306,15
52.3678,28
52.4049,34
52.4421,13
52.4792,15
52.5164,19
52.5535,27
52.5907,17
52.6278,23
52.6650,23
52.7021,17
52.7393,12
52.7764,15
52.8136,24
52.8507,23
52.8879,28
52.9250,19
52.9622,25
52.9994,24
53.0365,24
53.0737,23
53.1108,19
53.1480,22
53.1851,26
53.2223,19
53.2594,17
53.2966,10
53.3337,23
53.3709,25
53.4080,25
53.4452,24
53.4823,22
53.5195,19
53.5566,18
53.5938,17
53.6309,27
53.6681,25
53.7052,20
53.7424,24
53.7795,27
53.8167,30
53.8538,18
53.8910,19
53.9281,26
53.9653,20
54.0024,23
54.0396,24
54.0767,28
54.1139,24
54.1510,26
54.1882,27
54.2253,19
54.2625,26
54.2996,18
54.3368,18
54.3739,16
54.4111,18
54.4482,11
54.4854,28
54.5225,21
54.5597,22
54.5969,18
54.6340,28
54.6712,18
54.7083,13
54.7455,22
54.7826,21
54.8198,23
54.8569,25
54.8941,20
54.9312,19
54.9684,33
55.0055,30
55.0427,11
55.0798,17
55.1170,21
55.1541,22
55.1913,17
55.2284,26
55.2656,22
55.3027,14
55.3399,16
55.3770,28
55.4142,18
55.4513,27
55.4885,19
55.5256,20
55.5628,19
55.5999,17
55.6371,20
55.6742,15
55.7114,25
55.7485,22
55.7857,13
55.8228,30
55.8600,20
55.8971,21
55.9343,27
55.9714,22
56.0086,24
56.0457,14
56.0829,21
56.1201,17
56.1572,26
56.1944,21
56.2315,20
56.2687,21
56.3058,24
56.3430,28
56.3801,35
56.4173,30
56.4544,18
56.4916,19
56.5287,12
56.5659,19
56.6030,21
56.6402,18
56.6773,18
56.7145,23
56.7516,22
56.7888,16
56.8259,18
56.8631,19
56.9002,23
56.9374,24
56.9745,24
57.0117,17
57.0488,17
57.0860,14
57.1231,16
57.1603,19
57.1974,15
57.2346,21
57.2717,24
57.3089,16
57.3460,13
57.3832,29
57.4203,19
57.4575,18
57.4946,19
57.5318,14
57.5689,10
57.6061,24
57.6433,18
57.6804,15
57.7176,23
57.7547,22
57.7919,15
57.8290,23
57.8662,24
57.9033,24
57.9405,29
57.9776,21
58.0148,27
58.0519,19
58.0891,15
58.1262,19
58.1634,25
58.2005,14
58.2377,19
58.2748,24
58.3120,18
58.3491,20
58.3863,20
58.4234,20
58.4606,20
58.4977,14
58.5349,23
58.5720,27
58.6092,26
58.6463,20
58.6835,20
58.7206,21
58.7578,18
58.7949,25
58.8321,18
58.8692,25
58.9064,23
58.9435,23
58.9807,19
59.0178,21
59.0550,21
59.0921,29
59.1293,20
59.1664,17
59.2036,21
59.2408,18
59.2779,22
59.3151,13
59.3522,15
59.3894,16
59.4265,28
59.4637,15
59.5008,17
59.5380,27
59.5751,24
59.6123,26
59.6494,17
59.6866,19
59.7237,18
59.7609,16
59.7980,26
59.8352,22
59.8723,25
59.9095,19
59.9466,23
59.9838,23
60.0024,18