File: notebooks/data/xrd_data/ML_20220721_23_SJD_4_LaB6-4min.uxd
; (content of file Y:\Sam\Apurva-07-20-2022\puck1\ML_20220721_23_SJD_0_LaB6-4min.raw)
_FILEVERSION = 3
_SAMPLE = ML_20220721_23_SJD_0_LaB6-4min
_+SAMPLE =
_SITE = USA
_USER = Administrator
_GONIOMETER_CODE = 20
; Goniometer : D8 theta/2theta, stage : Unknown
_ATTACHMENTS_CODE = 0
_GONIOMETER_RADIUS = 200.5
_FIXED_DIVSLIT = 0.6
_FIXED_SAMPLESLIT = 0
_SOLLER_SLITS = 2
_FIXED_DETSLIT = 9.55
_MONOCHROMATOR = 0
; Incident beam monochromator : None
_SOLLER_SLITS_2 = N
_THIN_FILM = N
_BETA_FILTER = Y
_FIXED_ANTISLIT = 5.89
_ANALYZER_CODE = 0
; Received beam analyzer : None
_DATEMEASURED = "25-Jul-2022 15:35:39"
_WL_UNIT = A
_WL1 = 1.5406
_WL2 = 1.54439
_WL3 = 1.39222
_WLRATIO = 0.5
_ANODE = Cu
_V4_INF_CREATOR = XRDWizard
_V4_INF_CREATOR_VERSION = V2.9.0.22
_V4_INF_WIZARD_VERSION = V2.9.0.22
_V4_INF_WIZARD_ADDINS = V2.9.0.22
_V4_INF_WIZARD_DOCTYPE = XRD
_V4_INF_OSUSER = McQueenLab
_V4_INF_USER = Administrator
_V4_INF_SITE = USA
_V4_INF_SAMPLEID = ML_20220721_23_SJD_0_LaB6-4min

; Data for range 1
_DRIVE = COUPLED
_STEPTIME = 11.28
_STEPSIZE = 0.0185756
_STEPMODE = C
_START = 5
_THETA = 2.5
_2THETA = 5
_KHI = 0
_PHI = 0
_X = 0
_Y = 0
_Z = 0
_DETECTOR = 5
; Detector type : Unknown
_DETECTORSLIT = unkn
_AUX1 = 0
_AUX2 = 0
_AUX3 = 0
_TIMESTARTED = 15
_TEMP_RATE = -1
_TEMP_DELAY = -1
_KV = 40
_MA = 40
_RANGE_WL = 1.5406
_3DPLANE = 0
_V4_ADDITIONALDETECTOR = 257
_V4_PSD2THETA = 3.365
_V4_PSDCHANNEL1 = 0
_V4_PSDAPERTURE = 12.68
_V4_PSDTYPE = 5
_V4_PSDFIXED = 0
_V4_COUNTERS_MASK = 4096
_V4_DRIVES_MASK = 0
_V4_ENCODERS_MASK = 0
_2THETACOUNTS = 1
; 2THETA  PSD
   5.0000        286
   5.0372        251
   5.0743        277
   5.1115        238
   5.1486        232
   5.1858        277
   5.2229        229
   5.2601        237
   5.2972        243
   5.3344        225
   5.3715        215
   5.4087        238
   5.4458        237
   5.4830        239
   5.5201        231
   5.5573        253
   5.5944        220
   5.6316        239
   5.6687        217
   5.7059        230
   5.7430        226
   5.7802        226
   5.8173        183
   5.8545        233
   5.8916        208
   5.9288        219
   5.9659        206
   6.0031        196
   6.0402        193
   6.0774        179
   6.1145        199
   6.1517        181
   6.1888        187
   6.2260        208
   6.2631        171
   6.3003        196
   6.3374        177
   6.3746        200
   6.4117        192
   6.4489        172
   6.4860        172
   6.5232        178
   6.5604        168
   6.5975        156
   6.6347        149
   6.6718        176
   6.7090        191
   6.7461        176
   6.7833        174
   6.8204        167
   6.8576        154
   6.8947        193
   6.9319        144
   6.9690        166
   7.0062        168
   7.0433        167
   7.0805        163
   7.1176        149
   7.1548        171
   7.1919        169
   7.2291        186
   7.2662        121
   7.3034        152
   7.3405        167
   7.3777        168
   7.4148        186
   7.4520        173
   7.4891        160
   7.5263        173
   7.5634        174
   7.6006        150
   7.6377        184
   7.6749        162
   7.7120        177
   7.7492        166
   7.7863        173
   7.8235        186
   7.8606        172
   7.8978        205
   7.9349        205
   7.9721        197
   8.0092        167
   8.0464        168
   8.0835        187
   8.1207        181
   8.1579        208
   8.1950        185
   8.2322        183
   8.2693        190
   8.3065        181
   8.3436        190
   8.3808        195
   8.4179        223
   8.4551        197
   8.4922        207
   8.5294        176
   8.5665        205
   8.6037        182
   8.6408        210
   8.6780        227
   8.7151        208
   8.7523        229
   8.7894        194
   8.8266        207
   8.8637        222
   8.9009        215
   8.9380        193
   8.9752        211
   9.0123        237
   9.0495        213
   9.0866        229
   9.1238        209
   9.1609        231
   9.1981        223
   9.2352        225
   9.2724        220
   9.3095        221
   9.3467        229
   9.3838        197
   9.4210        229
   9.4581        234
   9.4953        239
   9.5324        211
   9.5696        198
   9.6067        255
   9.6439        236
   9.6811        216
   9.7182        240
   9.7554        239
   9.7925        257
   9.8297        239
   9.8668        236
   9.9040        253
   9.9411        249
   9.9783        278
  10.0154        227
  10.0526        248
  10.0897        240
  10.1269        240
  10.1640        267
  10.2012        239
  10.2383        247
  10.2755        249
  10.3126        268
  10.3498        222
  10.3869        240
  10.4241        242
  10.4612        235
  10.4984        253
  10.5355        253
  10.5727        244
  10.6098        236
  10.6470        253
  10.6841        252
  10.7213        252
  10.7584        238
  10.7956        250
  10.8327        246
  10.8699        227
  10.9070        242
  10.9442        226
  10.9813        251
  11.0185        255
  11.0556        241
  11.0928        222
  11.1299        233
  11.1671        239
  11.2043        247
  11.2414        235
  11.2786        225
  11.3157        256
  11.3529        238
  11.3900        239
  11.4272        261
  11.4643        245
  11.5015        239
  11.5386        239
  11.5758        236
  11.6129        249
  11.6501        253
  11.6872        250
  11.7244        226
  11.7615        252
  11.7987        244
  11.8358        230
  11.8730        240
  11.9101        220
  11.9473        241
  11.9844        214
  12.0216        249
  12.0587        238
  12.0959        225
  12.1330        231
  12.1702        241
  12.2073        232
  12.2445        224
  12.2816        272
  12.3188        208
  12.3559        226
  12.3931        242
  12.4302        194
  12.4674        220
  12.5045        223
  12.5417        231
  12.5788        217
  12.6160        211
  12.6531        209
  12.6903        179
  12.7274        200
  12.7646        223
  12.8018        237
  12.8389        213
  12.8761        190
  12.9132        222
  12.9504        211
  12.9875        222
  13.0247        223
  13.0618        197
  13.0990        216
  13.1361        212
  13.1733        209
  13.2104        192
  13.2476        206
  13.2847        206
  13.3219        181
  13.3590        236
  13.3962        208
  13.4333        182
  13.4705        192
  13.5076        202
  13.5448        183
  13.5819        203
  13.6191        170
  13.6562        181
  13.6934        198
  13.7305        167
  13.7677        215
  13.8048        208
  13.8420        186
  13.8791        178
  13.9163        193
  13.9534        195
  13.9906        176
  14.0277        187
  14.0649        196
  14.1020        177
  14.1392        179
  14.1763        190
  14.2135        161
  14.2506        206
  14.2878        188
  14.3250        168
  14.3621        168
  14.3993        183
  14.4364        184
  14.4736        185
  14.5107        156
  14.5479        170
  14.5850        174
  14.6222        159
  14.6593        161
  14.6965        174
  14.7336        171
  14.7708        161
  14.8079        183
  14.8451        172
  14.8822        162
  14.9194        160
  14.9565        166
  14.9937        173
  15.0308        149
  15.0680        168
  15.1051        185
  15.1423        169
  15.1794        173
  15.2166        156
  15.2537        162
  15.2909        173
  15.3280        186
  15.3652        158
  15.4023        161
  15.4395        172
  15.4766        178
  15.5138        139
  15.5509        201
  15.5881        190
  15.6252        173
  15.6624        192
  15.6995        162
  15.7367        167
  15.7738        174
  15.8110        199
  15.8482        163
  15.8853        163
  15.9225        187
  15.9596        164
  15.9968        147
  16.0339        163
  16.0711        141
  16.1082        168
  16.1454        160
  16.1825        158
  16.2197        165
  16.2568        160
  16.2940        174
  16.3311        144
  16.3683        191
  16.4054        164
  16.4426        156
  16.4797        178
  16.5169        192
  16.5540        165
  16.5912        170
  16.6283        174
  16.6655        181
  16.7026        147
  16.7398        180
  16.7769        173
  16.8141        158
  16.8512        156
  16.8884        169
  16.9255        146
  16.9627        155
  16.9998        190
  17.0370        166
  17.0741        149
  17.1113        166
  17.1484        182
  17.1856        154
  17.2227        158
  17.2599        173
  17.2970        159
  17.3342        156
  17.3713        177
  17.4085        161
  17.4457        188
  17.4828        133
  17.5200        141
  17.5571        148
  17.5943        151
  17.6314        176
  17.6686        148
  17.7057        199
  17.7429        153
  17.7800        169
  17.8172        167
  17.8543        172
  17.8915        131
  17.9286        174
  17.9658        169
  18.0029        173
  18.0401        136
  18.0772        171
  18.1144        144
  18.1515        179
  18.1887        151
  18.2258        170
  18.2630        162
  18.3001        169
  18.3373        173
  18.3744        161
  18.4116        156
  18.4487        188
  18.4859        160
  18.5230        172
  18.5602        182
  18.5973        180
  18.6345        176
  18.6716        177
  18.7088        148
  18.7459        159
  18.7831        170
  18.8202        179
  18.8574        190
  18.8945        171
  18.9317        179
  18.9689        169
  19.0060        164
  19.0432        185
  19.0803        176
  19.1175        173
  19.1546        188
  19.1918        193
  19.2289        181
  19.2661        196
  19.3032        159
  19.3404        173
  19.3775        173
  19.4147        178
  19.4518        182
  19.4890        172
  19.5261        177
  19.5633        183
  19.6004        163
  19.6376        164
  19.6747        179
  19.7119        193
  19.7490        190
  19.7862        200
  19.8233        203
  19.8605        176
  19.8976        193
  19.9348        177
  19.9719        166
  20.0091        171
  20.0462        183
  20.0834        191
  20.1205        182
  20.1577        172
  20.1948        191
  20.2320        183
  20.2691        190
  20.3063        202
  20.3434        186
  20.3806        178
  20.4177        197
  20.4549        180
  20.4921        187
  20.5292        183
  20.5664        204
  20.6035        192
  20.6407        201
  20.6778        177
  20.7150        197
  20.7521        189
  20.7893        195
  20.8264        198
  20.8636        212
  20.9007        188
  20.9379        200
  20.9750        192
  21.0122        191
  21.0493        196
  21.0865        205
  21.1236        219
  21.1608        248
  21.1979        282
  21.2351        324
  21.2722        324
  21.3094        326
  21.3465        507
  21.3837        422
  21.4208        340
  21.4580        231
  21.4951        205
  21.5323        209
  21.5694        224
  21.6066        208
  21.6437        209
  21.6809        208
  21.7180        194
  21.7552        185
  21.7923        225
  21.8295        182
  21.8666        193
  21.9038        194
  21.9409        179
  21.9781        170
  22.0152        195
  22.0524        196
  22.0896        201
  22.1267        187
  22.1639        206
  22.2010        203
  22.2382        188
  22.2753        202
  22.3125        201
  22.3496        173
  22.3868        210
  22.4239        201
  22.4611        189
  22.4982        186
  22.5354        207
  22.5725        184
  22.6097        206
  22.6468        177
  22.6840        192
  22.7211        195
  22.7583        204
  22.7954        196
  22.8326        183
  22.8697        203
  22.9069        210
  22.9440        217
  22.9812        192
  23.0183        207
  23.0555        217
  23.0926        194
  23.1298        198
  23.1669        210
  23.2041        189
  23.2412        213
  23.2784        182
  23.3155        186
  23.3527        197
  23.3898        186
  23.4270        203
  23.4641        178
  23.5013        212
  23.5384        183
  23.5756        200
  23.6128        212
  23.6499        206
  23.6871        201
  23.7242        229
  23.7614        233
  23.7985        200
  23.8357        197
  23.8728        182
  23.9100        188
  23.9471        225
  23.9843        224
  24.0214        232
  24.0586        221
  24.0957        197
  24.1329        217
  24.1700        224
  24.2072        175
  24.2443        221
  24.2815        229
  24.3186        235
  24.3558        225
  24.3929        204
  24.4301        230
  24.4672        217
  24.5044        199
  24.5415        212
  24.5787        213
  24.6158        222
  24.6530        197
  24.6901        207
  24.7273        181
  24.7644        218
  24.8016        203
  24.8387        214
  24.8759        208
  24.9130        219
  24.9502        204
  24.9873        183
  25.0245        179
  25.0616        216
  25.0988        199
  25.1360        201
  25.1731        202
  25.2103        192
  25.2474        198
  25.2846        223
  25.3217        165
  25.3589        204
  25.3960        200
  25.4332        182
  25.4703        186
  25.5075        200
  25.5446        199
  25.5818        204
  25.6189        206
  25.6561        199
  25.6932        194
  25.7304        212
  25.7675        180
  25.8047        223
  25.8418        209
  25.8790        203
  25.9161        203
  25.9533        208
  25.9904        189
  26.0276        185
  26.0647        202
  26.1019        200
  26.1390        184
  26.1762        198
  26.2133        199
  26.2505        189
  26.2876        186
  26.3248        190
  26.3619        190
  26.3991        203
  26.4362        184
  26.4734        205
  26.5105        185
  26.5477        191
  26.5848        188
  26.6220        193
  26.6591        195
  26.6963        180
  26.7335        190
  26.7706        192
  26.8078        198
  26.8449        195
  26.8821        203
  26.9192        183
  26.9564        185
  26.9935        210
  27.0307        177
  27.0678        187
  27.1050        207
  27.1421        200
  27.1793        246
  27.2164        237
  27.2536        240
  27.2907        225
  27.3279        189
  27.3650        183
  27.4022        190
  27.4393        194
  27.4765        187
  27.5136        172
  27.5508        175
  27.5879        187
  27.6251        179
  27.6622        177
  27.6994        165
  27.7365        189
  27.7737        186
  27.8108        170
  27.8480        182
  27.8851        186
  27.9223        183
  27.9594        168
  27.9966        188
  28.0337        178
  28.0709        170
  28.1080        164
  28.1452        166
  28.1823        174
  28.2195        147
  28.2567        162
  28.2938        155
  28.3310        159
  28.3681        170
  28.4053        177
  28.4424        149
  28.4796        174
  28.5167        175
  28.5539        155
  28.5910        155
  28.6282        179
  28.6653        171
  28.7025        195
  28.7396        165
  28.7768        163
  28.8139        161
  28.8511        159
  28.8882        165
  28.9254        163
  28.9625        182
  28.9997        164
  29.0368        187
  29.0740        189
  29.1111        169
  29.1483        186
  29.1854        157
  29.2226        154
  29.2597        170
  29.2969        155
  29.3340        156
  29.3712        174
  29.4083        153
  29.4455        167
  29.4826        143
  29.5198        172
  29.5569        138
  29.5941        144
  29.6312        169
  29.6684        147
  29.7055        171
  29.7427        148
  29.7799        171
  29.8170        168
  29.8542        179
  29.8913        172
  29.9285        158
  29.9656        172
  30.0028        152
  30.0399        137
  30.0771        167
  30.1142        149
  30.1514        185
  30.1885        162
  30.2257        133
  30.2628        144
  30.3000        184
  30.3371        224
  30.3743        347
  30.4114        274
  30.4486        234
  30.4857        218
  30.5229        181
  30.5600        148
  30.5972        188
  30.6343        138
  30.6715        177
  30.7086        159
  30.7458        153
  30.7829        144
  30.8201        153
  30.8572        149
  30.8944        136
  30.9315        137
  30.9687        154
  31.0058        141
  31.0430        145
  31.0801        154
  31.1173        166
  31.1544        127
  31.1916        141
  31.2287        151
  31.2659        145
  31.3030        128
  31.3402        150
  31.3774        149
  31.4145        134
  31.4517        139
  31.4888        129
  31.5260        145
  31.5631        131
  31.6003        112
  31.6374        161
  31.6746        117
  31.7117        140
  31.7489        135
  31.7860        131
  31.8232        156
  31.8603        143
  31.8975        140
  31.9346        129
  31.9718        149
  32.0089        132
  32.0461        146
  32.0832        119
  32.1204        137
  32.1575        145
  32.1947        138
  32.2318        130
  32.2690        130
  32.3061        140
  32.3433        133
  32.3804        130
  32.4176        148
  32.4547        147
  32.4919        155
  32.5290        151
  32.5662        168
  32.6033        123
  32.6405        133
  32.6776        140
  32.7148        134
  32.7519        132
  32.7891        118
  32.8262        159
  32.8634        130
  32.9006        128
  32.9377        129
  32.9749        128
  33.0120        132
  33.0492        119
  33.0863        127
  33.1235        112
  33.1606        128
  33.1978        120
  33.2349        141
  33.2721        143
  33.3092        137
  33.3464        133
  33.3835        126
  33.4207        116
  33.4578        102
  33.4950        137
  33.5321         96
  33.5693        128
  33.6064        137
  33.6436        104
  33.6807        146
  33.7179        120
  33.7550        148
  33.7922        109
  33.8293        107
  33.8665        124
  33.9036        122
  33.9408        127
  33.9779        134
  34.0151        100
  34.0522        126
  34.0894        116
  34.1265        123
  34.1637        118
  34.2008        105
  34.2380        120
  34.2751        114
  34.3123        113
  34.3494        135
  34.3866        115
  34.4238        132
  34.4609         98
  34.4981        109
  34.5352        124
  34.5724        137
  34.6095        116
  34.6467        122
  34.6838        129
  34.7210        146
  34.7581        177
  34.7953        134
  34.8324        143
  34.8696        134
  34.9067        135
  34.9439        121
  34.9810        123
  35.0182        104
  35.0553        133
  35.0925        111
  35.1296         99
  35.1668        104
  35.2039        105
  35.2411        111
  35.2782        103
  35.3154        105
  35.3525        109
  35.3897         99
  35.4268        108
  35.4640         91
  35.5011         97
  35.5383        111
  35.5754         99
  35.6126         97
  35.6497         98
  35.6869         92
  35.7240        115
  35.7612         85
  35.7983        105
  35.8355        104
  35.8726         95
  35.9098        106
  35.9469        110
  35.9841         94
  36.0213        115
  36.0584         89
  36.0956        112
  36.1327         94
  36.1699         98
  36.2070        106
  36.2442        105
  36.2813         90
  36.3185        104
  36.3556         87
  36.3928         99
  36.4299        102
  36.4671        109
  36.5042        101
  36.5414         90
  36.5785         84
  36.6157         94
  36.6528        101
  36.6900         99
  36.7271         87
  36.7643        103
  36.8014         85
  36.8386        126
  36.8757         84
  36.9129         82
  36.9500         95
  36.9872         96
  37.0243        113
  37.0615         96
  37.0986         95
  37.1358         80
  37.1729        115
  37.2101        106
  37.2472         86
  37.2844         94
  37.3215         77
  37.3587        103
  37.3958        122
  37.4330        151
  37.4701        143
  37.5073         96
  37.5445        124
  37.5816        101
  37.6188         81
  37.6559         92
  37.6931         84
  37.7302         87
  37.7674         88
  37.8045        100
  37.8417         91
  37.8788         78
  37.9160         90
  37.9531         90
  37.9903         93
  38.0274         87
  38.0646         77
  38.1017         83
  38.1389         75
  38.1760         91
  38.2132         91
  38.2503         85
  38.2875         70
  38.3246         75
  38.3618         75
  38.3989         95
  38.4361         87
  38.4732         95
  38.5104         83
  38.5475         76
  38.5847        103
  38.6218         99
  38.6590         60
  38.6961         90
  38.7333         67
  38.7704         89
  38.8076         77
  38.8447         79
  38.8819         99
  38.9190         88
  38.9562         92
  38.9933         99
  39.0305         84
  39.0677         90
  39.1048         77
  39.1420         84
  39.1791         88
  39.2163         85
  39.2534         87
  39.2906         62
  39.3277         70
  39.3649         87
  39.4020         96
  39.4392         90
  39.4763         82
  39.5135         75
  39.5506         81
  39.5878         87
  39.6249         86
  39.6621         73
  39.6992         65
  39.7364         85
  39.7735         77
  39.8107         91
  39.8478         83
  39.8850         88
  39.9221         89
  39.9593         80
  39.9964         91
  40.0336         70
  40.0707         90
  40.1079         80
  40.1450         71
  40.1822         76
  40.2193         72
  40.2565         62
  40.2936         89
  40.3308         69
  40.3679         78
  40.4051         83
  40.4422         69
  40.4794         79
  40.5165         75
  40.5537         78
  40.5908         83
  40.6280         83
  40.6652         85
  40.7023         86
  40.7395         85
  40.7766         88
  40.8138         82
  40.8509         82
  40.8881         70
  40.9252         77
  40.9624         73
  40.9995         78
  41.0367         89
  41.0738         81
  41.1110         81
  41.1481         75
  41.1853         85
  41.2224         71
  41.2596         66
  41.2967         74
  41.3339         83
  41.3710         72
  41.4082         71
  41.4453         68
  41.4825         76
  41.5196         59
  41.5568         73
  41.5939         85
  41.6311         74
  41.6682         72
  41.7054         69
  41.7425         84
  41.7797         72
  41.8168         82
  41.8540         70
  41.8911         57
  41.9283         76
  41.9654         74
  42.0026         72
  42.0397         72
  42.0769         81
  42.1140         78
  42.1512         69
  42.1884         79
  42.2255         69
  42.2627         83
  42.2998         67
  42.3370         76
  42.3741         59
  42.4113         90
  42.4484         61
  42.4856         70
  42.5227         68
  42.5599         75
  42.5970         68
  42.6342         81
  42.6713         78
  42.7085         73
  42.7456         68
  42.7828         72
  42.8199         46
  42.8571         73
  42.8942         72
  42.9314         68
  42.9685         75
  43.0057         97
  43.0428         64
  43.0800         79
  43.1171         80
  43.1543         74
  43.1914         82
  43.2286         80
  43.2657         77
  43.3029         77
  43.3400         83
  43.3772         83
  43.4143         77
  43.4515         90
  43.4886        111
  43.5258        149
  43.5629         77
  43.6001         97
  43.6372        104
  43.6744         81
  43.7116         83
  43.7487         73
  43.7859         88
  43.8230         84
  43.8602         84
  43.8973         84
  43.9345         93
  43.9716         60
  44.0088         86
  44.0459         76
  44.0831         68
  44.1202         69
  44.1574         78
  44.1945         76
  44.2317         71
  44.2688         74
  44.3060         85
  44.3431         72
  44.3803         67
  44.4174         80
  44.4546         61
  44.4917         67
  44.5289         81
  44.5660         87
  44.6032         79
  44.6403         81
  44.6775         80
  44.7146         86
  44.7518         76
  44.7889         69
  44.8261         75
  44.8632         67
  44.9004         86
  44.9375         67
  44.9747         70
  45.0118         67
  45.0490         66
  45.0861         69
  45.1233         69
  45.1604         73
  45.1976         73
  45.2347         81
  45.2719         66
  45.3091         70
  45.3462         63
  45.3834         74
  45.4205         59
  45.4577         63
  45.4948         65
  45.5320         83
  45.5691         63
  45.6063         68
  45.6434         70
  45.6806         68
  45.7177         68
  45.7549         57
  45.7920         57
  45.8292         72
  45.8663         68
  45.9035         70
  45.9406         61
  45.9778         71
  46.0149         68
  46.0521         62
  46.0892         61
  46.1264         72
  46.1635         68
  46.2007         84
  46.2378         82
  46.2750         71
  46.3121         62
  46.3493         63
  46.3864         58
  46.4236         53
  46.4607         59
  46.4979         59
  46.5350         79
  46.5722         60
  46.6093         61
  46.6465         70
  46.6836         82
  46.7208         78
  46.7579         63
  46.7951         65
  46.8323         66
  46.8694         57
  46.9066         71
  46.9437         60
  46.9809         74
  47.0180         54
  47.0552         67
  47.0923         62
  47.1295         67
  47.1666         54
  47.2038         52
  47.2409         70
  47.2781         69
  47.3152         67
  47.3524         65
  47.3895         65
  47.4267         54
  47.4638         61
  47.5010         64
  47.5381         65
  47.5753         52
  47.6124         60
  47.6496         72
  47.6867         87
  47.7239         71
  47.7610         69
  47.7982         61
  47.8353         42
  47.8725         63
  47.9096         70
  47.9468         59
  47.9839         62
  48.0211         69
  48.0582         70
  48.0954         65
  48.1325         76
  48.1697         60
  48.2068         58
  48.2440         58
  48.2811         73
  48.3183         60
  48.3555         71
  48.3926         60
  48.4298         56
  48.4669         64
  48.5041         80
  48.5412         73
  48.5784         59
  48.6155         57
  48.6527         66
  48.6898         58
  48.7270         62
  48.7641         70
  48.8013         60
  48.8384         70
  48.8756         94
  48.9127         74
  48.9499        122
  48.9870        101
  49.0242         82
  49.0613         87
  49.0985        103
  49.1356         91
  49.1728         62
  49.2099         75
  49.2471         54
  49.2842         60
  49.3214         54
  49.3585         52
  49.3957         64
  49.4328         65
  49.4700         72
  49.5071         59
  49.5443         70
  49.5814         56
  49.6186         70
  49.6557         63
  49.6929         68
  49.7300         68
  49.7672         67
  49.8043         65
  49.8415         70
  49.8786         63
  49.9158         59
  49.9530         63
  49.9901         67
  50.0273         57
  50.0644         65
  50.1016         53
  50.1387         57
  50.1759         70
  50.2130         86
  50.2502         65
  50.2873         71
  50.3245         64
  50.3616         61
  50.3988         63
  50.4359         63
  50.4731         59
  50.5102         59
  50.5474         53
  50.5845         60
  50.6217         62
  50.6588         66
  50.6960         55
  50.7331         63
  50.7703         64
  50.8074         60
  50.8446         68
  50.8817         62
  50.9189         54
  50.9560         61
  50.9932         65
  51.0303         55
  51.0675         60
  51.1046         55
  51.1418         61
  51.1789         63
  51.2161         73
  51.2532         71
  51.2904         59
  51.3275         72
  51.3647         64
  51.4018         74
  51.4390         71
  51.4762         61
  51.5133         70
  51.5505         66
  51.5876         60
  51.6248         64
  51.6619         66
  51.6991         53
  51.7362         50
  51.7734         56
  51.8105         68
  51.8477         71
  51.8848         68
  51.9220         69
  51.9591         72
  51.9963         67
  52.0334         49
  52.0706         61
  52.1077         49
  52.1449         77
  52.1820         44
  52.2192         69
  52.2563         60
  52.2935         62
  52.3306         60
  52.3678         60
  52.4049         55
  52.4421         52
  52.4792         62
  52.5164         62
  52.5535         53
  52.5907         39
  52.6278         53
  52.6650         50
  52.7021         56
  52.7393         53
  52.7764         67
  52.8136         68
  52.8507         59
  52.8879         62
  52.9250         69
  52.9622         64
  52.9994         56
  53.0365         69
  53.0737         69
  53.1108         54
  53.1480         63
  53.1851         65
  53.2223         44
  53.2594         56
  53.2966         57
  53.3337         52
  53.3709         73
  53.4080         68
  53.4452         52
  53.4823         67
  53.5195         54
  53.5566         58
  53.5938         54
  53.6309         61
  53.6681         60
  53.7052         59
  53.7424         55
  53.7795         53
  53.8167         57
  53.8538         61
  53.8910         60
  53.9281         69
  53.9653         70
  54.0024        105
  54.0396         83
  54.0767         58
  54.1139         68
  54.1510         72
  54.1882         69
  54.2253         59
  54.2625         59
  54.2996         52
  54.3368         56
  54.3739         60
  54.4111         62
  54.4482         47
  54.4854         57
  54.5225         51
  54.5597         57
  54.5969         48
  54.6340         63
  54.6712         57
  54.7083         62
  54.7455         41
  54.7826         68
  54.8198         54
  54.8569         51
  54.8941         69
  54.9312         67
  54.9684         56
  55.0055         53
  55.0427         67
  55.0798         39
  55.1170         61
  55.1541         60
  55.1913         57
  55.2284         58
  55.2656         43
  55.3027         59
  55.3399         49
  55.3770         42
  55.4142         57
  55.4513         45
  55.4885         60
  55.5256         46
  55.5628         57
  55.5999         42
  55.6371         59
  55.6742         51
  55.7114         59
  55.7485         49
  55.7857         61
  55.8228         53
  55.8600         65
  55.8971         49
  55.9343         74
  55.9714         53
  56.0086         57
  56.0457         52
  56.0829         64
  56.1201         60
  56.1572         54
  56.1944         57
  56.2315         59
  56.2687         59
  56.3058         63
  56.3430         69
  56.3801         59
  56.4173         64
  56.4544         60
  56.4916         60
  56.5287         54
  56.5659         53
  56.6030         52
  56.6402         43
  56.6773         65
  56.7145         42
  56.7516         49
  56.7888         64
  56.8259         62
  56.8631         63
  56.9002         61
  56.9374         46
  56.9745         51
  57.0117         55
  57.0488         58
  57.0860         50
  57.1231         45
  57.1603         60
  57.1974         51
  57.2346         52
  57.2717         62
  57.3089         64
  57.3460         45
  57.3832         45
  57.4203         59
  57.4575         56
  57.4946         59
  57.5318         52
  57.5689         55
  57.6061         63
  57.6433         50
  57.6804         69
  57.7176         64
  57.7547         73
  57.7919         64
  57.8290         56
  57.8662         61
  57.9033         62
  57.9405         46
  57.9776         48
  58.0148         53
  58.0519         47
  58.0891         54
  58.1262         64
  58.1634         68
  58.2005         55
  58.2377         54
  58.2748         60
  58.3120         67
  58.3491         58
  58.3863         62
  58.4234         60
  58.4606         61
  58.4977         47
  58.5349         36
  58.5720         52
  58.6092         55
  58.6463         47
  58.6835         54
  58.7206         60
  58.7578         67
  58.7949         54
  58.8321         51
  58.8692         48
  58.9064         58
  58.9435         64
  58.9807         61
  59.0178         55
  59.0550         49
  59.0921         49
  59.1293         51
  59.1664         59
  59.2036         63
  59.2408         45
  59.2779         51
  59.3151         70
  59.3522         50
  59.3894         53
  59.4265         50
  59.4637         48
  59.5008         50
  59.5380         52
  59.5751         54
  59.6123         60
  59.6494         59
  59.6866         52
  59.7237         55
  59.7609         59
  59.7980         44
  59.8352         48
  59.8723         54
  59.9095         53
  59.9466         53
  59.9838         49
  60.0024         52