File: notebooks/data/xrd_data/ML_20220718_47_SJD_4_LaB6-2min.uxd
; (content of file Y:\Sam\Apurva-07-20-2022\puck4\ML_20220718_47_SJD_4_LaB6-2min.raw)
_FILEVERSION = 3
_SAMPLE = ML_20220718_47_SJD_4_LaB6-2min
_+SAMPLE =
_SITE = USA
_USER = Administrator
_GONIOMETER_CODE = 20
; Goniometer : D8 theta/2theta, stage : Unknown
_ATTACHMENTS_CODE = 0
_GONIOMETER_RADIUS = 200.5
_FIXED_DIVSLIT = 0.6
_FIXED_SAMPLESLIT = 0
_SOLLER_SLITS = 2
_FIXED_DETSLIT = 9.55
_MONOCHROMATOR = 0
; Incident beam monochromator : None
_SOLLER_SLITS_2 = N
_THIN_FILM = N
_BETA_FILTER = Y
_FIXED_ANTISLIT = 5.89
_ANALYZER_CODE = 0
; Received beam analyzer : None
_DATEMEASURED = "26-Jul-2022 12:20:28"
_WL_UNIT = A
_WL1 = 1.5406
_WL2 = 1.54439
_WL3 = 1.39222
_WLRATIO = 0.5
_ANODE = Cu
_V4_INF_CREATOR = XRDWizard
_V4_INF_CREATOR_VERSION = V2.9.0.22
_V4_INF_WIZARD_VERSION = V2.9.0.22
_V4_INF_WIZARD_ADDINS = V2.9.0.22
_V4_INF_WIZARD_DOCTYPE = XRD
_V4_INF_OSUSER = McQueenLab
_V4_INF_USER = Administrator
_V4_INF_SITE = USA
_V4_INF_SAMPLEID = ML_20220718_47_SJD_4_LaB6-2min

; Data for range 1
_DRIVE = COUPLED
_STEPTIME = 5.64
_STEPSIZE = 0.0185756
_STEPMODE = C
_START = 5
_THETA = 2.5
_2THETA = 5
_KHI = 0
_PHI = 0
_X = 0
_Y = 0
_Z = 0
_DETECTOR = 5
; Detector type : Unknown
_DETECTORSLIT = unkn
_AUX1 = 0
_AUX2 = 0
_AUX3 = 0
_TIMESTARTED = 15
_TEMP_RATE = -1
_TEMP_DELAY = -1
_KV = 40
_MA = 40
_RANGE_WL = 1.5406
_3DPLANE = 0
_V4_ADDITIONALDETECTOR = 257
_V4_PSD2THETA = 3.4089
_V4_PSDCHANNEL1 = 0
_V4_PSDAPERTURE = 12.68
_V4_PSDTYPE = 5
_V4_PSDFIXED = 0
_V4_COUNTERS_MASK = 4096
_V4_DRIVES_MASK = 0
_V4_ENCODERS_MASK = 0
_2THETACOUNTS = 1
; 2THETA  PSD
   5.0000        140
   5.0372        124
   5.0743        109
   5.1115        129
   5.1486        117
   5.1858        110
   5.2229        121
   5.2601        114
   5.2972         88
   5.3344        137
   5.3715        109
   5.4087        119
   5.4458        127
   5.4830        100
   5.5201        112
   5.5573        105
   5.5944        120
   5.6316        103
   5.6687        104
   5.7059         92
   5.7430         93
   5.7802        113
   5.8173         95
   5.8545        104
   5.8916        129
   5.9288         95
   5.9659         87
   6.0031         98
   6.0402         91
   6.0774         90
   6.1145         92
   6.1517         93
   6.1888         83
   6.2260         76
   6.2631         94
   6.3003         98
   6.3374         83
   6.3746         96
   6.4117         84
   6.4489         94
   6.4860        107
   6.5232         74
   6.5604         82
   6.5975         85
   6.6347         88
   6.6718         98
   6.7090         93
   6.7461         78
   6.7833         67
   6.8204         76
   6.8576         77
   6.8947         91
   6.9319         88
   6.9690         79
   7.0062         83
   7.0433         82
   7.0805         91
   7.1176         57
   7.1548         83
   7.1919         74
   7.2291         85
   7.2662         73
   7.3034         71
   7.3405         89
   7.3777         91
   7.4148         73
   7.4520         93
   7.4891         81
   7.5263         77
   7.5634        110
   7.6006         81
   7.6377         78
   7.6749        115
   7.7120         91
   7.7492         87
   7.7863         96
   7.8235         98
   7.8606         92
   7.8978         92
   7.9349         84
   7.9721         90
   8.0092         93
   8.0464         68
   8.0835        101
   8.1207         97
   8.1579         76
   8.1950         99
   8.2322         89
   8.2693         91
   8.3065        101
   8.3436        105
   8.3808        100
   8.4179        100
   8.4551         96
   8.4922        113
   8.5294         90
   8.5665         93
   8.6037         93
   8.6408         99
   8.6780        107
   8.7151        114
   8.7523        107
   8.7894        110
   8.8266         88
   8.8637         97
   8.9009        102
   8.9380        103
   8.9752         99
   9.0123         91
   9.0495        108
   9.0866         93
   9.1238        113
   9.1609         98
   9.1981        109
   9.2352         91
   9.2724        111
   9.3095        117
   9.3467        105
   9.3838        123
   9.4210        109
   9.4581        108
   9.4953        106
   9.5324        102
   9.5696        104
   9.6067        109
   9.6439        116
   9.6811         98
   9.7182        116
   9.7554        118
   9.7925        110
   9.8297        115
   9.8668         98
   9.9040        118
   9.9411        109
   9.9783        127
  10.0154        127
  10.0526        113
  10.0897        106
  10.1269        124
  10.1640        124
  10.2012        120
  10.2383        113
  10.2755        126
  10.3126        128
  10.3498        121
  10.3869        113
  10.4241        102
  10.4612        139
  10.4984        110
  10.5355        124
  10.5727        100
  10.6098        110
  10.6470        139
  10.6841        113
  10.7213        115
  10.7584        118
  10.7956        113
  10.8327        115
  10.8699        105
  10.9070        107
  10.9442        113
  10.9813        134
  11.0185        127
  11.0556        131
  11.0928        123
  11.1299        120
  11.1671        112
  11.2043        112
  11.2414        130
  11.2786        109
  11.3157        113
  11.3529        101
  11.3900        119
  11.4272        108
  11.4643         91
  11.5015        102
  11.5386        125
  11.5758        121
  11.6129        115
  11.6501        126
  11.6872        133
  11.7244        117
  11.7615        120
  11.7987        121
  11.8358        121
  11.8730        116
  11.9101        115
  11.9473        127
  11.9844        133
  12.0216        114
  12.0587        106
  12.0959        114
  12.1330        111
  12.1702        116
  12.2073        116
  12.2445        111
  12.2816         89
  12.3188        111
  12.3559        102
  12.3931        128
  12.4302         91
  12.4674        119
  12.5045        108
  12.5417        112
  12.5788        110
  12.6160        105
  12.6531        115
  12.6903        114
  12.7274         89
  12.7646        120
  12.8018        108
  12.8389         94
  12.8761        102
  12.9132        104
  12.9504        103
  12.9875        104
  13.0247        102
  13.0618         92
  13.0990         91
  13.1361        117
  13.1733        100
  13.2104         95
  13.2476        115
  13.2847        104
  13.3219        106
  13.3590         94
  13.3962         85
  13.4333         93
  13.4705         83
  13.5076        113
  13.5448        108
  13.5819         94
  13.6191         95
  13.6562         96
  13.6934         85
  13.7305         99
  13.7677        100
  13.8048        106
  13.8420        109
  13.8791         74
  13.9163         86
  13.9534         99
  13.9906         76
  14.0277         98
  14.0649         98
  14.1020         87
  14.1392        101
  14.1763         96
  14.2135         92
  14.2506         87
  14.2878         73
  14.3250         68
  14.3621         86
  14.3993         70
  14.4364         84
  14.4736         80
  14.5107         92
  14.5479         98
  14.5850         81
  14.6222         84
  14.6593         86
  14.6965         95
  14.7336         77
  14.7708         79
  14.8079         72
  14.8451         80
  14.8822         93
  14.9194         87
  14.9565         79
  14.9937         91
  15.0308         87
  15.0680         72
  15.1051        104
  15.1423         86
  15.1794         97
  15.2166         83
  15.2537         99
  15.2909         85
  15.3280         83
  15.3652         89
  15.4023         82
  15.4395         83
  15.4766         71
  15.5138         97
  15.5509         74
  15.5881         90
  15.6252         78
  15.6624        102
  15.6995         75
  15.7367         89
  15.7738         80
  15.8110         93
  15.8482         82
  15.8853         68
  15.9225         80
  15.9596         78
  15.9968         84
  16.0339         91
  16.0711         93
  16.1082         79
  16.1454         72
  16.1825         85
  16.2197         78
  16.2568         65
  16.2940         76
  16.3311         85
  16.3683         80
  16.4054         75
  16.4426         76
  16.4797         86
  16.5169         72
  16.5540         69
  16.5912         84
  16.6283         80
  16.6655         86
  16.7026         79
  16.7398         63
  16.7769         88
  16.8141         83
  16.8512         93
  16.8884         80
  16.9255         68
  16.9627         72
  16.9998         61
  17.0370         68
  17.0741         96
  17.1113         80
  17.1484         77
  17.1856         75
  17.2227         91
  17.2599         94
  17.2970         86
  17.3342         61
  17.3713         89
  17.4085         65
  17.4457         75
  17.4828         88
  17.5200         81
  17.5571         77
  17.5943         85
  17.6314         97
  17.6686         78
  17.7057         91
  17.7429         67
  17.7800         90
  17.8172         69
  17.8543         86
  17.8915         84
  17.9286         68
  17.9658         78
  18.0029         77
  18.0401         84
  18.0772         88
  18.1144         89
  18.1515         89
  18.1887         91
  18.2258         94
  18.2630         97
  18.3001         83
  18.3373         73
  18.3744         62
  18.4116         62
  18.4487         73
  18.4859         76
  18.5230         77
  18.5602         72
  18.5973         90
  18.6345         80
  18.6716         96
  18.7088         99
  18.7459         95
  18.7831         85
  18.8202         89
  18.8574         76
  18.8945         76
  18.9317         73
  18.9689         97
  19.0060         95
  19.0432         97
  19.0803         72
  19.1175         69
  19.1546         87
  19.1918         87
  19.2289         69
  19.2661         78
  19.3032        103
  19.3404         88
  19.3775         93
  19.4147         89
  19.4518         90
  19.4890         79
  19.5261         89
  19.5633         92
  19.6004         87
  19.6376         88
  19.6747         94
  19.7119         82
  19.7490         84
  19.7862         96
  19.8233         75
  19.8605         74
  19.8976         98
  19.9348         79
  19.9719         79
  20.0091         94
  20.0462         91
  20.0834         82
  20.1205         90
  20.1577        106
  20.1948         88
  20.2320        106
  20.2691         87
  20.3063         95
  20.3434         96
  20.3806         81
  20.4177         80
  20.4549         91
  20.4921         94
  20.5292         77
  20.5664         88
  20.6035         86
  20.6407         77
  20.6778         90
  20.7150        102
  20.7521        116
  20.7893         98
  20.8264         94
  20.8636        105
  20.9007        111
  20.9379        105
  20.9750         96
  21.0122        100
  21.0493         96
  21.0865        123
  21.1236        108
  21.1608        109
  21.1979        123
  21.2351        149
  21.2722        150
  21.3094        136
  21.3465        222
  21.3837        209
  21.4208        166
  21.4580        127
  21.4951        102
  21.5323         91
  21.5694         88
  21.6066        103
  21.6437         90
  21.6809         95
  21.7180         82
  21.7552        101
  21.7923        110
  21.8295         83
  21.8666         83
  21.9038         91
  21.9409         82
  21.9781        102
  22.0152        104
  22.0524         98
  22.0896         93
  22.1267        107
  22.1639        114
  22.2010        102
  22.2382         92
  22.2753        117
  22.3125        115
  22.3496        113
  22.3868        106
  22.4239         96
  22.4611         93
  22.4982         91
  22.5354         88
  22.5725        126
  22.6097        100
  22.6468        104
  22.6840         91
  22.7211         88
  22.7583         76
  22.7954         91
  22.8326        102
  22.8697        107
  22.9069        104
  22.9440        102
  22.9812        110
  23.0183         90
  23.0555        110
  23.0926        103
  23.1298         84
  23.1669         99
  23.2041        113
  23.2412         99
  23.2784         85
  23.3155        105
  23.3527         84
  23.3898         78
  23.4270        102
  23.4641         92
  23.5013        113
  23.5384         96
  23.5756         85
  23.6128         86
  23.6499        101
  23.6871        111
  23.7242         98
  23.7614         90
  23.7985        105
  23.8357         96
  23.8728         98
  23.9100        108
  23.9471         92
  23.9843        107
  24.0214         91
  24.0586         93
  24.0957        113
  24.1329         97
  24.1700        113
  24.2072        104
  24.2443        107
  24.2815        126
  24.3186        125
  24.3558        111
  24.3929        106
  24.4301        105
  24.4672         97
  24.5044        110
  24.5415         81
  24.5787         96
  24.6158         97
  24.6530        106
  24.6901         96
  24.7273         86
  24.7644        101
  24.8016        100
  24.8387         96
  24.8759         98
  24.9130        121
  24.9502         83
  24.9873        102
  25.0245        101
  25.0616         94
  25.0988         93
  25.1360         92
  25.1731         93
  25.2103        108
  25.2474         90
  25.2846        104
  25.3217        102
  25.3589        101
  25.3960        127
  25.4332         92
  25.4703         92
  25.5075         95
  25.5446         86
  25.5818        101
  25.6189        106
  25.6561         98
  25.6932         92
  25.7304         85
  25.7675        110
  25.8047        108
  25.8418         79
  25.8790         92
  25.9161         94
  25.9533        107
  25.9904         98
  26.0276         99
  26.0647         81
  26.1019         91
  26.1390         78
  26.1762         86
  26.2133         86
  26.2505         98
  26.2876         93
  26.3248         82
  26.3619        109
  26.3991         97
  26.4362         82
  26.4734         91
  26.5105        103
  26.5477         84
  26.5848         98
  26.6220         85
  26.6591        101
  26.6963         87
  26.7335         89
  26.7706         88
  26.8078         88
  26.8449         86
  26.8821         85
  26.9192        104
  26.9564        108
  26.9935         87
  27.0307         88
  27.0678        106
  27.1050         97
  27.1421        115
  27.1793        119
  27.2164        121
  27.2536        104
  27.2907        109
  27.3279         83
  27.3650         99
  27.4022         84
  27.4393         83
  27.4765        101
  27.5136         98
  27.5508         86
  27.5879         87
  27.6251         89
  27.6622         99
  27.6994         98
  27.7365         93
  27.7737         91
  27.8108         93
  27.8480         91
  27.8851         90
  27.9223         82
  27.9594         73
  27.9966         89
  28.0337         76
  28.0709         90
  28.1080         92
  28.1452         78
  28.1823         89
  28.2195         82
  28.2567         75
  28.2938         97
  28.3310         95
  28.3681         95
  28.4053         95
  28.4424         86
  28.4796         76
  28.5167         85
  28.5539         80
  28.5910         79
  28.6282         78
  28.6653         91
  28.7025         67
  28.7396         88
  28.7768         90
  28.8139         73
  28.8511         68
  28.8882         80
  28.9254         82
  28.9625         79
  28.9997         97
  29.0368         77
  29.0740         87
  29.1111         85
  29.1483         65
  29.1854         59
  29.2226         84
  29.2597         77
  29.2969         78
  29.3340         78
  29.3712         65
  29.4083         73
  29.4455         73
  29.4826         74
  29.5198         88
  29.5569         83
  29.5941         69
  29.6312         91
  29.6684         70
  29.7055         83
  29.7427         69
  29.7799         74
  29.8170         84
  29.8542         59
  29.8913         85
  29.9285         84
  29.9656         70
  30.0028         81
  30.0399         72
  30.0771         84
  30.1142         68
  30.1514         80
  30.1885         65
  30.2257         72
  30.2628         80
  30.3000         84
  30.3371         88
  30.3743        137
  30.4114        163
  30.4486        131
  30.4857        125
  30.5229         90
  30.5600         82
  30.5972         72
  30.6343         74
  30.6715         66
  30.7086         69
  30.7458         72
  30.7829         86
  30.8201         65
  30.8572         69
  30.8944         78
  30.9315         77
  30.9687         67
  31.0058         63
  31.0430         50
  31.0801         82
  31.1173         61
  31.1544         69
  31.1916         85
  31.2287         89
  31.2659         63
  31.3030         48
  31.3402         63
  31.3774         70
  31.4145         69
  31.4517         77
  31.4888         73
  31.5260         71
  31.5631         68
  31.6003         68
  31.6374         68
  31.6746         52
  31.7117         56
  31.7489         80
  31.7860         69
  31.8232         72
  31.8603         59
  31.8975         69
  31.9346         64
  31.9718         59
  32.0089         69
  32.0461         72
  32.0832         66
  32.1204         55
  32.1575         64
  32.1947         59
  32.2318         52
  32.2690         70
  32.3061         62
  32.3433         40
  32.3804         70
  32.4176         54
  32.4547         75
  32.4919         79
  32.5290         76
  32.5662         74
  32.6033         79
  32.6405         71
  32.6776         70
  32.7148         57
  32.7519         67
  32.7891         76
  32.8262         61
  32.8634         62
  32.9006         50
  32.9377         57
  32.9749         78
  33.0120         61
  33.0492         80
  33.0863         61
  33.1235         51
  33.1606         53
  33.1978         46
  33.2349         65
  33.2721         66
  33.3092         66
  33.3464         68
  33.3835         59
  33.4207         71
  33.4578         51
  33.4950         59
  33.5321         57
  33.5693         47
  33.6064         61
  33.6436         61
  33.6807         49
  33.7179         56
  33.7550         50
  33.7922         60
  33.8293         69
  33.8665         51
  33.9036         56
  33.9408         54
  33.9779         47
  34.0151         49
  34.0522         63
  34.0894         55
  34.1265         50
  34.1637         61
  34.2008         53
  34.2380         46
  34.2751         42
  34.3123         52
  34.3494         58
  34.3866         54
  34.4238         62
  34.4609         60
  34.4981         63
  34.5352         53
  34.5724         53
  34.6095         66
  34.6467         58
  34.6838         70
  34.7210         78
  34.7581         80
  34.7953         86
  34.8324         72
  34.8696         83
  34.9067         67
  34.9439         56
  34.9810         61
  35.0182         73
  35.0553         55
  35.0925         60
  35.1296         59
  35.1668         66
  35.2039         55
  35.2411         46
  35.2782         62
  35.3154         46
  35.3525         70
  35.3897         64
  35.4268         49
  35.4640         50
  35.5011         49
  35.5383         68
  35.5754         41
  35.6126         57
  35.6497         49
  35.6869         55
  35.7240         48
  35.7612         46
  35.7983         39
  35.8355         52
  35.8726         52
  35.9098         60
  35.9469         43
  35.9841         48
  36.0213         45
  36.0584         50
  36.0956         46
  36.1327         49
  36.1699         51
  36.2070         55
  36.2442         54
  36.2813         40
  36.3185         46
  36.3556         61
  36.3928         35
  36.4299         44
  36.4671         41
  36.5042         44
  36.5414         50
  36.5785         34
  36.6157         58
  36.6528         48
  36.6900         32
  36.7271         44
  36.7643         55
  36.8014         51
  36.8386         43
  36.8757         50
  36.9129         46
  36.9500         51
  36.9872         45
  37.0243         47
  37.0615         39
  37.0986         52
  37.1358         47
  37.1729         54
  37.2101         39
  37.2472         50
  37.2844         46
  37.3215         49
  37.3587         34
  37.3958         48
  37.4330         70
  37.4701         64
  37.5073         59
  37.5445         63
  37.5816         52
  37.6188         49
  37.6559         45
  37.6931         40
  37.7302         29
  37.7674         31
  37.8045         46
  37.8417         53
  37.8788         48
  37.9160         40
  37.9531         49
  37.9903         52
  38.0274         48
  38.0646         38
  38.1017         42
  38.1389         38
  38.1760         40
  38.2132         45
  38.2503         33
  38.2875         44
  38.3246         39
  38.3618         43
  38.3989         31
  38.4361         47
  38.4732         37
  38.5104         36
  38.5475         46
  38.5847         35
  38.6218         39
  38.6590         44
  38.6961         41
  38.7333         38
  38.7704         43
  38.8076         35
  38.8447         53
  38.8819         55
  38.9190         36
  38.9562         34
  38.9933         35
  39.0305         49
  39.0677         39
  39.1048         43
  39.1420         44
  39.1791         41
  39.2163         42
  39.2534         34
  39.2906         34
  39.3277         39
  39.3649         48
  39.4020         39
  39.4392         36
  39.4763         34
  39.5135         39
  39.5506         38
  39.5878         39
  39.6249         36
  39.6621         25
  39.6992         40
  39.7364         42
  39.7735         43
  39.8107         33
  39.8478         41
  39.8850         48
  39.9221         40
  39.9593         28
  39.9964         42
  40.0336         48
  40.0707         42
  40.1079         34
  40.1450         40
  40.1822         44
  40.2193         38
  40.2565         48
  40.2936         41
  40.3308         35
  40.3679         40
  40.4051         37
  40.4422         29
  40.4794         32
  40.5165         33
  40.5537         32
  40.5908         36
  40.6280         36
  40.6652         34
  40.7023         43
  40.7395         52
  40.7766         45
  40.8138         41
  40.8509         38
  40.8881         36
  40.9252         32
  40.9624         40
  40.9995         38
  41.0367         37
  41.0738         34
  41.1110         40
  41.1481         34
  41.1853         36
  41.2224         38
  41.2596         35
  41.2967         33
  41.3339         42
  41.3710         32
  41.4082         42
  41.4453         27
  41.4825         34
  41.5196         35
  41.5568         40
  41.5939         40
  41.6311         29
  41.6682         41
  41.7054         35
  41.7425         38
  41.7797         43
  41.8168         41
  41.8540         25
  41.8911         41
  41.9283         41
  41.9654         25
  42.0026         33
  42.0397         47
  42.0769         23
  42.1140         32
  42.1512         33
  42.1884         34
  42.2255         39
  42.2627         26
  42.2998         30
  42.3370         35
  42.3741         35
  42.4113         35
  42.4484         35
  42.4856         39
  42.5227         39
  42.5599         39
  42.5970         32
  42.6342         31
  42.6713         35
  42.7085         32
  42.7456         40
  42.7828         34
  42.8199         45
  42.8571         21
  42.8942         33
  42.9314         36
  42.9685         32
  43.0057         42
  43.0428         47
  43.0800         39
  43.1171         44
  43.1543         33
  43.1914         39
  43.2286         46
  43.2657         43
  43.3029         46
  43.3400         43
  43.3772         46
  43.4143         37
  43.4515         34
  43.4886         72
  43.5258         58
  43.5629         44
  43.6001         57
  43.6372         51
  43.6744         43
  43.7116         42
  43.7487         35
  43.7859         43
  43.8230         33
  43.8602         38
  43.8973         36
  43.9345         32
  43.9716         47
  44.0088         39
  44.0459         29
  44.0831         30
  44.1202         32
  44.1574         46
  44.1945         43
  44.2317         35
  44.2688         29
  44.3060         49
  44.3431         27
  44.3803         28
  44.4174         30
  44.4546         35
  44.4917         33
  44.5289         39
  44.5660         33
  44.6032         42
  44.6403         39
  44.6775         34
  44.7146         49
  44.7518         33
  44.7889         37
  44.8261         33
  44.8632         41
  44.9004         35
  44.9375         36
  44.9747         34
  45.0118         38
  45.0490         43
  45.0861         33
  45.1233         34
  45.1604         43
  45.1976         36
  45.2347         33
  45.2719         39
  45.3091         46
  45.3462         42
  45.3834         43
  45.4205         30
  45.4577         43
  45.4948         35
  45.5320         43
  45.5691         30
  45.6063         33
  45.6434         30
  45.6806         35
  45.7177         38
  45.7549         36
  45.7920         35
  45.8292         36
  45.8663         39
  45.9035         38
  45.9406         28
  45.9778         40
  46.0149         47
  46.0521         30
  46.0892         31
  46.1264         32
  46.1635         37
  46.2007         36
  46.2378         38
  46.2750         26
  46.3121         26
  46.3493         44
  46.3864         26
  46.4236         45
  46.4607         37
  46.4979         24
  46.5350         28
  46.5722         24
  46.6093         28
  46.6465         27
  46.6836         34
  46.7208         39
  46.7579         27
  46.7951         30
  46.8323         34
  46.8694         36
  46.9066         29
  46.9437         33
  46.9809         38
  47.0180         36
  47.0552         51
  47.0923         32
  47.1295         37
  47.1666         40
  47.2038         32
  47.2409         31
  47.2781         36
  47.3152         40
  47.3524         34
  47.3895         39
  47.4267         27
  47.4638         24
  47.5010         34
  47.5381         33
  47.5753         29
  47.6124         35
  47.6496         23
  47.6867         31
  47.7239         27
  47.7610         35
  47.7982         32
  47.8353         24
  47.8725         29
  47.9096         28
  47.9468         28
  47.9839         19
  48.0211         40
  48.0582         38
  48.0954         25
  48.1325         35
  48.1697         41
  48.2068         33
  48.2440         32
  48.2811         25
  48.3183         32
  48.3555         35
  48.3926         29
  48.4298         37
  48.4669         30
  48.5041         35
  48.5412         27
  48.5784         32
  48.6155         32
  48.6527         35
  48.6898         32
  48.7270         28
  48.7641         27
  48.8013         35
  48.8384         32
  48.8756         33
  48.9127         33
  48.9499         57
  48.9870         43
  49.0242         39
  49.0613         30
  49.0985         46
  49.1356         42
  49.1728         27
  49.2099         32
  49.2471         34
  49.2842         34
  49.3214         25
  49.3585         40
  49.3957         33
  49.4328         32
  49.4700         18
  49.5071         28
  49.5443         33
  49.5814         29
  49.6186         39
  49.6557         25
  49.6929         30
  49.7300         23
  49.7672         30
  49.8043         28
  49.8415         29
  49.8786         24
  49.9158         31
  49.9530         28
  49.9901         35
  50.0273         35
  50.0644         34
  50.1016         21
  50.1387         36
  50.1759         33
  50.2130         34
  50.2502         36
  50.2873         31
  50.3245         33
  50.3616         36
  50.3988         29
  50.4359         31
  50.4731         25
  50.5102         25
  50.5474         26
  50.5845         25
  50.6217         34
  50.6588         25
  50.6960         30
  50.7331         27
  50.7703         31
  50.8074         25
  50.8446         33
  50.8817         39
  50.9189         20
  50.9560         31
  50.9932         28
  51.0303         25
  51.0675         37
  51.1046         32
  51.1418         32
  51.1789         25
  51.2161         34
  51.2532         32
  51.2904         25
  51.3275         31
  51.3647         33
  51.4018         34
  51.4390         38
  51.4762         34
  51.5133         39
  51.5505         37
  51.5876         52
  51.6248         23
  51.6619         27
  51.6991         34
  51.7362         37
  51.7734         30
  51.8105         36
  51.8477         38
  51.8848         34
  51.9220         40
  51.9591         28
  51.9963         27
  52.0334         33
  52.0706         32
  52.1077         28
  52.1449         30
  52.1820         25
  52.2192         36
  52.2563         25
  52.2935         24
  52.3306         33
  52.3678         27
  52.4049         33
  52.4421         36
  52.4792         23
  52.5164         26
  52.5535         29
  52.5907         31
  52.6278         32
  52.6650         36
  52.7021         29
  52.7393         31
  52.7764         36
  52.8136         28
  52.8507         29
  52.8879         28
  52.9250         33
  52.9622         36
  52.9994         39
  53.0365         32
  53.0737         31
  53.1108         24
  53.1480         28
  53.1851         22
  53.2223         33
  53.2594         31
  53.2966         28
  53.3337         17
  53.3709         25
  53.4080         33
  53.4452         35
  53.4823         33
  53.5195         24
  53.5566         22
  53.5938         24
  53.6309         24
  53.6681         26
  53.7052         31
  53.7424         33
  53.7795         30
  53.8167         31
  53.8538         20
  53.8910         22
  53.9281         34
  53.9653         36
  54.0024         48
  54.0396         35
  54.0767         29
  54.1139         28
  54.1510         38
  54.1882         30
  54.2253         32
  54.2625         28
  54.2996         28
  54.3368         25
  54.3739         30
  54.4111         38
  54.4482         22
  54.4854         29
  54.5225         33
  54.5597         31
  54.5969         21
  54.6340         24
  54.6712         24
  54.7083         36
  54.7455         34
  54.7826         32
  54.8198         31
  54.8569         30
  54.8941         21
  54.9312         28
  54.9684         28
  55.0055         26
  55.0427         38
  55.0798         23
  55.1170         28
  55.1541         19
  55.1913         31
  55.2284         20
  55.2656         25
  55.3027         27
  55.3399         23
  55.3770         25
  55.4142         24
  55.4513         35
  55.4885         33
  55.5256         28
  55.5628         22
  55.5999         33
  55.6371         26
  55.6742         28
  55.7114         30
  55.7485         30
  55.7857         35
  55.8228         34
  55.8600         31
  55.8971         29
  55.9343         32
  55.9714         41
  56.0086         30
  56.0457         29
  56.0829         29
  56.1201         35
  56.1572         27
  56.1944         42
  56.2315         42
  56.2687         23
  56.3058         21
  56.3430         28
  56.3801         21
  56.4173         28
  56.4544         29
  56.4916         30
  56.5287         23
  56.5659         22
  56.6030         16
  56.6402         27
  56.6773         29
  56.7145         38
  56.7516         30
  56.7888         22
  56.8259         31
  56.8631         30
  56.9002         21
  56.9374         43
  56.9745         26
  57.0117         26
  57.0488         29
  57.0860         26
  57.1231         27
  57.1603         23
  57.1974         18
  57.2346         28
  57.2717         20
  57.3089         32
  57.3460         27
  57.3832         32
  57.4203         23
  57.4575         21
  57.4946         23
  57.5318         18
  57.5689         27
  57.6061         29
  57.6433         29
  57.6804         38
  57.7176         25
  57.7547         34
  57.7919         26
  57.8290         34
  57.8662         37
  57.9033         26
  57.9405         30
  57.9776         34
  58.0148         34
  58.0519         25
  58.0891         29
  58.1262         31
  58.1634         31
  58.2005         21
  58.2377         22
  58.2748         33
  58.3120         28
  58.3491         32
  58.3863         25
  58.4234         25
  58.4606         23
  58.4977         26
  58.5349         27
  58.5720         25
  58.6092         36
  58.6463         18
  58.6835         21
  58.7206         35
  58.7578         35
  58.7949         29
  58.8321         30
  58.8692         26
  58.9064         30
  58.9435         27
  58.9807         34
  59.0178         41
  59.0550         32
  59.0921         25
  59.1293         28
  59.1664         27
  59.2036         26
  59.2408         29
  59.2779         25
  59.3151         25
  59.3522         28
  59.3894         36
  59.4265         26
  59.4637         34
  59.5008         25
  59.5380         30
  59.5751         25
  59.6123         29
  59.6494         24
  59.6866         20
  59.7237         39
  59.7609         18
  59.7980         25
  59.8352         23
  59.8723         31
  59.9095         25
  59.9466         19
  59.9838         36
  60.0024         30