File: notebooks/data/xrd_data/ML_20220718_58_SJD_4_LaB6-1min.csv
;,2THETA,
5.0000,92
5.0372,87
5.0743,103
5.1115,102
5.1486,87
5.1858,85
5.2229,103
5.2601,77
5.2972,89
5.3344,104
5.3715,73
5.4087,67
5.4458,84
5.4830,78
5.5201,77
5.5573,94
5.5944,88
5.6316,75
5.6687,81
5.7059,87
5.7430,80
5.7802,87
5.8173,59
5.8545,82
5.8916,74
5.9288,66
5.9659,70
6.0031,68
6.0402,75
6.0774,73
6.1145,101
6.1517,75
6.1888,86
6.2260,75
6.2631,56
6.3003,63
6.3374,68
6.3746,83
6.4117,66
6.4489,51
6.4860,56
6.5232,59
6.5604,56
6.5975,63
6.6347,61
6.6718,81
6.7090,72
6.7461,62
6.7833,48
6.8204,52
6.8576,50
6.8947,62
6.9319,57
6.9690,58
7.0062,55
7.0433,60
7.0805,56
7.1176,54
7.1548,46
7.1919,35
7.2291,63
7.2662,60
7.3034,56
7.3405,71
7.3777,51
7.4148,54
7.4520,51
7.4891,51
7.5263,75
7.5634,71
7.6006,52
7.6377,65
7.6749,52
7.7120,62
7.7492,68
7.7863,75
7.8235,77
7.8606,67
7.8978,57
7.9349,62
7.9721,72
8.0092,67
8.0464,79
8.0835,61
8.1207,78
8.1579,76
8.1950,76
8.2322,71
8.2693,72
8.3065,95
8.3436,76
8.3808,73
8.4179,68
8.4551,69
8.4922,67
8.5294,79
8.5665,62
8.6037,76
8.6408,74
8.6780,66
8.7151,70
8.7523,76
8.7894,79
8.8266,81
8.8637,77
8.9009,73
8.9380,79
8.9752,81
9.0123,84
9.0495,82
9.0866,90
9.1238,89
9.1609,66
9.1981,83
9.2352,72
9.2724,99
9.3095,99
9.3467,78
9.3838,66
9.4210,67
9.4581,110
9.4953,78
9.5324,93
9.5696,75
9.6067,78
9.6439,74
9.6811,87
9.7182,88
9.7554,80
9.7925,74
9.8297,81
9.8668,98
9.9040,79
9.9411,115
9.9783,103
10.0154,80
10.0526,87
10.0897,81
10.1269,81
10.1640,91
10.2012,94
10.2383,83
10.2755,99
10.3126,93
10.3498,72
10.3869,83
10.4241,82
10.4612,101
10.4984,78
10.5355,98
10.5727,89
10.6098,75
10.6470,81
10.6841,93
10.7213,96
10.7584,96
10.7956,89
10.8327,93
10.8699,90
10.9070,93
10.9442,89
10.9813,78
11.0185,82
11.0556,93
11.0928,83
11.1299,73
11.1671,85
11.2043,88
11.2414,93
11.2786,80
11.3157,81
11.3529,77
11.3900,93
11.4272,92
11.4643,65
11.5015,98
11.5386,82
11.5758,71
11.6129,84
11.6501,94
11.6872,88
11.7244,72
11.7615,84
11.7987,94
11.8358,89
11.8730,87
11.9101,77
11.9473,69
11.9844,91
12.0216,73
12.0587,92
12.0959,75
12.1330,92
12.1702,71
12.2073,86
12.2445,73
12.2816,98
12.3188,86
12.3559,78
12.3931,91
12.4302,71
12.4674,76
12.5045,81
12.5417,72
12.5788,76
12.6160,75
12.6531,68
12.6903,75
12.7274,64
12.7646,58
12.8018,96
12.8389,78
12.8761,64
12.9132,70
12.9504,72
12.9875,69
13.0247,62
13.0618,60
13.0990,74
13.1361,76
13.1733,71
13.2104,77
13.2476,75
13.2847,86
13.3219,100
13.3590,85
13.3962,83
13.4333,74
13.4705,66
13.5076,84
13.5448,68
13.5819,59
13.6191,68
13.6562,63
13.6934,62
13.7305,64
13.7677,52
13.8048,83
13.8420,62
13.8791,80
13.9163,65
13.9534,72
13.9906,79
14.0277,75
14.0649,63
14.1020,72
14.1392,59
14.1763,54
14.2135,62
14.2506,63
14.2878,65
14.3250,47
14.3621,60
14.3993,54
14.4364,67
14.4736,69
14.5107,72
14.5479,69
14.5850,70
14.6222,72
14.6593,58
14.6965,57
14.7336,64
14.7708,67
14.8079,66
14.8451,56
14.8822,60
14.9194,72
14.9565,57
14.9937,74
15.0308,58
15.0680,62
15.1051,65
15.1423,56
15.1794,56
15.2166,58
15.2537,52
15.2909,68
15.3280,53
15.3652,65
15.4023,49
15.4395,54
15.4766,62
15.5138,58
15.5509,59
15.5881,57
15.6252,58
15.6624,49
15.6995,56
15.7367,60
15.7738,55
15.8110,72
15.8482,70
15.8853,63
15.9225,58
15.9596,51
15.9968,66
16.0339,63
16.0711,54
16.1082,71
16.1454,57
16.1825,65
16.2197,59
16.2568,56
16.2940,49
16.3311,61
16.3683,55
16.4054,70
16.4426,47
16.4797,60
16.5169,56
16.5540,56
16.5912,58
16.6283,60
16.6655,62
16.7026,53
16.7398,61
16.7769,59
16.8141,66
16.8512,60
16.8884,59
16.9255,59
16.9627,55
16.9998,57
17.0370,46
17.0741,62
17.1113,77
17.1484,51
17.1856,61
17.2227,66
17.2599,63
17.2970,56
17.3342,63
17.3713,69
17.4085,45
17.4457,64
17.4828,60
17.5200,50
17.5571,59
17.5943,51
17.6314,40
17.6686,55
17.7057,71
17.7429,65
17.7800,62
17.8172,64
17.8543,56
17.8915,64
17.9286,46
17.9658,47
18.0029,58
18.0401,79
18.0772,62
18.1144,54
18.1515,56
18.1887,66
18.2258,47
18.2630,64
18.3001,53
18.3373,64
18.3744,84
18.4116,62
18.4487,61
18.4859,73
18.5230,51
18.5602,49
18.5973,66
18.6345,65
18.6716,61
18.7088,46
18.7459,77
18.7831,67
18.8202,57
18.8574,71
18.8945,60
18.9317,65
18.9689,56
19.0060,56
19.0432,51
19.0803,64
19.1175,60
19.1546,58
19.1918,62
19.2289,71
19.2661,59
19.3032,70
19.3404,75
19.3775,66
19.4147,71
19.4518,54
19.4890,64
19.5261,55
19.5633,61
19.6004,66
19.6376,65
19.6747,56
19.7119,70
19.7490,67
19.7862,66
19.8233,52
19.8605,74
19.8976,55
19.9348,51
19.9719,71
20.0091,69
20.0462,71
20.0834,70
20.1205,81
20.1577,62
20.1948,71
20.2320,59
20.2691,74
20.3063,65
20.3434,56
20.3806,60
20.4177,59
20.4549,64
20.4921,55
20.5292,59
20.5664,55
20.6035,70
20.6407,68
20.6778,68
20.7150,57
20.7521,57
20.7893,93
20.8264,71
20.8636,56
20.9007,60
20.9379,55
20.9750,66
21.0122,54
21.0493,68
21.0865,91
21.1236,88
21.1608,83
21.1979,97
21.2351,110
21.2722,124
21.3094,104
21.3465,193
21.3837,153
21.4208,162
21.4580,79
21.4951,84
21.5323,73
21.5694,87
21.6066,80
21.6437,70
21.6809,76
21.7180,66
21.7552,73
21.7923,76
21.8295,64
21.8666,73
21.9038,68
21.9409,66
21.9781,78
22.0152,85
22.0524,79
22.0896,75
22.1267,81
22.1639,79
22.2010,81
22.2382,72
22.2753,81
22.3125,59
22.3496,73
22.3868,63
22.4239,67
22.4611,84
22.4982,73
22.5354,77
22.5725,66
22.6097,90
22.6468,70
22.6840,74
22.7211,68
22.7583,74
22.7954,62
22.8326,63
22.8697,69
22.9069,89
22.9440,80
22.9812,73
23.0183,90
23.0555,82
23.0926,62
23.1298,78
23.1669,78
23.2041,80
23.2412,83
23.2784,70
23.3155,73
23.3527,71
23.3898,81
23.4270,73
23.4641,57
23.5013,73
23.5384,71
23.5756,75
23.6128,75
23.6499,73
23.6871,66
23.7242,77
23.7614,66
23.7985,75
23.8357,66
23.8728,72
23.9100,80
23.9471,79
23.9843,90
24.0214,77
24.0586,75
24.0957,65
24.1329,79
24.1700,82
24.2072,64
24.2443,86
24.2815,85
24.3186,79
24.3558,78
24.3929,68
24.4301,74
24.4672,66
24.5044,84
24.5415,82
24.5787,72
24.6158,74
24.6530,66
24.6901,85
24.7273,59
24.7644,73
24.8016,65
24.8387,67
24.8759,79
24.9130,80
24.9502,61
24.9873,66
25.0245,74
25.0616,63
25.0988,71
25.1360,80
25.1731,80
25.2103,80
25.2474,66
25.2846,91
25.3217,91
25.3589,74
25.3960,64
25.4332,80
25.4703,80
25.5075,72
25.5446,76
25.5818,76
25.6189,80
25.6561,78
25.6932,62
25.7304,73
25.7675,64
25.8047,70
25.8418,68
25.8790,71
25.9161,57
25.9533,72
25.9904,64
26.0276,72
26.0647,70
26.1019,82
26.1390,82
26.1762,73
26.2133,57
26.2505,60
26.2876,66
26.3248,58
26.3619,66
26.3991,72
26.4362,72
26.4734,70
26.5105,63
26.5477,64
26.5848,74
26.6220,68
26.6591,57
26.6963,78
26.7335,75
26.7706,60
26.8078,79
26.8449,79
26.8821,72
26.9192,78
26.9564,78
26.9935,70
27.0307,73
27.0678,63
27.1050,78
27.1421,67
27.1793,93
27.2164,96
27.2536,84
27.2907,62
27.3279,82
27.3650,63
27.4022,58
27.4393,68
27.4765,50
27.5136,64
27.5508,57
27.5879,60
27.6251,59
27.6622,70
27.6994,65
27.7365,59
27.7737,61
27.8108,66
27.8480,65
27.8851,74
27.9223,66
27.9594,57
27.9966,61
28.0337,68
28.0709,59
28.1080,60
28.1452,76
28.1823,63
28.2195,60
28.2567,62
28.2938,58
28.3310,75
28.3681,59
28.4053,71
28.4424,72
28.4796,76
28.5167,70
28.5539,79
28.5910,54
28.6282,52
28.6653,62
28.7025,57
28.7396,51
28.7768,63
28.8139,50
28.8511,73
28.8882,58
28.9254,71
28.9625,59
28.9997,82
29.0368,66
29.0740,53
29.1111,44
29.1483,54
29.1854,70
29.2226,53
29.2597,54
29.2969,73
29.3340,55
29.3712,58
29.4083,58
29.4455,57
29.4826,60
29.5198,63
29.5569,59
29.5941,48
29.6312,61
29.6684,54
29.7055,60
29.7427,54
29.7799,53
29.8170,52
29.8542,57
29.8913,50
29.9285,56
29.9656,47
30.0028,57
30.0399,57
30.0771,56
30.1142,56
30.1514,66
30.1885,61
30.2257,68
30.2628,63
30.3000,62
30.3371,86
30.3743,116
30.4114,119
30.4486,89
30.4857,77
30.5229,60
30.5600,49
30.5972,55
30.6343,49
30.6715,41
30.7086,55
30.7458,45
30.7829,63
30.8201,77
30.8572,35
30.8944,53
30.9315,51
30.9687,43
31.0058,56
31.0430,46
31.0801,57
31.1173,45
31.1544,43
31.1916,60
31.2287,54
31.2659,51
31.3030,69
31.3402,51
31.3774,31
31.4145,57
31.4517,51
31.4888,47
31.5260,42
31.5631,53
31.6003,54
31.6374,52
31.6746,35
31.7117,45
31.7489,53
31.7860,61
31.8232,52
31.8603,54
31.8975,56
31.9346,37
31.9718,47
32.0089,54
32.0461,46
32.0832,45
32.1204,43
32.1575,58
32.1947,40
32.2318,40
32.2690,61
32.3061,54
32.3433,32
32.3804,54
32.4176,48
32.4547,57
32.4919,62
32.5290,60
32.5662,68
32.6033,42
32.6405,31
32.6776,42
32.7148,53
32.7519,47
32.7891,47
32.8262,39
32.8634,41
32.9006,41
32.9377,55
32.9749,45
33.0120,43
33.0492,49
33.0863,47
33.1235,41
33.1606,41
33.1978,27
33.2349,41
33.2721,42
33.3092,40
33.3464,45
33.3835,43
33.4207,41
33.4578,37
33.4950,55
33.5321,45
33.5693,37
33.6064,37
33.6436,44
33.6807,43
33.7179,42
33.7550,42
33.7922,36
33.8293,47
33.8665,49
33.9036,44
33.9408,46
33.9779,45
34.0151,41
34.0522,35
34.0894,38
34.1265,51
34.1637,43
34.2008,44
34.2380,42
34.2751,41
34.3123,40
34.3494,45
34.3866,47
34.4238,43
34.4609,45
34.4981,36
34.5352,52
34.5724,39
34.6095,49
34.6467,55
34.6838,43
34.7210,50
34.7581,59
34.7953,67
34.8324,62
34.8696,49
34.9067,46
34.9439,23
34.9810,44
35.0182,46
35.0553,39
35.0925,34
35.1296,40
35.1668,40
35.2039,39
35.2411,47
35.2782,54
35.3154,31
35.3525,38
35.3897,46
35.4268,47
35.4640,40
35.5011,43
35.5383,47
35.5754,39
35.6126,43
35.6497,23
35.6869,36
35.7240,41
35.7612,35
35.7983,40
35.8355,33
35.8726,28
35.9098,35
35.9469,27
35.9841,35
36.0213,33
36.0584,45
36.0956,28
36.1327,31
36.1699,39
36.2070,32
36.2442,25
36.2813,32
36.3185,34
36.3556,32
36.3928,35
36.4299,26
36.4671,33
36.5042,34
36.5414,32
36.5785,36
36.6157,47
36.6528,29
36.6900,33
36.7271,46
36.7643,29
36.8014,31
36.8386,39
36.8757,30
36.9129,35
36.9500,29
36.9872,41
37.0243,24
37.0615,40
37.0986,29
37.1358,25
37.1729,30
37.2101,32
37.2472,44
37.2844,42
37.3215,29
37.3587,37
37.3958,41
37.4330,73
37.4701,49
37.5073,36
37.5445,41
37.5816,30
37.6188,29
37.6559,36
37.6931,36
37.7302,35
37.7674,36
37.8045,30
37.8417,39
37.8788,34
37.9160,36
37.9531,39
37.9903,33
38.0274,33
38.0646,27
38.1017,31
38.1389,25
38.1760,27
38.2132,33
38.2503,21
38.2875,46
38.3246,31
38.3618,35
38.3989,34
38.4361,41
38.4732,25
38.5104,30
38.5475,33
38.5847,31
38.6218,40
38.6590,32
38.6961,19
38.7333,30
38.7704,35
38.8076,30
38.8447,23
38.8819,31
38.9190,40
38.9562,36
38.9933,40
39.0305,29
39.0677,30
39.1048,30
39.1420,27
39.1791,35
39.2163,35
39.2534,27
39.2906,28
39.3277,33
39.3649,30
39.4020,22
39.4392,20
39.4763,31
39.5135,37
39.5506,38
39.5878,40
39.6249,26
39.6621,31
39.6992,29
39.7364,32
39.7735,22
39.8107,28
39.8478,28
39.8850,35
39.9221,26
39.9593,34
39.9964,23
40.0336,38
40.0707,28
40.1079,27
40.1450,28
40.1822,26
40.2193,24
40.2565,25
40.2936,24
40.3308,28
40.3679,31
40.4051,30
40.4422,27
40.4794,24
40.5165,27
40.5537,30
40.5908,33
40.6280,27
40.6652,19
40.7023,25
40.7395,23
40.7766,26
40.8138,34
40.8509,19
40.8881,33
40.9252,18
40.9624,29
40.9995,25
41.0367,31
41.0738,25
41.1110,36
41.1481,26
41.1853,29
41.2224,24
41.2596,26
41.2967,25
41.3339,23
41.3710,27
41.4082,31
41.4453,30
41.4825,39
41.5196,32
41.5568,32
41.5939,26
41.6311,32
41.6682,27
41.7054,24
41.7425,24
41.7797,29
41.8168,24
41.8540,23
41.8911,33
41.9283,29
41.9654,22
42.0026,27
42.0397,35
42.0769,40
42.1140,22
42.1512,24
42.1884,21
42.2255,25
42.2627,30
42.2998,24
42.3370,33
42.3741,25
42.4113,31
42.4484,24
42.4856,22
42.5227,22
42.5599,23
42.5970,19
42.6342,24
42.6713,31
42.7085,28
42.7456,27
42.7828,25
42.8199,25
42.8571,33
42.8942,31
42.9314,30
42.9685,33
43.0057,21
43.0428,29
43.0800,18
43.1171,20
43.1543,27
43.1914,28
43.2286,20
43.2657,34
43.3029,32
43.3400,31
43.3772,23
43.4143,25
43.4515,33
43.4886,50
43.5258,41
43.5629,31
43.6001,30
43.6372,33
43.6744,28
43.7116,27
43.7487,26
43.7859,21
43.8230,25
43.8602,24
43.8973,26
43.9345,29
43.9716,24
44.0088,30
44.0459,28
44.0831,21
44.1202,23
44.1574,30
44.1945,25
44.2317,34
44.2688,19
44.3060,26
44.3431,26
44.3803,22
44.4174,21
44.4546,23
44.4917,29
44.5289,37
44.5660,22
44.6032,28
44.6403,36
44.6775,20
44.7146,38
44.7518,20
44.7889,22
44.8261,26
44.8632,32
44.9004,29
44.9375,30
44.9747,30
45.0118,28
45.0490,22
45.0861,28
45.1233,24
45.1604,25
45.1976,30
45.2347,28
45.2719,21
45.3091,18
45.3462,22
45.3834,23
45.4205,24
45.4577,16
45.4948,23
45.5320,28
45.5691,22
45.6063,30
45.6434,24
45.6806,30
45.7177,25
45.7549,13
45.7920,25
45.8292,19
45.8663,26
45.9035,23
45.9406,19
45.9778,29
46.0149,24
46.0521,24
46.0892,21
46.1264,26
46.1635,28
46.2007,25
46.2378,18
46.2750,20
46.3121,18
46.3493,21
46.3864,27
46.4236,26
46.4607,29
46.4979,31
46.5350,23
46.5722,24
46.6093,30
46.6465,17
46.6836,30
46.7208,31
46.7579,23
46.7951,18
46.8323,26
46.8694,23
46.9066,27
46.9437,15
46.9809,28
47.0180,22
47.0552,19
47.0923,23
47.1295,28
47.1666,20
47.2038,27
47.2409,23
47.2781,21
47.3152,17
47.3524,24
47.3895,22
47.4267,29
47.4638,17
47.5010,22
47.5381,31
47.5753,27
47.6124,26
47.6496,18
47.6867,21
47.7239,26
47.7610,30
47.7982,20
47.8353,26
47.8725,15
47.9096,23
47.9468,29
47.9839,25
48.0211,27
48.0582,21
48.0954,18
48.1325,24
48.1697,21
48.2068,19
48.2440,28
48.2811,17
48.3183,22
48.3555,18
48.3926,23
48.4298,23
48.4669,14
48.5041,17
48.5412,20
48.5784,26
48.6155,28
48.6527,23
48.6898,24
48.7270,27
48.7641,26
48.8013,23
48.8384,21
48.8756,29
48.9127,26
48.9499,44
48.9870,30
49.0242,31
49.0613,29
49.0985,34
49.1356,27
49.1728,20
49.2099,23
49.2471,22
49.2842,15
49.3214,17
49.3585,18
49.3957,19
49.4328,25
49.4700,15
49.5071,25
49.5443,27
49.5814,20
49.6186,22
49.6557,21
49.6929,20
49.7300,29
49.7672,23
49.8043,17
49.8415,20
49.8786,25
49.9158,14
49.9530,30
49.9901,26
50.0273,26
50.0644,27
50.1016,22
50.1387,26
50.1759,23
50.2130,25
50.2502,24
50.2873,21
50.3245,18
50.3616,22
50.3988,16
50.4359,24
50.4731,26
50.5102,33
50.5474,20
50.5845,17
50.6217,23
50.6588,24
50.6960,23
50.7331,24
50.7703,28
50.8074,22
50.8446,24
50.8817,25
50.9189,18
50.9560,25
50.9932,23
51.0303,28
51.0675,32
51.1046,17
51.1418,25
51.1789,24
51.2161,17
51.2532,21
51.2904,22
51.3275,27
51.3647,9
51.4018,32
51.4390,20
51.4762,13
51.5133,16
51.5505,21
51.5876,23
51.6248,21
51.6619,23
51.6991,29
51.7362,28
51.7734,19
51.8105,25
51.8477,28
51.8848,21
51.9220,24
51.9591,26
51.9963,23
52.0334,23
52.0706,15
52.1077,33
52.1449,19
52.1820,19
52.2192,22
52.2563,27
52.2935,19
52.3306,28
52.3678,25
52.4049,25
52.4421,18
52.4792,22
52.5164,27
52.5535,21
52.5907,20
52.6278,21
52.6650,24
52.7021,24
52.7393,26
52.7764,24
52.8136,20
52.8507,16
52.8879,12
52.9250,15
52.9622,20
52.9994,22
53.0365,13
53.0737,32
53.1108,23
53.1480,29
53.1851,27
53.2223,18
53.2594,22
53.2966,19
53.3337,27
53.3709,29
53.4080,15
53.4452,23
53.4823,34
53.5195,19
53.5566,12
53.5938,24
53.6309,22
53.6681,23
53.7052,27
53.7424,28
53.7795,30
53.8167,23
53.8538,20
53.8910,21
53.9281,25
53.9653,30
54.0024,39
54.0396,29
54.0767,18
54.1139,30
54.1510,23
54.1882,20
54.2253,27
54.2625,18
54.2996,12
54.3368,18
54.3739,21
54.4111,24
54.4482,20
54.4854,17
54.5225,15
54.5597,23
54.5969,23
54.6340,18
54.6712,22
54.7083,18
54.7455,15
54.7826,17
54.8198,22
54.8569,14
54.8941,27
54.9312,17
54.9684,19
55.0055,18
55.0427,28
55.0798,19
55.1170,22
55.1541,24
55.1913,21
55.2284,23
55.2656,25
55.3027,28
55.3399,18
55.3770,20
55.4142,19
55.4513,10
55.4885,27
55.5256,19
55.5628,24
55.5999,28
55.6371,15
55.6742,14
55.7114,29
55.7485,19
55.7857,20
55.8228,13
55.8600,31
55.8971,25
55.9343,14
55.9714,15
56.0086,22
56.0457,21
56.0829,22
56.1201,22
56.1572,20
56.1944,23
56.2315,28
56.2687,22
56.3058,17
56.3430,15
56.3801,19
56.4173,27
56.4544,26
56.4916,29
56.5287,29
56.5659,21
56.6030,15
56.6402,22
56.6773,24
56.7145,24
56.7516,17
56.7888,20
56.8259,17
56.8631,24
56.9002,15
56.9374,22
56.9745,22
57.0117,26
57.0488,17
57.0860,21
57.1231,20
57.1603,20
57.1974,19
57.2346,16
57.2717,12
57.3089,18
57.3460,26
57.3832,21
57.4203,18
57.4575,23
57.4946,32
57.5318,17
57.5689,21
57.6061,15
57.6433,15
57.6804,23
57.7176,17
57.7547,22
57.7919,22
57.8290,21
57.8662,14
57.9033,30
57.9405,23
57.9776,24
58.0148,12
58.0519,26
58.0891,18
58.1262,27
58.1634,22
58.2005,21
58.2377,22
58.2748,21
58.3120,11
58.3491,23
58.3863,20
58.4234,23
58.4606,16
58.4977,20
58.5349,14
58.5720,17
58.6092,28
58.6463,26
58.6835,16
58.7206,13
58.7578,11
58.7949,17
58.8321,19
58.8692,25
58.9064,25
58.9435,24
58.9807,17
59.0178,15
59.0550,14
59.0921,16
59.1293,19
59.1664,17
59.2036,19
59.2408,18
59.2779,14
59.3151,23
59.3522,23
59.3894,21
59.4265,22
59.4637,22
59.5008,12
59.5380,26
59.5751,25
59.6123,30
59.6494,28
59.6866,16
59.7237,22
59.7609,16
59.7980,17
59.8352,20
59.8723,31
59.9095,19
59.9466,21
59.9838,21
60.0024,12