File: notebooks/data/xrd_data/ML_20220721_27_SJD_4_LaB6-4min.uxd
; (content of file Y:\Sam\Apurva-07-20-2022\puck1\ML_20220721_27_SJD_0_LaB6-4min.raw)
_FILEVERSION = 3
_SAMPLE = ML_20220721_27_SJD_0_LaB6-4min
_+SAMPLE =
_SITE = USA
_USER = Administrator
_GONIOMETER_CODE = 20
; Goniometer : D8 theta/2theta, stage : Unknown
_ATTACHMENTS_CODE = 0
_GONIOMETER_RADIUS = 200.5
_FIXED_DIVSLIT = 0.6
_FIXED_SAMPLESLIT = 0
_SOLLER_SLITS = 2
_FIXED_DETSLIT = 9.55
_MONOCHROMATOR = 0
; Incident beam monochromator : None
_SOLLER_SLITS_2 = N
_THIN_FILM = N
_BETA_FILTER = Y
_FIXED_ANTISLIT = 5.89
_ANALYZER_CODE = 0
; Received beam analyzer : None
_DATEMEASURED = "25-Jul-2022 15:53:34"
_WL_UNIT = A
_WL1 = 1.5406
_WL2 = 1.54439
_WL3 = 1.39222
_WLRATIO = 0.5
_ANODE = Cu
_V4_INF_CREATOR = XRDWizard
_V4_INF_CREATOR_VERSION = V2.9.0.22
_V4_INF_WIZARD_VERSION = V2.9.0.22
_V4_INF_WIZARD_ADDINS = V2.9.0.22
_V4_INF_WIZARD_DOCTYPE = XRD
_V4_INF_OSUSER = McQueenLab
_V4_INF_USER = Administrator
_V4_INF_SITE = USA
_V4_INF_SAMPLEID = ML_20220721_27_SJD_0_LaB6-4min

; Data for range 1
_DRIVE = COUPLED
_STEPTIME = 11.28
_STEPSIZE = 0.0185756
_STEPMODE = C
_START = 5
_THETA = 2.5
_2THETA = 5
_KHI = 0
_PHI = 0
_X = 0
_Y = 0
_Z = 0
_DETECTOR = 5
; Detector type : Unknown
_DETECTORSLIT = unkn
_AUX1 = 0
_AUX2 = 0
_AUX3 = 0
_TIMESTARTED = 15
_TEMP_RATE = -1
_TEMP_DELAY = -1
_KV = 40
_MA = 40
_RANGE_WL = 1.5406
_3DPLANE = 0
_V4_ADDITIONALDETECTOR = 257
_V4_PSD2THETA = 3.3651
_V4_PSDCHANNEL1 = 0
_V4_PSDAPERTURE = 12.68
_V4_PSDTYPE = 5
_V4_PSDFIXED = 0
_V4_COUNTERS_MASK = 4096
_V4_DRIVES_MASK = 0
_V4_ENCODERS_MASK = 0
_2THETACOUNTS = 1
; 2THETA  PSD
   5.0000        250
   5.0372        248
   5.0743        276
   5.1115        293
   5.1486        272
   5.1858        263
   5.2229        254
   5.2601        237
   5.2972        228
   5.3344        233
   5.3715        231
   5.4087        247
   5.4458        236
   5.4830        245
   5.5201        228
   5.5573        223
   5.5944        216
   5.6316        201
   5.6687        228
   5.7059        237
   5.7430        221
   5.7802        219
   5.8173        218
   5.8545        210
   5.8916        208
   5.9288        213
   5.9659        203
   6.0031        201
   6.0402        192
   6.0774        185
   6.1145        197
   6.1517        195
   6.1888        200
   6.2260        179
   6.2631        207
   6.3003        197
   6.3374        187
   6.3746        169
   6.4117        186
   6.4489        166
   6.4860        184
   6.5232        169
   6.5604        197
   6.5975        173
   6.6347        172
   6.6718        178
   6.7090        162
   6.7461        183
   6.7833        189
   6.8204        169
   6.8576        159
   6.8947        164
   6.9319        177
   6.9690        155
   7.0062        174
   7.0433        145
   7.0805        167
   7.1176        159
   7.1548        158
   7.1919        152
   7.2291        171
   7.2662        167
   7.3034        173
   7.3405        164
   7.3777        176
   7.4148        146
   7.4520        177
   7.4891        163
   7.5263        154
   7.5634        169
   7.6006        188
   7.6377        168
   7.6749        165
   7.7120        183
   7.7492        191
   7.7863        189
   7.8235        161
   7.8606        178
   7.8978        186
   7.9349        194
   7.9721        176
   8.0092        195
   8.0464        204
   8.0835        198
   8.1207        183
   8.1579        168
   8.1950        196
   8.2322        214
   8.2693        198
   8.3065        194
   8.3436        224
   8.3808        199
   8.4179        204
   8.4551        223
   8.4922        199
   8.5294        199
   8.5665        181
   8.6037        187
   8.6408        176
   8.6780        185
   8.7151        199
   8.7523        208
   8.7894        226
   8.8266        219
   8.8637        199
   8.9009        210
   8.9380        221
   8.9752        220
   9.0123        214
   9.0495        218
   9.0866        206
   9.1238        226
   9.1609        229
   9.1981        196
   9.2352        214
   9.2724        219
   9.3095        243
   9.3467        218
   9.3838        221
   9.4210        219
   9.4581        211
   9.4953        235
   9.5324        221
   9.5696        240
   9.6067        229
   9.6439        237
   9.6811        198
   9.7182        202
   9.7554        249
   9.7925        221
   9.8297        217
   9.8668        249
   9.9040        247
   9.9411        247
   9.9783        256
  10.0154        225
  10.0526        255
  10.0897        270
  10.1269        260
  10.1640        234
  10.2012        261
  10.2383        263
  10.2755        242
  10.3126        211
  10.3498        220
  10.3869        234
  10.4241        222
  10.4612        231
  10.4984        246
  10.5355        239
  10.5727        241
  10.6098        235
  10.6470        254
  10.6841        260
  10.7213        253
  10.7584        254
  10.7956        241
  10.8327        240
  10.8699        269
  10.9070        230
  10.9442        282
  10.9813        227
  11.0185        243
  11.0556        234
  11.0928        240
  11.1299        233
  11.1671        234
  11.2043        255
  11.2414        260
  11.2786        241
  11.3157        254
  11.3529        224
  11.3900        238
  11.4272        223
  11.4643        267
  11.5015        208
  11.5386        229
  11.5758        261
  11.6129        221
  11.6501        239
  11.6872        235
  11.7244        255
  11.7615        229
  11.7987        255
  11.8358        249
  11.8730        244
  11.9101        246
  11.9473        230
  11.9844        214
  12.0216        222
  12.0587        241
  12.0959        240
  12.1330        259
  12.1702        214
  12.2073        217
  12.2445        237
  12.2816        254
  12.3188        191
  12.3559        239
  12.3931        224
  12.4302        225
  12.4674        200
  12.5045        245
  12.5417        209
  12.5788        244
  12.6160        206
  12.6531        220
  12.6903        220
  12.7274        203
  12.7646        191
  12.8018        208
  12.8389        221
  12.8761        228
  12.9132        240
  12.9504        231
  12.9875        228
  13.0247        193
  13.0618        203
  13.0990        192
  13.1361        235
  13.1733        211
  13.2104        201
  13.2476        193
  13.2847        193
  13.3219        197
  13.3590        191
  13.3962        188
  13.4333        186
  13.4705        165
  13.5076        214
  13.5448        206
  13.5819        195
  13.6191        149
  13.6562        191
  13.6934        189
  13.7305        183
  13.7677        176
  13.8048        184
  13.8420        175
  13.8791        162
  13.9163        202
  13.9534        195
  13.9906        196
  14.0277        187
  14.0649        205
  14.1020        194
  14.1392        182
  14.1763        175
  14.2135        199
  14.2506        163
  14.2878        185
  14.3250        161
  14.3621        200
  14.3993        186
  14.4364        160
  14.4736        187
  14.5107        172
  14.5479        179
  14.5850        169
  14.6222        163
  14.6593        150
  14.6965        177
  14.7336        145
  14.7708        174
  14.8079        157
  14.8451        197
  14.8822        180
  14.9194        151
  14.9565        164
  14.9937        188
  15.0308        185
  15.0680        177
  15.1051        146
  15.1423        161
  15.1794        163
  15.2166        192
  15.2537        155
  15.2909        169
  15.3280        178
  15.3652        162
  15.4023        179
  15.4395        156
  15.4766        171
  15.5138        172
  15.5509        161
  15.5881        140
  15.6252        170
  15.6624        149
  15.6995        170
  15.7367        160
  15.7738        149
  15.8110        157
  15.8482        169
  15.8853        144
  15.9225        155
  15.9596        152
  15.9968        159
  16.0339        179
  16.0711        168
  16.1082        177
  16.1454        179
  16.1825        149
  16.2197        147
  16.2568        162
  16.2940        133
  16.3311        144
  16.3683        159
  16.4054        145
  16.4426        152
  16.4797        165
  16.5169        172
  16.5540        148
  16.5912        159
  16.6283        161
  16.6655        147
  16.7026        150
  16.7398        169
  16.7769        175
  16.8141        165
  16.8512        168
  16.8884        152
  16.9255        153
  16.9627        193
  16.9998        155
  17.0370        169
  17.0741        154
  17.1113        152
  17.1484        158
  17.1856        167
  17.2227        165
  17.2599        165
  17.2970        177
  17.3342        148
  17.3713        169
  17.4085        173
  17.4457        154
  17.4828        147
  17.5200        141
  17.5571        174
  17.5943        152
  17.6314        165
  17.6686        157
  17.7057        173
  17.7429        176
  17.7800        183
  17.8172        159
  17.8543        157
  17.8915        161
  17.9286        194
  17.9658        157
  18.0029        181
  18.0401        154
  18.0772        173
  18.1144        160
  18.1515        158
  18.1887        146
  18.2258        156
  18.2630        152
  18.3001        178
  18.3373        197
  18.3744        156
  18.4116        180
  18.4487        155
  18.4859        186
  18.5230        204
  18.5602        143
  18.5973        177
  18.6345        183
  18.6716        169
  18.7088        180
  18.7459        169
  18.7831        170
  18.8202        184
  18.8574        163
  18.8945        165
  18.9317        160
  18.9689        185
  19.0060        160
  19.0432        182
  19.0803        185
  19.1175        190
  19.1546        169
  19.1918        180
  19.2289        169
  19.2661        164
  19.3032        184
  19.3404        163
  19.3775        176
  19.4147        161
  19.4518        189
  19.4890        186
  19.5261        172
  19.5633        201
  19.6004        173
  19.6376        168
  19.6747        182
  19.7119        186
  19.7490        198
  19.7862        178
  19.8233        165
  19.8605        197
  19.8976        158
  19.9348        200
  19.9719        190
  20.0091        188
  20.0462        171
  20.0834        190
  20.1205        187
  20.1577        185
  20.1948        171
  20.2320        182
  20.2691        170
  20.3063        191
  20.3434        183
  20.3806        172
  20.4177        168
  20.4549        186
  20.4921        156
  20.5292        204
  20.5664        195
  20.6035        196
  20.6407        190
  20.6778        196
  20.7150        189
  20.7521        182
  20.7893        188
  20.8264        180
  20.8636        202
  20.9007        193
  20.9379        213
  20.9750        199
  21.0122        176
  21.0493        211
  21.0865        172
  21.1236        199
  21.1608        219
  21.1979        251
  21.2351        336
  21.2722        291
  21.3094        327
  21.3465        501
  21.3837        406
  21.4208        378
  21.4580        246
  21.4951        239
  21.5323        217
  21.5694        194
  21.6066        189
  21.6437        193
  21.6809        220
  21.7180        192
  21.7552        208
  21.7923        205
  21.8295        203
  21.8666        197
  21.9038        199
  21.9409        197
  21.9781        176
  22.0152        194
  22.0524        194
  22.0896        183
  22.1267        186
  22.1639        212
  22.2010        201
  22.2382        207
  22.2753        186
  22.3125        197
  22.3496        188
  22.3868        227
  22.4239        171
  22.4611        202
  22.4982        194
  22.5354        186
  22.5725        197
  22.6097        204
  22.6468        202
  22.6840        194
  22.7211        189
  22.7583        209
  22.7954        188
  22.8326        216
  22.8697        203
  22.9069        199
  22.9440        218
  22.9812        193
  23.0183        185
  23.0555        195
  23.0926        181
  23.1298        244
  23.1669        209
  23.2041        185
  23.2412        223
  23.2784        210
  23.3155        192
  23.3527        175
  23.3898        177
  23.4270        201
  23.4641        206
  23.5013        189
  23.5384        202
  23.5756        189
  23.6128        199
  23.6499        194
  23.6871        193
  23.7242        194
  23.7614        218
  23.7985        186
  23.8357        192
  23.8728        198
  23.9100        211
  23.9471        186
  23.9843        196
  24.0214        189
  24.0586        213
  24.0957        195
  24.1329        198
  24.1700        208
  24.2072        223
  24.2443        234
  24.2815        224
  24.3186        258
  24.3558        228
  24.3929        235
  24.4301        232
  24.4672        214
  24.5044        182
  24.5415        216
  24.5787        227
  24.6158        183
  24.6530        207
  24.6901        212
  24.7273        190
  24.7644        228
  24.8016        173
  24.8387        194
  24.8759        198
  24.9130        210
  24.9502        202
  24.9873        199
  25.0245        208
  25.0616        196
  25.0988        183
  25.1360        198
  25.1731        194
  25.2103        185
  25.2474        201
  25.2846        187
  25.3217        206
  25.3589        212
  25.3960        212
  25.4332        199
  25.4703        208
  25.5075        181
  25.5446        191
  25.5818        221
  25.6189        195
  25.6561        184
  25.6932        203
  25.7304        197
  25.7675        171
  25.8047        202
  25.8418        171
  25.8790        184
  25.9161        199
  25.9533        183
  25.9904        186
  26.0276        172
  26.0647        175
  26.1019        188
  26.1390        185
  26.1762        197
  26.2133        196
  26.2505        211
  26.2876        202
  26.3248        212
  26.3619        207
  26.3991        197
  26.4362        172
  26.4734        190
  26.5105        197
  26.5477        199
  26.5848        193
  26.6220        191
  26.6591        181
  26.6963        181
  26.7335        177
  26.7706        193
  26.8078        202
  26.8449        176
  26.8821        172
  26.9192        193
  26.9564        181
  26.9935        172
  27.0307        191
  27.0678        235
  27.1050        180
  27.1421        192
  27.1793        241
  27.2164        252
  27.2536        195
  27.2907        206
  27.3279        218
  27.3650        195
  27.4022        195
  27.4393        194
  27.4765        181
  27.5136        188
  27.5508        214
  27.5879        187
  27.6251        192
  27.6622        201
  27.6994        177
  27.7365        201
  27.7737        171
  27.8108        186
  27.8480        200
  27.8851        170
  27.9223        182
  27.9594        176
  27.9966        186
  28.0337        154
  28.0709        161
  28.1080        173
  28.1452        160
  28.1823        152
  28.2195        163
  28.2567        171
  28.2938        186
  28.3310        165
  28.3681        161
  28.4053        167
  28.4424        172
  28.4796        157
  28.5167        172
  28.5539        189
  28.5910        153
  28.6282        186
  28.6653        167
  28.7025        167
  28.7396        168
  28.7768        137
  28.8139        157
  28.8511        191
  28.8882        148
  28.9254        178
  28.9625        170
  28.9997        154
  29.0368        178
  29.0740        177
  29.1111        195
  29.1483        159
  29.1854        171
  29.2226        163
  29.2597        171
  29.2969        151
  29.3340        161
  29.3712        158
  29.4083        179
  29.4455        185
  29.4826        157
  29.5198        155
  29.5569        170
  29.5941        137
  29.6312        150
  29.6684        151
  29.7055        152
  29.7427        159
  29.7799        140
  29.8170        159
  29.8542        171
  29.8913        166
  29.9285        174
  29.9656        168
  30.0028        148
  30.0399        167
  30.0771        150
  30.1142        153
  30.1514        162
  30.1885        160
  30.2257        153
  30.2628        173
  30.3000        159
  30.3371        222
  30.3743        322
  30.4114        289
  30.4486        240
  30.4857        243
  30.5229        175
  30.5600        178
  30.5972        141
  30.6343        126
  30.6715        144
  30.7086        155
  30.7458        153
  30.7829        141
  30.8201        144
  30.8572        156
  30.8944        145
  30.9315        148
  30.9687        132
  31.0058        117
  31.0430        158
  31.0801        147
  31.1173        146
  31.1544        140
  31.1916        148
  31.2287        136
  31.2659        134
  31.3030        141
  31.3402        132
  31.3774        143
  31.4145        132
  31.4517        137
  31.4888        129
  31.5260        150
  31.5631        153
  31.6003        129
  31.6374        129
  31.6746        120
  31.7117        138
  31.7489        156
  31.7860        147
  31.8232        131
  31.8603        134
  31.8975        137
  31.9346        127
  31.9718        131
  32.0089        147
  32.0461        128
  32.0832        144
  32.1204        157
  32.1575        128
  32.1947        132
  32.2318        139
  32.2690        152
  32.3061        141
  32.3433        136
  32.3804        133
  32.4176        122
  32.4547        162
  32.4919        126
  32.5290        161
  32.5662        143
  32.6033        138
  32.6405        132
  32.6776        137
  32.7148        124
  32.7519        148
  32.7891        134
  32.8262        140
  32.8634        119
  32.9006        122
  32.9377        121
  32.9749        120
  33.0120        124
  33.0492        123
  33.0863        114
  33.1235        152
  33.1606        136
  33.1978        130
  33.2349        122
  33.2721         88
  33.3092        138
  33.3464        137
  33.3835        115
  33.4207        118
  33.4578        103
  33.4950        132
  33.5321        131
  33.5693        119
  33.6064        115
  33.6436        104
  33.6807        119
  33.7179        107
  33.7550        112
  33.7922        133
  33.8293        117
  33.8665        108
  33.9036        115
  33.9408        126
  33.9779        119
  34.0151        106
  34.0522        107
  34.0894        111
  34.1265        125
  34.1637        103
  34.2008        105
  34.2380        111
  34.2751        122
  34.3123        138
  34.3494        110
  34.3866        127
  34.4238        115
  34.4609        130
  34.4981        113
  34.5352        102
  34.5724        121
  34.6095        127
  34.6467        133
  34.6838        128
  34.7210        138
  34.7581        154
  34.7953        190
  34.8324        136
  34.8696        118
  34.9067        154
  34.9439        133
  34.9810        138
  35.0182        110
  35.0553         98
  35.0925        120
  35.1296         98
  35.1668         99
  35.2039         80
  35.2411         92
  35.2782         96
  35.3154         90
  35.3525        111
  35.3897        112
  35.4268         97
  35.4640        122
  35.5011         98
  35.5383        112
  35.5754        101
  35.6126         92
  35.6497        102
  35.6869        106
  35.7240        100
  35.7612        105
  35.7983        104
  35.8355        108
  35.8726        102
  35.9098        102
  35.9469        110
  35.9841        115
  36.0213        102
  36.0584         96
  36.0956        107
  36.1327         92
  36.1699        108
  36.2070         86
  36.2442        110
  36.2813        100
  36.3185         98
  36.3556         82
  36.3928         94
  36.4299        104
  36.4671        105
  36.5042         89
  36.5414        108
  36.5785         95
  36.6157         90
  36.6528         90
  36.6900         98
  36.7271        101
  36.7643         93
  36.8014         93
  36.8386         77
  36.8757         85
  36.9129         88
  36.9500         94
  36.9872         94
  37.0243         94
  37.0615         93
  37.0986         90
  37.1358         81
  37.1729         95
  37.2101         95
  37.2472        110
  37.2844         99
  37.3215         99
  37.3587         96
  37.3958        114
  37.4330        154
  37.4701        122
  37.5073        111
  37.5445        132
  37.5816         98
  37.6188         79
  37.6559        115
  37.6931        116
  37.7302         87
  37.7674         68
  37.8045         75
  37.8417        108
  37.8788         83
  37.9160        100
  37.9531         87
  37.9903         73
  38.0274         97
  38.0646         93
  38.1017         73
  38.1389         93
  38.1760         86
  38.2132         98
  38.2503        100
  38.2875         81
  38.3246         95
  38.3618         81
  38.3989         86
  38.4361         90
  38.4732         80
  38.5104         59
  38.5475         87
  38.5847         90
  38.6218         88
  38.6590         69
  38.6961         67
  38.7333         84
  38.7704         96
  38.8076         72
  38.8447         72
  38.8819         72
  38.9190         83
  38.9562         74
  38.9933         75
  39.0305         91
  39.0677         79
  39.1048         71
  39.1420        101
  39.1791         74
  39.2163         72
  39.2534         72
  39.2906         80
  39.3277         90
  39.3649        109
  39.4020         73
  39.4392         74
  39.4763         82
  39.5135         84
  39.5506         74
  39.5878         54
  39.6249         86
  39.6621         83
  39.6992         76
  39.7364         73
  39.7735         69
  39.8107         83
  39.8478         83
  39.8850         86
  39.9221         88
  39.9593         87
  39.9964         65
  40.0336         81
  40.0707         79
  40.1079         81
  40.1450         78
  40.1822         82
  40.2193         73
  40.2565         73
  40.2936         77
  40.3308         71
  40.3679         71
  40.4051         72
  40.4422         77
  40.4794         74
  40.5165         70
  40.5537         91
  40.5908         81
  40.6280         67
  40.6652         85
  40.7023         84
  40.7395         81
  40.7766         95
  40.8138         87
  40.8509         83
  40.8881         65
  40.9252         83
  40.9624         78
  40.9995         72
  41.0367         87
  41.0738         72
  41.1110         79
  41.1481         76
  41.1853         74
  41.2224         82
  41.2596         71
  41.2967         82
  41.3339         54
  41.3710         75
  41.4082         69
  41.4453         63
  41.4825         78
  41.5196         91
  41.5568         77
  41.5939         85
  41.6311         83
  41.6682         90
  41.7054         86
  41.7425         67
  41.7797         89
  41.8168         72
  41.8540         69
  41.8911         75
  41.9283         62
  41.9654         80
  42.0026         69
  42.0397         73
  42.0769         73
  42.1140         72
  42.1512         91
  42.1884         71
  42.2255         77
  42.2627         67
  42.2998         74
  42.3370         71
  42.3741         74
  42.4113         89
  42.4484         87
  42.4856         79
  42.5227         98
  42.5599         66
  42.5970         77
  42.6342         67
  42.6713         80
  42.7085         72
  42.7456         67
  42.7828         73
  42.8199         71
  42.8571         88
  42.8942         76
  42.9314         73
  42.9685         75
  43.0057         83
  43.0428         84
  43.0800         68
  43.1171         93
  43.1543         72
  43.1914         75
  43.2286         86
  43.2657         96
  43.3029         86
  43.3400         81
  43.3772         71
  43.4143         88
  43.4515         93
  43.4886        123
  43.5258        117
  43.5629         79
  43.6001         97
  43.6372        121
  43.6744         67
  43.7116         92
  43.7487         67
  43.7859         75
  43.8230         74
  43.8602         72
  43.8973         72
  43.9345         71
  43.9716         83
  44.0088         72
  44.0459         63
  44.0831         73
  44.1202         75
  44.1574         65
  44.1945         74
  44.2317         76
  44.2688         79
  44.3060         65
  44.3431         74
  44.3803         78
  44.4174         67
  44.4546         86
  44.4917         73
  44.5289         75
  44.5660         82
  44.6032         80
  44.6403         85
  44.6775         77
  44.7146         80
  44.7518         82
  44.7889         92
  44.8261         85
  44.8632         71
  44.9004         64
  44.9375         74
  44.9747         67
  45.0118         76
  45.0490         56
  45.0861         85
  45.1233         61
  45.1604         79
  45.1976         51
  45.2347         74
  45.2719         70
  45.3091         60
  45.3462         71
  45.3834         86
  45.4205         58
  45.4577         64
  45.4948         79
  45.5320         59
  45.5691         72
  45.6063         79
  45.6434         64
  45.6806         75
  45.7177         72
  45.7549         72
  45.7920         89
  45.8292         65
  45.8663         76
  45.9035         61
  45.9406         62
  45.9778         46
  46.0149         63
  46.0521         75
  46.0892         59
  46.1264         62
  46.1635         73
  46.2007         67
  46.2378         67
  46.2750         76
  46.3121         73
  46.3493         75
  46.3864         64
  46.4236         76
  46.4607         48
  46.4979         69
  46.5350         73
  46.5722         75
  46.6093         60
  46.6465         53
  46.6836         70
  46.7208         63
  46.7579         55
  46.7951         49
  46.8323         70
  46.8694         67
  46.9066         57
  46.9437         54
  46.9809         58
  47.0180         69
  47.0552         86
  47.0923         69
  47.1295         71
  47.1666         56
  47.2038         63
  47.2409         73
  47.2781         62
  47.3152         65
  47.3524         65
  47.3895         77
  47.4267         84
  47.4638         62
  47.5010         58
  47.5381         51
  47.5753         73
  47.6124         68
  47.6496         64
  47.6867         67
  47.7239         58
  47.7610         68
  47.7982         75
  47.8353         52
  47.8725         70
  47.9096         58
  47.9468         60
  47.9839         65
  48.0211         66
  48.0582         61
  48.0954         67
  48.1325         72
  48.1697         66
  48.2068         70
  48.2440         56
  48.2811         57
  48.3183         72
  48.3555         55
  48.3926         63
  48.4298         60
  48.4669         68
  48.5041         54
  48.5412         63
  48.5784         71
  48.6155         57
  48.6527         60
  48.6898         60
  48.7270         73
  48.7641         54
  48.8013         53
  48.8384         74
  48.8756         60
  48.9127         85
  48.9499        105
  48.9870         90
  49.0242         91
  49.0613         82
  49.0985         92
  49.1356         70
  49.1728         66
  49.2099         65
  49.2471         73
  49.2842         65
  49.3214         61
  49.3585         74
  49.3957         51
  49.4328         56
  49.4700         57
  49.5071         61
  49.5443         63
  49.5814         58
  49.6186         73
  49.6557         51
  49.6929         58
  49.7300         45
  49.7672         72
  49.8043         51
  49.8415         71
  49.8786         59
  49.9158         55
  49.9530         60
  49.9901         66
  50.0273         54
  50.0644         65
  50.1016         66
  50.1387         76
  50.1759         71
  50.2130         60
  50.2502         58
  50.2873         60
  50.3245         71
  50.3616         66
  50.3988         58
  50.4359         62
  50.4731         68
  50.5102         62
  50.5474         75
  50.5845         71
  50.6217         56
  50.6588         61
  50.6960         54
  50.7331         54
  50.7703         55
  50.8074         58
  50.8446         74
  50.8817         68
  50.9189         58
  50.9560         66
  50.9932         68
  51.0303         75
  51.0675         59
  51.1046         62
  51.1418         53
  51.1789         71
  51.2161         53
  51.2532         55
  51.2904         63
  51.3275         76
  51.3647         85
  51.4018         73
  51.4390         78
  51.4762         77
  51.5133         75
  51.5505         53
  51.5876         68
  51.6248         60
  51.6619         65
  51.6991         64
  51.7362         61
  51.7734         58
  51.8105         67
  51.8477         65
  51.8848         57
  51.9220         48
  51.9591         58
  51.9963         75
  52.0334         41
  52.0706         49
  52.1077         58
  52.1449         72
  52.1820         62
  52.2192         62
  52.2563         59
  52.2935         52
  52.3306         63
  52.3678         70
  52.4049         54
  52.4421         66
  52.4792         63
  52.5164         71
  52.5535         66
  52.5907         78
  52.6278         55
  52.6650         49
  52.7021         62
  52.7393         53
  52.7764         55
  52.8136         55
  52.8507         67
  52.8879         57
  52.9250         63
  52.9622         61
  52.9994         66
  53.0365         61
  53.0737         62
  53.1108         78
  53.1480         65
  53.1851         54
  53.2223         70
  53.2594         60
  53.2966         59
  53.3337         46
  53.3709         54
  53.4080         56
  53.4452         49
  53.4823         57
  53.5195         55
  53.5566         65
  53.5938         61
  53.6309         53
  53.6681         62
  53.7052         62
  53.7424         54
  53.7795         53
  53.8167         59
  53.8538         62
  53.8910         67
  53.9281         56
  53.9653         95
  54.0024         81
  54.0396         59
  54.0767         55
  54.1139         74
  54.1510         71
  54.1882         70
  54.2253         61
  54.2625         51
  54.2996         59
  54.3368         57
  54.3739         59
  54.4111         44
  54.4482         49
  54.4854         49
  54.5225         57
  54.5597         56
  54.5969         60
  54.6340         53
  54.6712         58
  54.7083         66
  54.7455         59
  54.7826         55
  54.8198         53
  54.8569         62
  54.8941         66
  54.9312         57
  54.9684         59
  55.0055         59
  55.0427         58
  55.0798         46
  55.1170         56
  55.1541         62
  55.1913         59
  55.2284         56
  55.2656         58
  55.3027         62
  55.3399         54
  55.3770         56
  55.4142         59
  55.4513         52
  55.4885         57
  55.5256         68
  55.5628         64
  55.5999         61
  55.6371         50
  55.6742         61
  55.7114         54
  55.7485         66
  55.7857         64
  55.8228         66
  55.8600         61
  55.8971         60
  55.9343         54
  55.9714         59
  56.0086         50
  56.0457         63
  56.0829         61
  56.1201         68
  56.1572         56
  56.1944         81
  56.2315         74
  56.2687         53
  56.3058         51
  56.3430         61
  56.3801         47
  56.4173         60
  56.4544         56
  56.4916         66
  56.5287         64
  56.5659         50
  56.6030         63
  56.6402         56
  56.6773         64
  56.7145         53
  56.7516         56
  56.7888         50
  56.8259         73
  56.8631         45
  56.9002         57
  56.9374         59
  56.9745         54
  57.0117         52
  57.0488         70
  57.0860         59
  57.1231         55
  57.1603         71
  57.1974         64
  57.2346         64
  57.2717         50
  57.3089         71
  57.3460         53
  57.3832         54
  57.4203         54
  57.4575         54
  57.4946         50
  57.5318         57
  57.5689         62
  57.6061         63
  57.6433         55
  57.6804         59
  57.7176         57
  57.7547         54
  57.7919         56
  57.8290         58
  57.8662         61
  57.9033         40
  57.9405         71
  57.9776         53
  58.0148         55
  58.0519         54
  58.0891         55
  58.1262         59
  58.1634         49
  58.2005         61
  58.2377         51
  58.2748         50
  58.3120         52
  58.3491         61
  58.3863         57
  58.4234         47
  58.4606         56
  58.4977         47
  58.5349         42
  58.5720         66
  58.6092         65
  58.6463         42
  58.6835         56
  58.7206         53
  58.7578         42
  58.7949         49
  58.8321         58
  58.8692         61
  58.9064         61
  58.9435         60
  58.9807         54
  59.0178         60
  59.0550         53
  59.0921         58
  59.1293         54
  59.1664         42
  59.2036         57
  59.2408         50
  59.2779         55
  59.3151         64
  59.3522         64
  59.3894         41
  59.4265         51
  59.4637         53
  59.5008         50
  59.5380         46
  59.5751         50
  59.6123         56
  59.6494         43
  59.6866         61
  59.7237         47
  59.7609         45
  59.7980         50
  59.8352         63
  59.8723         56
  59.9095         58
  59.9466         41
  59.9838         62
  60.0024         46