File: notebooks/data/xrd_data/ML_20220718_53_SJD_4_LaB6-4min.uxd
; (content of file Y:\Sam\Apurva-07-20-2022\puck4\ML_20220718_53_SJD_4_LaB6-4min.raw)
_FILEVERSION = 3
_SAMPLE = ML_20220718_53_SJD_4_LaB6-4min
_+SAMPLE =
_SITE = USA
_USER = Administrator
_GONIOMETER_CODE = 20
; Goniometer : D8 theta/2theta, stage : Unknown
_ATTACHMENTS_CODE = 0
_GONIOMETER_RADIUS = 200.5
_FIXED_DIVSLIT = 0.6
_FIXED_SAMPLESLIT = 0
_SOLLER_SLITS = 2
_FIXED_DETSLIT = 9.55
_MONOCHROMATOR = 0
; Incident beam monochromator : None
_SOLLER_SLITS_2 = N
_THIN_FILM = N
_BETA_FILTER = Y
_FIXED_ANTISLIT = 5.89
_ANALYZER_CODE = 0
; Received beam analyzer : None
_DATEMEASURED = "26-Jul-2022 14:14:13"
_WL_UNIT = A
_WL1 = 1.5406
_WL2 = 1.54439
_WL3 = 1.39222
_WLRATIO = 0.5
_ANODE = Cu
_V4_INF_CREATOR = XRDWizard
_V4_INF_CREATOR_VERSION = V2.9.0.22
_V4_INF_WIZARD_VERSION = V2.9.0.22
_V4_INF_WIZARD_ADDINS = V2.9.0.22
_V4_INF_WIZARD_DOCTYPE = XRD
_V4_INF_OSUSER = McQueenLab
_V4_INF_USER = Administrator
_V4_INF_SITE = USA
_V4_INF_SAMPLEID = ML_20220718_53_SJD_4_LaB6-4min

; Data for range 1
_DRIVE = COUPLED
_STEPTIME = 11.28
_STEPSIZE = 0.0185756
_STEPMODE = C
_START = 5
_THETA = 2.5
_2THETA = 5
_KHI = 0
_PHI = 0
_X = 0
_Y = 0
_Z = 0
_DETECTOR = 5
; Detector type : Unknown
_DETECTORSLIT = unkn
_AUX1 = 0
_AUX2 = 0
_AUX3 = 0
_TIMESTARTED = 15
_TEMP_RATE = -1
_TEMP_DELAY = -1
_KV = 40
_MA = 40
_RANGE_WL = 1.5406
_3DPLANE = 0
_V4_ADDITIONALDETECTOR = 257
_V4_PSD2THETA = 3.3902
_V4_PSDCHANNEL1 = 0
_V4_PSDAPERTURE = 12.68
_V4_PSDTYPE = 5
_V4_PSDFIXED = 0
_V4_COUNTERS_MASK = 4096
_V4_DRIVES_MASK = 0
_V4_ENCODERS_MASK = 0
_2THETACOUNTS = 1
; 2THETA  PSD
   5.0000        239
   5.0372        244
   5.0743        277
   5.1115        233
   5.1486        266
   5.1858        246
   5.2229        217
   5.2601        241
   5.2972        239
   5.3344        250
   5.3715        230
   5.4087        242
   5.4458        232
   5.4830        213
   5.5201        235
   5.5573        200
   5.5944        240
   5.6316        209
   5.6687        214
   5.7059        213
   5.7430        215
   5.7802        214
   5.8173        196
   5.8545        202
   5.8916        188
   5.9288        196
   5.9659        201
   6.0031        209
   6.0402        193
   6.0774        171
   6.1145        202
   6.1517        225
   6.1888        199
   6.2260        177
   6.2631        194
   6.3003        172
   6.3374        180
   6.3746        197
   6.4117        175
   6.4489        174
   6.4860        177
   6.5232        184
   6.5604        168
   6.5975        194
   6.6347        172
   6.6718        186
   6.7090        176
   6.7461        186
   6.7833        165
   6.8204        150
   6.8576        175
   6.8947        166
   6.9319        161
   6.9690        181
   7.0062        144
   7.0433        162
   7.0805        161
   7.1176        125
   7.1548        134
   7.1919        165
   7.2291        170
   7.2662        161
   7.3034        171
   7.3405        155
   7.3777        155
   7.4148        165
   7.4520        151
   7.4891        182
   7.5263        182
   7.5634        173
   7.6006        142
   7.6377        171
   7.6749        173
   7.7120        170
   7.7492        188
   7.7863        185
   7.8235        187
   7.8606        203
   7.8978        176
   7.9349        175
   7.9721        196
   8.0092        186
   8.0464        189
   8.0835        171
   8.1207        162
   8.1579        182
   8.1950        188
   8.2322        196
   8.2693        207
   8.3065        184
   8.3436        211
   8.3808        206
   8.4179        194
   8.4551        195
   8.4922        187
   8.5294        205
   8.5665        226
   8.6037        215
   8.6408        207
   8.6780        204
   8.7151        229
   8.7523        202
   8.7894        205
   8.8266        203
   8.8637        203
   8.9009        237
   8.9380        208
   8.9752        211
   9.0123        221
   9.0495        226
   9.0866        253
   9.1238        224
   9.1609        230
   9.1981        209
   9.2352        213
   9.2724        205
   9.3095        210
   9.3467        236
   9.3838        211
   9.4210        207
   9.4581        208
   9.4953        225
   9.5324        222
   9.5696        205
   9.6067        220
   9.6439        227
   9.6811        220
   9.7182        235
   9.7554        222
   9.7925        224
   9.8297        222
   9.8668        250
   9.9040        215
   9.9411        239
   9.9783        220
  10.0154        236
  10.0526        239
  10.0897        270
  10.1269        251
  10.1640        237
  10.2012        245
  10.2383        244
  10.2755        254
  10.3126        238
  10.3498        228
  10.3869        265
  10.4241        210
  10.4612        246
  10.4984        245
  10.5355        221
  10.5727        258
  10.6098        267
  10.6470        245
  10.6841        245
  10.7213        244
  10.7584        233
  10.7956        240
  10.8327        235
  10.8699        223
  10.9070        243
  10.9442        234
  10.9813        262
  11.0185        255
  11.0556        228
  11.0928        228
  11.1299        236
  11.1671        248
  11.2043        217
  11.2414        264
  11.2786        232
  11.3157        229
  11.3529        245
  11.3900        247
  11.4272        245
  11.4643        229
  11.5015        235
  11.5386        231
  11.5758        240
  11.6129        240
  11.6501        258
  11.6872        227
  11.7244        226
  11.7615        239
  11.7987        220
  11.8358        242
  11.8730        247
  11.9101        248
  11.9473        223
  11.9844        236
  12.0216        232
  12.0587        206
  12.0959        235
  12.1330        216
  12.1702        213
  12.2073        195
  12.2445        223
  12.2816        240
  12.3188        222
  12.3559        214
  12.3931        212
  12.4302        202
  12.4674        223
  12.5045        220
  12.5417        250
  12.5788        227
  12.6160        219
  12.6531        195
  12.6903        188
  12.7274        215
  12.7646        227
  12.8018        226
  12.8389        191
  12.8761        196
  12.9132        220
  12.9504        183
  12.9875        222
  13.0247        202
  13.0618        195
  13.0990        203
  13.1361        196
  13.1733        200
  13.2104        224
  13.2476        202
  13.2847        214
  13.3219        201
  13.3590        238
  13.3962        183
  13.4333        199
  13.4705        217
  13.5076        220
  13.5448        218
  13.5819        171
  13.6191        191
  13.6562        174
  13.6934        199
  13.7305        196
  13.7677        190
  13.8048        199
  13.8420        198
  13.8791        162
  13.9163        183
  13.9534        181
  13.9906        194
  14.0277        207
  14.0649        182
  14.1020        182
  14.1392        190
  14.1763        179
  14.2135        197
  14.2506        197
  14.2878        186
  14.3250        155
  14.3621        178
  14.3993        185
  14.4364        172
  14.4736        186
  14.5107        161
  14.5479        165
  14.5850        168
  14.6222        175
  14.6593        185
  14.6965        196
  14.7336        174
  14.7708        156
  14.8079        182
  14.8451        138
  14.8822        157
  14.9194        166
  14.9565        176
  14.9937        174
  15.0308        156
  15.0680        180
  15.1051        168
  15.1423        165
  15.1794        175
  15.2166        177
  15.2537        193
  15.2909        164
  15.3280        175
  15.3652        140
  15.4023        174
  15.4395        157
  15.4766        171
  15.5138        153
  15.5509        160
  15.5881        179
  15.6252        153
  15.6624        147
  15.6995        183
  15.7367        154
  15.7738        151
  15.8110        150
  15.8482        187
  15.8853        152
  15.9225        158
  15.9596        160
  15.9968        160
  16.0339        187
  16.0711        178
  16.1082        138
  16.1454        172
  16.1825        141
  16.2197        171
  16.2568        176
  16.2940        159
  16.3311        150
  16.3683        173
  16.4054        161
  16.4426        149
  16.4797        169
  16.5169        158
  16.5540        155
  16.5912        168
  16.6283        175
  16.6655        158
  16.7026        155
  16.7398        144
  16.7769        146
  16.8141        137
  16.8512        165
  16.8884        163
  16.9255        177
  16.9627        164
  16.9998        171
  17.0370        173
  17.0741        165
  17.1113        148
  17.1484        153
  17.1856        161
  17.2227        148
  17.2599        142
  17.2970        128
  17.3342        154
  17.3713        141
  17.4085        159
  17.4457        151
  17.4828        164
  17.5200        170
  17.5571        158
  17.5943        160
  17.6314        165
  17.6686        163
  17.7057        151
  17.7429        160
  17.7800        155
  17.8172        174
  17.8543        167
  17.8915        171
  17.9286        178
  17.9658        157
  18.0029        163
  18.0401        156
  18.0772        137
  18.1144        181
  18.1515        167
  18.1887        181
  18.2258        187
  18.2630        161
  18.3001        155
  18.3373        150
  18.3744        165
  18.4116        184
  18.4487        164
  18.4859        149
  18.5230        159
  18.5602        146
  18.5973        155
  18.6345        163
  18.6716        179
  18.7088        162
  18.7459        166
  18.7831        160
  18.8202        163
  18.8574        152
  18.8945        169
  18.9317        159
  18.9689        166
  19.0060        176
  19.0432        198
  19.0803        164
  19.1175        163
  19.1546        160
  19.1918        163
  19.2289        185
  19.2661        166
  19.3032        182
  19.3404        182
  19.3775        167
  19.4147        167
  19.4518        196
  19.4890        170
  19.5261        188
  19.5633        181
  19.6004        184
  19.6376        169
  19.6747        147
  19.7119        162
  19.7490        180
  19.7862        160
  19.8233        183
  19.8605        179
  19.8976        186
  19.9348        160
  19.9719        212
  20.0091        175
  20.0462        187
  20.0834        194
  20.1205        167
  20.1577        182
  20.1948        169
  20.2320        182
  20.2691        183
  20.3063        199
  20.3434        159
  20.3806        178
  20.4177        169
  20.4549        202
  20.4921        160
  20.5292        205
  20.5664        184
  20.6035        187
  20.6407        186
  20.6778        196
  20.7150        182
  20.7521        196
  20.7893        192
  20.8264        174
  20.8636        168
  20.9007        181
  20.9379        182
  20.9750        234
  21.0122        201
  21.0493        205
  21.0865        213
  21.1236        202
  21.1608        219
  21.1979        298
  21.2351        357
  21.2722        328
  21.3094        261
  21.3465        511
  21.3837        392
  21.4208        374
  21.4580        221
  21.4951        183
  21.5323        204
  21.5694        181
  21.6066        172
  21.6437        200
  21.6809        185
  21.7180        186
  21.7552        201
  21.7923        183
  21.8295        199
  21.8666        194
  21.9038        201
  21.9409        212
  21.9781        190
  22.0152        157
  22.0524        192
  22.0896        219
  22.1267        214
  22.1639        214
  22.2010        180
  22.2382        198
  22.2753        205
  22.3125        180
  22.3496        216
  22.3868        208
  22.4239        222
  22.4611        184
  22.4982        191
  22.5354        181
  22.5725        203
  22.6097        172
  22.6468        180
  22.6840        219
  22.7211        200
  22.7583        188
  22.7954        216
  22.8326        228
  22.8697        186
  22.9069        192
  22.9440        204
  22.9812        208
  23.0183        213
  23.0555        184
  23.0926        195
  23.1298        202
  23.1669        171
  23.2041        182
  23.2412        191
  23.2784        227
  23.3155        180
  23.3527        217
  23.3898        182
  23.4270        200
  23.4641        199
  23.5013        183
  23.5384        184
  23.5756        222
  23.6128        212
  23.6499        179
  23.6871        197
  23.7242        208
  23.7614        209
  23.7985        181
  23.8357        205
  23.8728        211
  23.9100        207
  23.9471        208
  23.9843        208
  24.0214        207
  24.0586        178
  24.0957        200
  24.1329        204
  24.1700        189
  24.2072        227
  24.2443        208
  24.2815        222
  24.3186        240
  24.3558        216
  24.3929        183
  24.4301        220
  24.4672        208
  24.5044        197
  24.5415        211
  24.5787        208
  24.6158        189
  24.6530        188
  24.6901        216
  24.7273        204
  24.7644        203
  24.8016        171
  24.8387        186
  24.8759        184
  24.9130        182
  24.9502        229
  24.9873        195
  25.0245        185
  25.0616        172
  25.0988        215
  25.1360        194
  25.1731        198
  25.2103        181
  25.2474        194
  25.2846        202
  25.3217        197
  25.3589        203
  25.3960        231
  25.4332        204
  25.4703        179
  25.5075        189
  25.5446        161
  25.5818        174
  25.6189        207
  25.6561        212
  25.6932        193
  25.7304        193
  25.7675        173
  25.8047        198
  25.8418        210
  25.8790        202
  25.9161        187
  25.9533        203
  25.9904        192
  26.0276        200
  26.0647        189
  26.1019        194
  26.1390        191
  26.1762        176
  26.2133        194
  26.2505        180
  26.2876        185
  26.3248        209
  26.3619        161
  26.3991        205
  26.4362        178
  26.4734        211
  26.5105        212
  26.5477        180
  26.5848        214
  26.6220        179
  26.6591        178
  26.6963        167
  26.7335        183
  26.7706        204
  26.8078        201
  26.8449        190
  26.8821        188
  26.9192        184
  26.9564        185
  26.9935        204
  27.0307        187
  27.0678        199
  27.1050        218
  27.1421        203
  27.1793        220
  27.2164        234
  27.2536        218
  27.2907        232
  27.3279        203
  27.3650        181
  27.4022        191
  27.4393        217
  27.4765        172
  27.5136        199
  27.5508        166
  27.5879        188
  27.6251        192
  27.6622        184
  27.6994        186
  27.7365        186
  27.7737        179
  27.8108        184
  27.8480        196
  27.8851        179
  27.9223        184
  27.9594        180
  27.9966        161
  28.0337        184
  28.0709        158
  28.1080        188
  28.1452        184
  28.1823        165
  28.2195        197
  28.2567        165
  28.2938        190
  28.3310        164
  28.3681        187
  28.4053        188
  28.4424        154
  28.4796        165
  28.5167        170
  28.5539        203
  28.5910        166
  28.6282        186
  28.6653        148
  28.7025        173
  28.7396        154
  28.7768        186
  28.8139        172
  28.8511        160
  28.8882        179
  28.9254        164
  28.9625        166
  28.9997        135
  29.0368        171
  29.0740        159
  29.1111        165
  29.1483        170
  29.1854        157
  29.2226        164
  29.2597        166
  29.2969        160
  29.3340        188
  29.3712        143
  29.4083        154
  29.4455        154
  29.4826        164
  29.5198        138
  29.5569        150
  29.5941        162
  29.6312        163
  29.6684        168
  29.7055        166
  29.7427        181
  29.7799        159
  29.8170        172
  29.8542        148
  29.8913        144
  29.9285        139
  29.9656        168
  30.0028        160
  30.0399        133
  30.0771        159
  30.1142        170
  30.1514        171
  30.1885        175
  30.2257        166
  30.2628        204
  30.3000        165
  30.3371        209
  30.3743        335
  30.4114        283
  30.4486        240
  30.4857        225
  30.5229        151
  30.5600        139
  30.5972        192
  30.6343        145
  30.6715        170
  30.7086        150
  30.7458        157
  30.7829        153
  30.8201        161
  30.8572        145
  30.8944        156
  30.9315        134
  30.9687        121
  31.0058        140
  31.0430        147
  31.0801        129
  31.1173        148
  31.1544        164
  31.1916        158
  31.2287        131
  31.2659        147
  31.3030        139
  31.3402        153
  31.3774        133
  31.4145        142
  31.4517        138
  31.4888        130
  31.5260        142
  31.5631        150
  31.6003        155
  31.6374        130
  31.6746        138
  31.7117        138
  31.7489        135
  31.7860        139
  31.8232        123
  31.8603        148
  31.8975        147
  31.9346        143
  31.9718        121
  32.0089        136
  32.0461        151
  32.0832        137
  32.1204        113
  32.1575        124
  32.1947        118
  32.2318        110
  32.2690        112
  32.3061        156
  32.3433        150
  32.3804        131
  32.4176        130
  32.4547        145
  32.4919        129
  32.5290        178
  32.5662        138
  32.6033        139
  32.6405        144
  32.6776        128
  32.7148        117
  32.7519        133
  32.7891        128
  32.8262        131
  32.8634        132
  32.9006        124
  32.9377        119
  32.9749        109
  33.0120        117
  33.0492        129
  33.0863        137
  33.1235        123
  33.1606        119
  33.1978        119
  33.2349        112
  33.2721        117
  33.3092        105
  33.3464        118
  33.3835        129
  33.4207        111
  33.4578        131
  33.4950        126
  33.5321         95
  33.5693        119
  33.6064        107
  33.6436        126
  33.6807        118
  33.7179        116
  33.7550        117
  33.7922        116
  33.8293        119
  33.8665        108
  33.9036        120
  33.9408        102
  33.9779        109
  34.0151        103
  34.0522        109
  34.0894        105
  34.1265        118
  34.1637        106
  34.2008        106
  34.2380        119
  34.2751        109
  34.3123        109
  34.3494        108
  34.3866         98
  34.4238        111
  34.4609        118
  34.4981        122
  34.5352        102
  34.5724        101
  34.6095        110
  34.6467        119
  34.6838        113
  34.7210        163
  34.7581        145
  34.7953        130
  34.8324        117
  34.8696        139
  34.9067        102
  34.9439        113
  34.9810        110
  35.0182        113
  35.0553        125
  35.0925         94
  35.1296        104
  35.1668        131
  35.2039        114
  35.2411        120
  35.2782        101
  35.3154        120
  35.3525        104
  35.3897         92
  35.4268        125
  35.4640        106
  35.5011        109
  35.5383        111
  35.5754         86
  35.6126        103
  35.6497         95
  35.6869        103
  35.7240        102
  35.7612        111
  35.7983         97
  35.8355         97
  35.8726         88
  35.9098        106
  35.9469        107
  35.9841         90
  36.0213         95
  36.0584         88
  36.0956        114
  36.1327         88
  36.1699         94
  36.2070        102
  36.2442        106
  36.2813        101
  36.3185         97
  36.3556        109
  36.3928         90
  36.4299         98
  36.4671        105
  36.5042        110
  36.5414         96
  36.5785         92
  36.6157         88
  36.6528         94
  36.6900         91
  36.7271         92
  36.7643        103
  36.8014         86
  36.8386        101
  36.8757         86
  36.9129         87
  36.9500         86
  36.9872         88
  37.0243         80
  37.0615         87
  37.0986         99
  37.1358         80
  37.1729        105
  37.2101         91
  37.2472         91
  37.2844        105
  37.3215        110
  37.3587         91
  37.3958        111
  37.4330        151
  37.4701        140
  37.5073        114
  37.5445        129
  37.5816        107
  37.6188         86
  37.6559        114
  37.6931         85
  37.7302         91
  37.7674         92
  37.8045         89
  37.8417         90
  37.8788         89
  37.9160         94
  37.9531         87
  37.9903         82
  38.0274         83
  38.0646         88
  38.1017         96
  38.1389         72
  38.1760         80
  38.2132         91
  38.2503         97
  38.2875         70
  38.3246         88
  38.3618         90
  38.3989         87
  38.4361         80
  38.4732         90
  38.5104         83
  38.5475         85
  38.5847         63
  38.6218         82
  38.6590         87
  38.6961         90
  38.7333         96
  38.7704         87
  38.8076         86
  38.8447         77
  38.8819         88
  38.9190         89
  38.9562         69
  38.9933         84
  39.0305         94
  39.0677         87
  39.1048         88
  39.1420         81
  39.1791         82
  39.2163         86
  39.2534         85
  39.2906         81
  39.3277         70
  39.3649         84
  39.4020         80
  39.4392         75
  39.4763         83
  39.5135         87
  39.5506         94
  39.5878         80
  39.6249         82
  39.6621         78
  39.6992        101
  39.7364         91
  39.7735         83
  39.8107         63
  39.8478         85
  39.8850         82
  39.9221         78
  39.9593         95
  39.9964         84
  40.0336         80
  40.0707         80
  40.1079         77
  40.1450         91
  40.1822         67
  40.2193         72
  40.2565         71
  40.2936        102
  40.3308         67
  40.3679         80
  40.4051         83
  40.4422         66
  40.4794         84
  40.5165         94
  40.5537         70
  40.5908         76
  40.6280         61
  40.6652         66
  40.7023         65
  40.7395         81
  40.7766         74
  40.8138         74
  40.8509         86
  40.8881         75
  40.9252         70
  40.9624        105
  40.9995         90
  41.0367         69
  41.0738        100
  41.1110         74
  41.1481         63
  41.1853         67
  41.2224         79
  41.2596         80
  41.2967         85
  41.3339         57
  41.3710         70
  41.4082         80
  41.4453         85
  41.4825         71
  41.5196         80
  41.5568         74
  41.5939         77
  41.6311         68
  41.6682         78
  41.7054         69
  41.7425         73
  41.7797         76
  41.8168         69
  41.8540         54
  41.8911         69
  41.9283         63
  41.9654         86
  42.0026         72
  42.0397         77
  42.0769         71
  42.1140         73
  42.1512         89
  42.1884         77
  42.2255         85
  42.2627         66
  42.2998         70
  42.3370         72
  42.3741         70
  42.4113         72
  42.4484         78
  42.4856         64
  42.5227         89
  42.5599         66
  42.5970         73
  42.6342         63
  42.6713         65
  42.7085         68
  42.7456         65
  42.7828         84
  42.8199         86
  42.8571         80
  42.8942         79
  42.9314         59
  42.9685         67
  43.0057         74
  43.0428         43
  43.0800         85
  43.1171         87
  43.1543         79
  43.1914         70
  43.2286         98
  43.2657         86
  43.3029         88
  43.3400         85
  43.3772         78
  43.4143         66
  43.4515         92
  43.4886        132
  43.5258        120
  43.5629         94
  43.6001        100
  43.6372         97
  43.6744         85
  43.7116         76
  43.7487         78
  43.7859         69
  43.8230         71
  43.8602         77
  43.8973         88
  43.9345         75
  43.9716         73
  44.0088         63
  44.0459         81
  44.0831         58
  44.1202         80
  44.1574         80
  44.1945         70
  44.2317         56
  44.2688         79
  44.3060         88
  44.3431         89
  44.3803         75
  44.4174         79
  44.4546         77
  44.4917         85
  44.5289         73
  44.5660         86
  44.6032         87
  44.6403         84
  44.6775         75
  44.7146        105
  44.7518         67
  44.7889         59
  44.8261         71
  44.8632         65
  44.9004         76
  44.9375         69
  44.9747         81
  45.0118         67
  45.0490         78
  45.0861         78
  45.1233         68
  45.1604         63
  45.1976         66
  45.2347         63
  45.2719         70
  45.3091         59
  45.3462         63
  45.3834         70
  45.4205         67
  45.4577         55
  45.4948         75
  45.5320         75
  45.5691         68
  45.6063         64
  45.6434         58
  45.6806         74
  45.7177         68
  45.7549         63
  45.7920         68
  45.8292         86
  45.8663         62
  45.9035         73
  45.9406         68
  45.9778         61
  46.0149         60
  46.0521         68
  46.0892         56
  46.1264         76
  46.1635         82
  46.2007         64
  46.2378         79
  46.2750         80
  46.3121         71
  46.3493         60
  46.3864         58
  46.4236         62
  46.4607         69
  46.4979         71
  46.5350         60
  46.5722         56
  46.6093         66
  46.6465         66
  46.6836         68
  46.7208         58
  46.7579         67
  46.7951         64
  46.8323         83
  46.8694         64
  46.9066         42
  46.9437         63
  46.9809         61
  47.0180         62
  47.0552         67
  47.0923         46
  47.1295         61
  47.1666         63
  47.2038         62
  47.2409         57
  47.2781         67
  47.3152         56
  47.3524         42
  47.3895         70
  47.4267         69
  47.4638         81
  47.5010         64
  47.5381         64
  47.5753         74
  47.6124         61
  47.6496         77
  47.6867         73
  47.7239         55
  47.7610         70
  47.7982         77
  47.8353         72
  47.8725         60
  47.9096         50
  47.9468         67
  47.9839         58
  48.0211         52
  48.0582         61
  48.0954         62
  48.1325         71
  48.1697         71
  48.2068         59
  48.2440         61
  48.2811         69
  48.3183         66
  48.3555         74
  48.3926         60
  48.4298         48
  48.4669         61
  48.5041         64
  48.5412         65
  48.5784         74
  48.6155         63
  48.6527         77
  48.6898         79
  48.7270         60
  48.7641         71
  48.8013         68
  48.8384         70
  48.8756         67
  48.9127         66
  48.9499         99
  48.9870        100
  49.0242         73
  49.0613         83
  49.0985         96
  49.1356         75
  49.1728         53
  49.2099         75
  49.2471         57
  49.2842         60
  49.3214         60
  49.3585         51
  49.3957         68
  49.4328         54
  49.4700         52
  49.5071         59
  49.5443         52
  49.5814         78
  49.6186         70
  49.6557         56
  49.6929         66
  49.7300         61
  49.7672         54
  49.8043         75
  49.8415         63
  49.8786         65
  49.9158         68
  49.9530         70
  49.9901         78
  50.0273         67
  50.0644         54
  50.1016         64
  50.1387         63
  50.1759         72
  50.2130         70
  50.2502         72
  50.2873         66
  50.3245         71
  50.3616         69
  50.3988         67
  50.4359         61
  50.4731         64
  50.5102         57
  50.5474         66
  50.5845         62
  50.6217         61
  50.6588         64
  50.6960         56
  50.7331         72
  50.7703         48
  50.8074         73
  50.8446         68
  50.8817         61
  50.9189         64
  50.9560         50
  50.9932         58
  51.0303         58
  51.0675         66
  51.1046         71
  51.1418         58
  51.1789         71
  51.2161         47
  51.2532         61
  51.2904         52
  51.3275         60
  51.3647         68
  51.4018         90
  51.4390         71
  51.4762         70
  51.5133         66
  51.5505         73
  51.5876         67
  51.6248         72
  51.6619         65
  51.6991         84
  51.7362         65
  51.7734         71
  51.8105         69
  51.8477         73
  51.8848         51
  51.9220         71
  51.9591         57
  51.9963         64
  52.0334         78
  52.0706         39
  52.1077         58
  52.1449         67
  52.1820         45
  52.2192         43
  52.2563         57
  52.2935         58
  52.3306         53
  52.3678         60
  52.4049         62
  52.4421         54
  52.4792         67
  52.5164         68
  52.5535         45
  52.5907         64
  52.6278         62
  52.6650         73
  52.7021         54
  52.7393         59
  52.7764         69
  52.8136         52
  52.8507         57
  52.8879         49
  52.9250         55
  52.9622         58
  52.9994         64
  53.0365         77
  53.0737         70
  53.1108         60
  53.1480         49
  53.1851         63
  53.2223         66
  53.2594         67
  53.2966         66
  53.3337         53
  53.3709         67
  53.4080         51
  53.4452         52
  53.4823         58
  53.5195         61
  53.5566         54
  53.5938         58
  53.6309         63
  53.6681         59
  53.7052         49
  53.7424         64
  53.7795         57
  53.8167         62
  53.8538         59
  53.8910         74
  53.9281         71
  53.9653         81
  54.0024         79
  54.0396         77
  54.0767         65
  54.1139         71
  54.1510         68
  54.1882         55
  54.2253         67
  54.2625         64
  54.2996         68
  54.3368         57
  54.3739         67
  54.4111         66
  54.4482         50
  54.4854         48
  54.5225         51
  54.5597         58
  54.5969         59
  54.6340         53
  54.6712         57
  54.7083         66
  54.7455         70
  54.7826         51
  54.8198         54
  54.8569         55
  54.8941         56
  54.9312         61
  54.9684         63
  55.0055         41
  55.0427         49
  55.0798         56
  55.1170         56
  55.1541         60
  55.1913         54
  55.2284         51
  55.2656         68
  55.3027         54
  55.3399         36
  55.3770         36
  55.4142         66
  55.4513         58
  55.4885         54
  55.5256         60
  55.5628         62
  55.5999         66
  55.6371         60
  55.6742         56
  55.7114         40
  55.7485         45
  55.7857         48
  55.8228         55
  55.8600         56
  55.8971         52
  55.9343         51
  55.9714         61
  56.0086         49
  56.0457         75
  56.0829         71
  56.1201         54
  56.1572         71
  56.1944         47
  56.2315         64
  56.2687         68
  56.3058         53
  56.3430         51
  56.3801         59
  56.4173         66
  56.4544         65
  56.4916         63
  56.5287         65
  56.5659         61
  56.6030         73
  56.6402         61
  56.6773         52
  56.7145         50
  56.7516         53
  56.7888         44
  56.8259         50
  56.8631         47
  56.9002         61
  56.9374         59
  56.9745         60
  57.0117         66
  57.0488         57
  57.0860         52
  57.1231         55
  57.1603         57
  57.1974         48
  57.2346         76
  57.2717         55
  57.3089         54
  57.3460         61
  57.3832         63
  57.4203         47
  57.4575         49
  57.4946         55
  57.5318         63
  57.5689         58
  57.6061         56
  57.6433         58
  57.6804         65
  57.7176         60
  57.7547         71
  57.7919         63
  57.8290         57
  57.8662         51
  57.9033         61
  57.9405         50
  57.9776         67
  58.0148         65
  58.0519         51
  58.0891         56
  58.1262         52
  58.1634         54
  58.2005         43
  58.2377         55
  58.2748         45
  58.3120         56
  58.3491         43
  58.3863         50
  58.4234         61
  58.4606         53
  58.4977         63
  58.5349         58
  58.5720         47
  58.6092         74
  58.6463         42
  58.6835         72
  58.7206         48
  58.7578         47
  58.7949         57
  58.8321         58
  58.8692         60
  58.9064         48
  58.9435         40
  58.9807         53
  59.0178         71
  59.0550         51
  59.0921         59
  59.1293         54
  59.1664         50
  59.2036         53
  59.2408         56
  59.2779         57
  59.3151         48
  59.3522         53
  59.3894         46
  59.4265         58
  59.4637         64
  59.5008         49
  59.5380         48
  59.5751         55
  59.6123         55
  59.6494         44
  59.6866         61
  59.7237         63
  59.7609         55
  59.7980         56
  59.8352         45
  59.8723         54
  59.9095         60
  59.9466         56
  59.9838         58
  60.0024         38