File: notebooks/data/xrd_data/ML_20220718_59_SJD_4_LaB6-4min.csv
;,2THETA,
5.0000,275
5.0372,284
5.0743,276
5.1115,264
5.1486,245
5.1858,223
5.2229,257
5.2601,263
5.2972,243
5.3344,238
5.3715,230
5.4087,252
5.4458,228
5.4830,239
5.5201,217
5.5573,209
5.5944,214
5.6316,237
5.6687,210
5.7059,183
5.7430,208
5.7802,211
5.8173,228
5.8545,203
5.8916,204
5.9288,225
5.9659,202
6.0031,181
6.0402,198
6.0774,195
6.1145,196
6.1517,187
6.1888,171
6.2260,175
6.2631,172
6.3003,195
6.3374,172
6.3746,183
6.4117,193
6.4489,178
6.4860,182
6.5232,200
6.5604,183
6.5975,155
6.6347,169
6.6718,150
6.7090,174
6.7461,158
6.7833,177
6.8204,165
6.8576,160
6.8947,154
6.9319,177
6.9690,141
7.0062,170
7.0433,164
7.0805,166
7.1176,168
7.1548,178
7.1919,153
7.2291,154
7.2662,153
7.3034,158
7.3405,149
7.3777,169
7.4148,141
7.4520,157
7.4891,158
7.5263,159
7.5634,168
7.6006,168
7.6377,177
7.6749,156
7.7120,173
7.7492,176
7.7863,191
7.8235,179
7.8606,179
7.8978,194
7.9349,183
7.9721,176
8.0092,195
8.0464,167
8.0835,203
8.1207,196
8.1579,175
8.1950,203
8.2322,214
8.2693,195
8.3065,203
8.3436,214
8.3808,193
8.4179,201
8.4551,186
8.4922,168
8.5294,227
8.5665,198
8.6037,206
8.6408,224
8.6780,240
8.7151,205
8.7523,201
8.7894,203
8.8266,197
8.8637,199
8.9009,225
8.9380,215
8.9752,209
9.0123,201
9.0495,210
9.0866,202
9.1238,199
9.1609,213
9.1981,235
9.2352,216
9.2724,231
9.3095,214
9.3467,226
9.3838,230
9.4210,270
9.4581,192
9.4953,224
9.5324,214
9.5696,224
9.6067,213
9.6439,210
9.6811,234
9.7182,222
9.7554,211
9.7925,227
9.8297,219
9.8668,248
9.9040,224
9.9411,241
9.9783,237
10.0154,231
10.0526,237
10.0897,257
10.1269,261
10.1640,231
10.2012,236
10.2383,251
10.2755,228
10.3126,240
10.3498,236
10.3869,230
10.4241,239
10.4612,243
10.4984,258
10.5355,263
10.5727,245
10.6098,249
10.6470,242
10.6841,239
10.7213,234
10.7584,236
10.7956,233
10.8327,274
10.8699,259
10.9070,236
10.9442,259
10.9813,240
11.0185,254
11.0556,245
11.0928,239
11.1299,222
11.1671,247
11.2043,230
11.2414,215
11.2786,226
11.3157,223
11.3529,268
11.3900,248
11.4272,244
11.4643,226
11.5015,239
11.5386,222
11.5758,243
11.6129,224
11.6501,217
11.6872,203
11.7244,223
11.7615,252
11.7987,247
11.8358,206
11.8730,218
11.9101,252
11.9473,210
11.9844,221
12.0216,209
12.0587,230
12.0959,247
12.1330,220
12.1702,216
12.2073,224
12.2445,227
12.2816,209
12.3188,237
12.3559,195
12.3931,243
12.4302,251
12.4674,232
12.5045,195
12.5417,221
12.5788,226
12.6160,202
12.6531,234
12.6903,215
12.7274,228
12.7646,194
12.8018,170
12.8389,220
12.8761,200
12.9132,188
12.9504,210
12.9875,202
13.0247,179
13.0618,212
13.0990,202
13.1361,183
13.1733,219
13.2104,171
13.2476,203
13.2847,213
13.3219,202
13.3590,197
13.3962,187
13.4333,207
13.4705,210
13.5076,197
13.5448,212
13.5819,200
13.6191,175
13.6562,199
13.6934,179
13.7305,195
13.7677,185
13.8048,175
13.8420,207
13.8791,186
13.9163,185
13.9534,188
13.9906,174
14.0277,172
14.0649,177
14.1020,196
14.1392,174
14.1763,170
14.2135,199
14.2506,192
14.2878,166
14.3250,147
14.3621,151
14.3993,178
14.4364,177
14.4736,191
14.5107,190
14.5479,177
14.5850,172
14.6222,197
14.6593,165
14.6965,161
14.7336,173
14.7708,169
14.8079,156
14.8451,176
14.8822,192
14.9194,135
14.9565,163
14.9937,191
15.0308,160
15.0680,157
15.1051,166
15.1423,177
15.1794,184
15.2166,174
15.2537,172
15.2909,168
15.3280,171
15.3652,187
15.4023,171
15.4395,164
15.4766,173
15.5138,152
15.5509,162
15.5881,196
15.6252,165
15.6624,175
15.6995,174
15.7367,162
15.7738,138
15.8110,167
15.8482,143
15.8853,159
15.9225,159
15.9596,191
15.9968,161
16.0339,155
16.0711,159
16.1082,168
16.1454,169
16.1825,130
16.2197,172
16.2568,161
16.2940,168
16.3311,156
16.3683,160
16.4054,110
16.4426,161
16.4797,162
16.5169,169
16.5540,164
16.5912,156
16.6283,144
16.6655,138
16.7026,150
16.7398,157
16.7769,172
16.8141,126
16.8512,161
16.8884,142
16.9255,150
16.9627,146
16.9998,145
17.0370,164
17.0741,174
17.1113,175
17.1484,165
17.1856,163
17.2227,168
17.2599,165
17.2970,168
17.3342,156
17.3713,164
17.4085,172
17.4457,151
17.4828,168
17.5200,163
17.5571,166
17.5943,165
17.6314,166
17.6686,171
17.7057,173
17.7429,187
17.7800,165
17.8172,158
17.8543,142
17.8915,152
17.9286,167
17.9658,158
18.0029,162
18.0401,175
18.0772,184
18.1144,165
18.1515,169
18.1887,156
18.2258,178
18.2630,170
18.3001,172
18.3373,176
18.3744,169
18.4116,149
18.4487,164
18.4859,158
18.5230,173
18.5602,171
18.5973,163
18.6345,179
18.6716,161
18.7088,154
18.7459,176
18.7831,174
18.8202,164
18.8574,199
18.8945,166
18.9317,180
18.9689,168
19.0060,182
19.0432,175
19.0803,158
19.1175,162
19.1546,156
19.1918,158
19.2289,168
19.2661,165
19.3032,179
19.3404,186
19.3775,174
19.4147,184
19.4518,178
19.4890,162
19.5261,177
19.5633,160
19.6004,167
19.6376,156
19.6747,173
19.7119,174
19.7490,195
19.7862,179
19.8233,169
19.8605,203
19.8976,174
19.9348,191
19.9719,189
20.0091,176
20.0462,190
20.0834,185
20.1205,195
20.1577,182
20.1948,183
20.2320,174
20.2691,178
20.3063,177
20.3434,182
20.3806,163
20.4177,189
20.4549,194
20.4921,196
20.5292,185
20.5664,197
20.6035,190
20.6407,183
20.6778,167
20.7150,188
20.7521,194
20.7893,193
20.8264,182
20.8636,210
20.9007,211
20.9379,208
20.9750,221
21.0122,215
21.0493,214
21.0865,188
21.1236,222
21.1608,267
21.1979,264
21.2351,307
21.2722,307
21.3094,338
21.3465,512
21.3837,422
21.4208,339
21.4580,224
21.4951,200
21.5323,226
21.5694,214
21.6066,187
21.6437,213
21.6809,209
21.7180,177
21.7552,185
21.7923,192
21.8295,194
21.8666,185
21.9038,201
21.9409,197
21.9781,212
22.0152,169
22.0524,218
22.0896,183
22.1267,191
22.1639,211
22.2010,187
22.2382,206
22.2753,186
22.3125,207
22.3496,187
22.3868,201
22.4239,196
22.4611,208
22.4982,206
22.5354,220
22.5725,157
22.6097,198
22.6468,178
22.6840,185
22.7211,187
22.7583,181
22.7954,192
22.8326,205
22.8697,172
22.9069,181
22.9440,197
22.9812,225
23.0183,187
23.0555,197
23.0926,189
23.1298,188
23.1669,189
23.2041,185
23.2412,207
23.2784,198
23.3155,227
23.3527,209
23.3898,212
23.4270,225
23.4641,220
23.5013,203
23.5384,189
23.5756,187
23.6128,204
23.6499,199
23.6871,203
23.7242,211
23.7614,200
23.7985,218
23.8357,199
23.8728,179
23.9100,208
23.9471,217
23.9843,200
24.0214,206
24.0586,192
24.0957,205
24.1329,224
24.1700,190
24.2072,231
24.2443,236
24.2815,227
24.3186,230
24.3558,218
24.3929,209
24.4301,197
24.4672,205
24.5044,222
24.5415,190
24.5787,221
24.6158,192
24.6530,184
24.6901,194
24.7273,215
24.7644,202
24.8016,212
24.8387,205
24.8759,180
24.9130,190
24.9502,221
24.9873,214
25.0245,220
25.0616,201
25.0988,208
25.1360,235
25.1731,192
25.2103,213
25.2474,204
25.2846,207
25.3217,200
25.3589,220
25.3960,202
25.4332,191
25.4703,209
25.5075,192
25.5446,187
25.5818,186
25.6189,183
25.6561,192
25.6932,200
25.7304,198
25.7675,188
25.8047,184
25.8418,198
25.8790,184
25.9161,207
25.9533,192
25.9904,185
26.0276,168
26.0647,191
26.1019,193
26.1390,176
26.1762,181
26.2133,191
26.2505,176
26.2876,206
26.3248,175
26.3619,180
26.3991,196
26.4362,182
26.4734,183
26.5105,194
26.5477,185
26.5848,198
26.6220,200
26.6591,182
26.6963,197
26.7335,199
26.7706,164
26.8078,206
26.8449,157
26.8821,207
26.9192,177
26.9564,180
26.9935,177
27.0307,193
27.0678,187
27.1050,194
27.1421,198
27.1793,215
27.2164,248
27.2536,231
27.2907,212
27.3279,214
27.3650,184
27.4022,185
27.4393,183
27.4765,191
27.5136,178
27.5508,187
27.5879,189
27.6251,165
27.6622,178
27.6994,206
27.7365,153
27.7737,186
27.8108,170
27.8480,172
27.8851,204
27.9223,189
27.9594,170
27.9966,185
28.0337,171
28.0709,177
28.1080,183
28.1452,148
28.1823,180
28.2195,183
28.2567,150
28.2938,195
28.3310,166
28.3681,181
28.4053,174
28.4424,170
28.4796,161
28.5167,172
28.5539,157
28.5910,159
28.6282,160
28.6653,164
28.7025,168
28.7396,165
28.7768,176
28.8139,169
28.8511,169
28.8882,156
28.9254,170
28.9625,169
28.9997,168
29.0368,152
29.0740,165
29.1111,170
29.1483,153
29.1854,168
29.2226,136
29.2597,176
29.2969,150
29.3340,156
29.3712,158
29.4083,153
29.4455,125
29.4826,160
29.5198,153
29.5569,143
29.5941,130
29.6312,186
29.6684,157
29.7055,163
29.7427,169
29.7799,167
29.8170,167
29.8542,145
29.8913,154
29.9285,156
29.9656,156
30.0028,165
30.0399,139
30.0771,183
30.1142,164
30.1514,143
30.1885,184
30.2257,157
30.2628,185
30.3000,158
30.3371,188
30.3743,302
30.4114,282
30.4486,260
30.4857,203
30.5229,160
30.5600,159
30.5972,176
30.6343,158
30.6715,148
30.7086,161
30.7458,162
30.7829,139
30.8201,134
30.8572,145
30.8944,157
30.9315,153
30.9687,129
31.0058,141
31.0430,160
31.0801,125
31.1173,147
31.1544,133
31.1916,152
31.2287,143
31.2659,126
31.3030,144
31.3402,156
31.3774,146
31.4145,146
31.4517,126
31.4888,154
31.5260,147
31.5631,132
31.6003,145
31.6374,137
31.6746,130
31.7117,143
31.7489,120
31.7860,122
31.8232,135
31.8603,155
31.8975,135
31.9346,135
31.9718,137
32.0089,144
32.0461,132
32.0832,135
32.1204,121
32.1575,137
32.1947,119
32.2318,144
32.2690,124
32.3061,134
32.3433,135
32.3804,125
32.4176,152
32.4547,128
32.4919,159
32.5290,137
32.5662,143
32.6033,139
32.6405,141
32.6776,147
32.7148,111
32.7519,130
32.7891,134
32.8262,117
32.8634,129
32.9006,134
32.9377,137
32.9749,141
33.0120,130
33.0492,128
33.0863,102
33.1235,124
33.1606,136
33.1978,129
33.2349,120
33.2721,135
33.3092,124
33.3464,139
33.3835,115
33.4207,124
33.4578,116
33.4950,120
33.5321,131
33.5693,133
33.6064,110
33.6436,102
33.6807,99
33.7179,103
33.7550,102
33.7922,133
33.8293,100
33.8665,116
33.9036,118
33.9408,110
33.9779,115
34.0151,107
34.0522,122
34.0894,104
34.1265,107
34.1637,121
34.2008,124
34.2380,115
34.2751,95
34.3123,123
34.3494,116
34.3866,123
34.4238,112
34.4609,116
34.4981,128
34.5352,113
34.5724,131
34.6095,149
34.6467,115
34.6838,107
34.7210,164
34.7581,198
34.7953,145
34.8324,120
34.8696,131
34.9067,104
34.9439,120
34.9810,117
35.0182,106
35.0553,98
35.0925,120
35.1296,105
35.1668,115
35.2039,119
35.2411,110
35.2782,89
35.3154,84
35.3525,76
35.3897,88
35.4268,90
35.4640,96
35.5011,106
35.5383,92
35.5754,103
35.6126,91
35.6497,98
35.6869,92
35.7240,98
35.7612,103
35.7983,113
35.8355,97
35.8726,93
35.9098,118
35.9469,101
35.9841,90
36.0213,113
36.0584,82
36.0956,92
36.1327,90
36.1699,88
36.2070,98
36.2442,104
36.2813,90
36.3185,100
36.3556,98
36.3928,90
36.4299,85
36.4671,102
36.5042,105
36.5414,93
36.5785,90
36.6157,90
36.6528,104
36.6900,87
36.7271,108
36.7643,84
36.8014,92
36.8386,95
36.8757,96
36.9129,103
36.9500,84
36.9872,81
37.0243,92
37.0615,98
37.0986,85
37.1358,79
37.1729,88
37.2101,76
37.2472,95
37.2844,82
37.3215,106
37.3587,113
37.3958,108
37.4330,172
37.4701,129
37.5073,133
37.5445,145
37.5816,102
37.6188,85
37.6559,76
37.6931,92
37.7302,83
37.7674,81
37.8045,92
37.8417,94
37.8788,76
37.9160,94
37.9531,83
37.9903,87
38.0274,83
38.0646,111
38.1017,97
38.1389,100
38.1760,100
38.2132,96
38.2503,85
38.2875,81
38.3246,74
38.3618,89
38.3989,93
38.4361,94
38.4732,88
38.5104,90
38.5475,80
38.5847,62
38.6218,85
38.6590,81
38.6961,80
38.7333,81
38.7704,80
38.8076,75
38.8447,93
38.8819,82
38.9190,80
38.9562,63
38.9933,90
39.0305,71
39.0677,65
39.1048,74
39.1420,88
39.1791,84
39.2163,74
39.2534,83
39.2906,88
39.3277,70
39.3649,70
39.4020,80
39.4392,91
39.4763,77
39.5135,75
39.5506,74
39.5878,71
39.6249,79
39.6621,64
39.6992,86
39.7364,80
39.7735,77
39.8107,75
39.8478,71
39.8850,82
39.9221,101
39.9593,76
39.9964,91
40.0336,81
40.0707,77
40.1079,80
40.1450,66
40.1822,69
40.2193,83
40.2565,88
40.2936,71
40.3308,74
40.3679,63
40.4051,74
40.4422,75
40.4794,79
40.5165,70
40.5537,88
40.5908,71
40.6280,68
40.6652,66
40.7023,84
40.7395,69
40.7766,71
40.8138,65
40.8509,76
40.8881,76
40.9252,71
40.9624,79
40.9995,82
41.0367,85
41.0738,96
41.1110,79
41.1481,83
41.1853,68
41.2224,77
41.2596,82
41.2967,94
41.3339,98
41.3710,86
41.4082,82
41.4453,68
41.4825,75
41.5196,82
41.5568,86
41.5939,72
41.6311,86
41.6682,58
41.7054,88
41.7425,86
41.7797,73
41.8168,69
41.8540,66
41.8911,67
41.9283,79
41.9654,64
42.0026,80
42.0397,80
42.0769,68
42.1140,67
42.1512,74
42.1884,68
42.2255,79
42.2627,101
42.2998,85
42.3370,73
42.3741,72
42.4113,49
42.4484,64
42.4856,88
42.5227,81
42.5599,66
42.5970,76
42.6342,79
42.6713,74
42.7085,72
42.7456,70
42.7828,75
42.8199,75
42.8571,66
42.8942,87
42.9314,77
42.9685,75
43.0057,79
43.0428,91
43.0800,70
43.1171,89
43.1543,69
43.1914,75
43.2286,88
43.2657,96
43.3029,82
43.3400,87
43.3772,89
43.4143,96
43.4515,89
43.4886,102
43.5258,129
43.5629,80
43.6001,94
43.6372,102
43.6744,86
43.7116,71
43.7487,83
43.7859,72
43.8230,93
43.8602,61
43.8973,60
43.9345,61
43.9716,66
44.0088,58
44.0459,78
44.0831,68
44.1202,68
44.1574,64
44.1945,69
44.2317,88
44.2688,78
44.3060,72
44.3431,80
44.3803,68
44.4174,75
44.4546,77
44.4917,75
44.5289,65
44.5660,89
44.6032,82
44.6403,78
44.6775,86
44.7146,83
44.7518,74
44.7889,65
44.8261,73
44.8632,76
44.9004,79
44.9375,71
44.9747,68
45.0118,62
45.0490,59
45.0861,74
45.1233,71
45.1604,72
45.1976,72
45.2347,63
45.2719,63
45.3091,50
45.3462,51
45.3834,81
45.4205,83
45.4577,79
45.4948,81
45.5320,68
45.5691,66
45.6063,50
45.6434,66
45.6806,71
45.7177,69
45.7549,66
45.7920,55
45.8292,70
45.8663,65
45.9035,65
45.9406,69
45.9778,62
46.0149,72
46.0521,76
46.0892,51
46.1264,79
46.1635,47
46.2007,68
46.2378,70
46.2750,76
46.3121,63
46.3493,61
46.3864,73
46.4236,72
46.4607,54
46.4979,57
46.5350,68
46.5722,67
46.6093,65
46.6465,65
46.6836,68
46.7208,66
46.7579,61
46.7951,71
46.8323,76
46.8694,65
46.9066,62
46.9437,66
46.9809,72
47.0180,68
47.0552,65
47.0923,74
47.1295,75
47.1666,61
47.2038,69
47.2409,64
47.2781,69
47.3152,67
47.3524,56
47.3895,50
47.4267,66
47.4638,59
47.5010,64
47.5381,58
47.5753,68
47.6124,79
47.6496,73
47.6867,56
47.7239,69
47.7610,63
47.7982,74
47.8353,56
47.8725,59
47.9096,58
47.9468,60
47.9839,66
48.0211,60
48.0582,63
48.0954,71
48.1325,50
48.1697,59
48.2068,64
48.2440,77
48.2811,60
48.3183,49
48.3555,59
48.3926,79
48.4298,74
48.4669,76
48.5041,67
48.5412,61
48.5784,66
48.6155,53
48.6527,65
48.6898,70
48.7270,71
48.7641,72
48.8013,74
48.8384,70
48.8756,73
48.9127,74
48.9499,105
48.9870,103
49.0242,75
49.0613,84
49.0985,79
49.1356,70
49.1728,72
49.2099,65
49.2471,66
49.2842,64
49.3214,55
49.3585,77
49.3957,63
49.4328,56
49.4700,64
49.5071,78
49.5443,68
49.5814,50
49.6186,76
49.6557,47
49.6929,60
49.7300,71
49.7672,60
49.8043,64
49.8415,68
49.8786,66
49.9158,55
49.9530,57
49.9901,43
50.0273,51
50.0644,72
50.1016,71
50.1387,58
50.1759,55
50.2130,74
50.2502,61
50.2873,55
50.3245,59
50.3616,61
50.3988,56
50.4359,68
50.4731,62
50.5102,85
50.5474,68
50.5845,59
50.6217,57
50.6588,58
50.6960,65
50.7331,54
50.7703,73
50.8074,60
50.8446,49
50.8817,55
50.9189,50
50.9560,64
50.9932,72
51.0303,68
51.0675,57
51.1046,57
51.1418,55
51.1789,59
51.2161,50
51.2532,57
51.2904,72
51.3275,50
51.3647,67
51.4018,65
51.4390,64
51.4762,75
51.5133,52
51.5505,67
51.5876,63
51.6248,58
51.6619,56
51.6991,51
51.7362,72
51.7734,68
51.8105,72
51.8477,56
51.8848,58
51.9220,56
51.9591,69
51.9963,66
52.0334,56
52.0706,45
52.1077,57
52.1449,59
52.1820,64
52.2192,60
52.2563,60
52.2935,56
52.3306,54
52.3678,57
52.4049,53
52.4421,61
52.4792,57
52.5164,68
52.5535,69
52.5907,59
52.6278,55
52.6650,59
52.7021,53
52.7393,63
52.7764,63
52.8136,61
52.8507,64
52.8879,62
52.9250,53
52.9622,57
52.9994,59
53.0365,67
53.0737,74
53.1108,60
53.1480,68
53.1851,54
53.2223,51
53.2594,63
53.2966,68
53.3337,54
53.3709,45
53.4080,63
53.4452,46
53.4823,58
53.5195,55
53.5566,56
53.5938,54
53.6309,54
53.6681,60
53.7052,66
53.7424,65
53.7795,59
53.8167,40
53.8538,58
53.8910,59
53.9281,63
53.9653,73
54.0024,87
54.0396,71
54.0767,62
54.1139,66
54.1510,60
54.1882,68
54.2253,56
54.2625,56
54.2996,65
54.3368,58
54.3739,55
54.4111,58
54.4482,62
54.4854,59
54.5225,56
54.5597,61
54.5969,52
54.6340,61
54.6712,39
54.7083,64
54.7455,45
54.7826,71
54.8198,51
54.8569,65
54.8941,44
54.9312,62
54.9684,54
55.0055,42
55.0427,56
55.0798,50
55.1170,51
55.1541,50
55.1913,49
55.2284,60
55.2656,60
55.3027,60
55.3399,49
55.3770,61
55.4142,57
55.4513,50
55.4885,47
55.5256,57
55.5628,56
55.5999,46
55.6371,59
55.6742,56
55.7114,51
55.7485,43
55.7857,62
55.8228,62
55.8600,65
55.8971,70
55.9343,61
55.9714,47
56.0086,53
56.0457,64
56.0829,57
56.1201,68
56.1572,62
56.1944,78
56.2315,63
56.2687,58
56.3058,65
56.3430,58
56.3801,61
56.4173,62
56.4544,55
56.4916,54
56.5287,53
56.5659,61
56.6030,62
56.6402,48
56.6773,50
56.7145,48
56.7516,60
56.7888,57
56.8259,61
56.8631,51
56.9002,49
56.9374,65
56.9745,64
57.0117,67
57.0488,44
57.0860,66
57.1231,61
57.1603,54
57.1974,54
57.2346,48
57.2717,60
57.3089,55
57.3460,53
57.3832,50
57.4203,64
57.4575,59
57.4946,58
57.5318,62
57.5689,65
57.6061,48
57.6433,56
57.6804,64
57.7176,53
57.7547,46
57.7919,58
57.8290,58
57.8662,49
57.9033,74
57.9405,50
57.9776,59
58.0148,54
58.0519,49
58.0891,54
58.1262,66
58.1634,63
58.2005,50
58.2377,52
58.2748,61
58.3120,59
58.3491,44
58.3863,49
58.4234,39
58.4606,61
58.4977,62
58.5349,65
58.5720,69
58.6092,63
58.6463,60
58.6835,50
58.7206,62
58.7578,53
58.7949,57
58.8321,57
58.8692,47
58.9064,54
58.9435,62
58.9807,41
59.0178,63
59.0550,67
59.0921,57
59.1293,55
59.1664,42
59.2036,49
59.2408,60
59.2779,42
59.3151,46
59.3522,55
59.3894,68
59.4265,60
59.4637,61
59.5008,48
59.5380,69
59.5751,60
59.6123,60
59.6494,53
59.6866,51
59.7237,66
59.7609,51
59.7980,37
59.8352,46
59.8723,51
59.9095,56
59.9466,62
59.9838,63
60.0024,66