File: notebooks/data/xrd_data/ML_20220718_59_SJD_4_LaB6-1min.csv
;,2THETA,
5.0000,102
5.0372,89
5.0743,111
5.1115,93
5.1486,106
5.1858,83
5.2229,96
5.2601,98
5.2972,92
5.3344,85
5.3715,76
5.4087,90
5.4458,84
5.4830,102
5.5201,75
5.5573,75
5.5944,74
5.6316,70
5.6687,80
5.7059,86
5.7430,85
5.7802,78
5.8173,86
5.8545,67
5.8916,70
5.9288,78
5.9659,86
6.0031,63
6.0402,94
6.0774,73
6.1145,81
6.1517,61
6.1888,73
6.2260,60
6.2631,71
6.3003,81
6.3374,78
6.3746,68
6.4117,72
6.4489,66
6.4860,59
6.5232,71
6.5604,63
6.5975,62
6.6347,60
6.6718,67
6.7090,47
6.7461,63
6.7833,51
6.8204,51
6.8576,64
6.8947,67
6.9319,69
6.9690,65
7.0062,54
7.0433,53
7.0805,54
7.1176,79
7.1548,67
7.1919,65
7.2291,66
7.2662,55
7.3034,68
7.3405,58
7.3777,75
7.4148,51
7.4520,60
7.4891,58
7.5263,58
7.5634,47
7.6006,57
7.6377,60
7.6749,54
7.7120,56
7.7492,62
7.7863,59
7.8235,80
7.8606,57
7.8978,70
7.9349,81
7.9721,46
8.0092,76
8.0464,53
8.0835,55
8.1207,69
8.1579,60
8.1950,64
8.2322,56
8.2693,72
8.3065,84
8.3436,71
8.3808,56
8.4179,80
8.4551,58
8.4922,68
8.5294,61
8.5665,84
8.6037,86
8.6408,76
8.6780,64
8.7151,71
8.7523,87
8.7894,69
8.8266,76
8.8637,82
8.9009,60
8.9380,71
8.9752,86
9.0123,92
9.0495,76
9.0866,63
9.1238,73
9.1609,92
9.1981,85
9.2352,81
9.2724,66
9.3095,77
9.3467,88
9.3838,77
9.4210,75
9.4581,102
9.4953,88
9.5324,82
9.5696,64
9.6067,85
9.6439,51
9.6811,73
9.7182,76
9.7554,69
9.7925,86
9.8297,90
9.8668,105
9.9040,91
9.9411,80
9.9783,79
10.0154,91
10.0526,99
10.0897,81
10.1269,89
10.1640,83
10.2012,85
10.2383,87
10.2755,86
10.3126,79
10.3498,76
10.3869,91
10.4241,91
10.4612,91
10.4984,83
10.5355,89
10.5727,85
10.6098,95
10.6470,95
10.6841,74
10.7213,87
10.7584,83
10.7956,85
10.8327,100
10.8699,91
10.9070,91
10.9442,104
10.9813,87
11.0185,82
11.0556,77
11.0928,82
11.1299,83
11.1671,60
11.2043,87
11.2414,88
11.2786,102
11.3157,86
11.3529,77
11.3900,99
11.4272,90
11.4643,86
11.5015,91
11.5386,65
11.5758,100
11.6129,88
11.6501,77
11.6872,95
11.7244,74
11.7615,72
11.7987,98
11.8358,104
11.8730,83
11.9101,88
11.9473,61
11.9844,70
12.0216,86
12.0587,84
12.0959,78
12.1330,87
12.1702,95
12.2073,76
12.2445,85
12.2816,79
12.3188,77
12.3559,65
12.3931,77
12.4302,92
12.4674,68
12.5045,80
12.5417,70
12.5788,67
12.6160,79
12.6531,97
12.6903,64
12.7274,80
12.7646,74
12.8018,91
12.8389,80
12.8761,91
12.9132,73
12.9504,82
12.9875,94
13.0247,79
13.0618,79
13.0990,74
13.1361,75
13.1733,73
13.2104,72
13.2476,61
13.2847,83
13.3219,64
13.3590,73
13.3962,72
13.4333,74
13.4705,66
13.5076,72
13.5448,72
13.5819,74
13.6191,56
13.6562,59
13.6934,83
13.7305,58
13.7677,77
13.8048,63
13.8420,64
13.8791,83
13.9163,72
13.9534,64
13.9906,70
14.0277,52
14.0649,74
14.1020,70
14.1392,65
14.1763,79
14.2135,68
14.2506,61
14.2878,54
14.3250,85
14.3621,53
14.3993,67
14.4364,62
14.4736,61
14.5107,67
14.5479,58
14.5850,52
14.6222,60
14.6593,68
14.6965,75
14.7336,63
14.7708,63
14.8079,61
14.8451,68
14.8822,63
14.9194,57
14.9565,57
14.9937,70
15.0308,61
15.0680,57
15.1051,55
15.1423,55
15.1794,62
15.2166,58
15.2537,58
15.2909,55
15.3280,60
15.3652,59
15.4023,53
15.4395,59
15.4766,49
15.5138,61
15.5509,44
15.5881,71
15.6252,71
15.6624,60
15.6995,59
15.7367,61
15.7738,58
15.8110,77
15.8482,59
15.8853,59
15.9225,56
15.9596,53
15.9968,57
16.0339,64
16.0711,59
16.1082,61
16.1454,55
16.1825,57
16.2197,70
16.2568,60
16.2940,61
16.3311,54
16.3683,53
16.4054,51
16.4426,51
16.4797,60
16.5169,62
16.5540,55
16.5912,72
16.6283,70
16.6655,57
16.7026,82
16.7398,61
16.7769,49
16.8141,58
16.8512,58
16.8884,66
16.9255,69
16.9627,68
16.9998,64
17.0370,46
17.0741,69
17.1113,72
17.1484,50
17.1856,51
17.2227,56
17.2599,72
17.2970,60
17.3342,55
17.3713,63
17.4085,79
17.4457,71
17.4828,48
17.5200,60
17.5571,49
17.5943,60
17.6314,53
17.6686,54
17.7057,59
17.7429,52
17.7800,61
17.8172,64
17.8543,62
17.8915,56
17.9286,77
17.9658,57
18.0029,55
18.0401,55
18.0772,51
18.1144,72
18.1515,57
18.1887,70
18.2258,61
18.2630,55
18.3001,55
18.3373,62
18.3744,66
18.4116,72
18.4487,57
18.4859,57
18.5230,59
18.5602,48
18.5973,59
18.6345,67
18.6716,73
18.7088,47
18.7459,58
18.7831,66
18.8202,61
18.8574,69
18.8945,63
18.9317,65
18.9689,68
19.0060,61
19.0432,58
19.0803,73
19.1175,65
19.1546,59
19.1918,65
19.2289,51
19.2661,51
19.3032,54
19.3404,53
19.3775,63
19.4147,59
19.4518,65
19.4890,67
19.5261,64
19.5633,80
19.6004,64
19.6376,70
19.6747,65
19.7119,55
19.7490,55
19.7862,59
19.8233,58
19.8605,55
19.8976,64
19.9348,51
19.9719,55
20.0091,63
20.0462,69
20.0834,63
20.1205,81
20.1577,72
20.1948,64
20.2320,66
20.2691,68
20.3063,67
20.3434,63
20.3806,67
20.4177,67
20.4549,60
20.4921,55
20.5292,70
20.5664,62
20.6035,65
20.6407,71
20.6778,63
20.7150,69
20.7521,72
20.7893,70
20.8264,64
20.8636,97
20.9007,71
20.9379,64
20.9750,62
21.0122,69
21.0493,69
21.0865,74
21.1236,73
21.1608,91
21.1979,114
21.2351,101
21.2722,113
21.3094,114
21.3465,181
21.3837,170
21.4208,125
21.4580,91
21.4951,69
21.5323,79
21.5694,72
21.6066,68
21.6437,56
21.6809,78
21.7180,70
21.7552,73
21.7923,68
21.8295,68
21.8666,68
21.9038,79
21.9409,72
21.9781,69
22.0152,73
22.0524,62
22.0896,83
22.1267,85
22.1639,73
22.2010,65
22.2382,69
22.2753,74
22.3125,73
22.3496,57
22.3868,74
22.4239,76
22.4611,71
22.4982,68
22.5354,82
22.5725,72
22.6097,86
22.6468,67
22.6840,74
22.7211,55
22.7583,70
22.7954,71
22.8326,89
22.8697,75
22.9069,84
22.9440,65
22.9812,69
23.0183,63
23.0555,67
23.0926,90
23.1298,64
23.1669,70
23.2041,77
23.2412,73
23.2784,73
23.3155,69
23.3527,63
23.3898,75
23.4270,55
23.4641,65
23.5013,68
23.5384,78
23.5756,69
23.6128,73
23.6499,71
23.6871,76
23.7242,68
23.7614,85
23.7985,77
23.8357,65
23.8728,71
23.9100,75
23.9471,83
23.9843,77
24.0214,59
24.0586,76
24.0957,80
24.1329,61
24.1700,77
24.2072,67
24.2443,76
24.2815,108
24.3186,78
24.3558,63
24.3929,87
24.4301,65
24.4672,76
24.5044,84
24.5415,63
24.5787,78
24.6158,83
24.6530,53
24.6901,73
24.7273,77
24.7644,85
24.8016,60
24.8387,56
24.8759,63
24.9130,85
24.9502,74
24.9873,83
25.0245,73
25.0616,68
25.0988,87
25.1360,65
25.1731,73
25.2103,78
25.2474,59
25.2846,63
25.3217,61
25.3589,80
25.3960,52
25.4332,75
25.4703,56
25.5075,70
25.5446,68
25.5818,54
25.6189,56
25.6561,63
25.6932,74
25.7304,69
25.7675,75
25.8047,58
25.8418,60
25.8790,62
25.9161,62
25.9533,57
25.9904,65
26.0276,72
26.0647,61
26.1019,67
26.1390,68
26.1762,59
26.2133,70
26.2505,66
26.2876,67
26.3248,71
26.3619,72
26.3991,78
26.4362,65
26.4734,75
26.5105,74
26.5477,80
26.5848,60
26.6220,55
26.6591,74
26.6963,70
26.7335,61
26.7706,67
26.8078,66
26.8449,64
26.8821,71
26.9192,54
26.9564,64
26.9935,68
27.0307,64
27.0678,87
27.1050,83
27.1421,79
27.1793,82
27.2164,85
27.2536,73
27.2907,84
27.3279,71
27.3650,63
27.4022,66
27.4393,70
27.4765,69
27.5136,81
27.5508,68
27.5879,69
27.6251,60
27.6622,58
27.6994,90
27.7365,64
27.7737,64
27.8108,72
27.8480,76
27.8851,64
27.9223,67
27.9594,58
27.9966,74
28.0337,69
28.0709,82
28.1080,55
28.1452,53
28.1823,79
28.2195,60
28.2567,62
28.2938,58
28.3310,73
28.3681,55
28.4053,63
28.4424,57
28.4796,68
28.5167,68
28.5539,59
28.5910,69
28.6282,58
28.6653,47
28.7025,54
28.7396,56
28.7768,60
28.8139,56
28.8511,65
28.8882,58
28.9254,44
28.9625,51
28.9997,54
29.0368,57
29.0740,61
29.1111,58
29.1483,62
29.1854,62
29.2226,56
29.2597,67
29.2969,61
29.3340,54
29.3712,70
29.4083,56
29.4455,45
29.4826,67
29.5198,67
29.5569,53
29.5941,58
29.6312,52
29.6684,65
29.7055,69
29.7427,56
29.7799,61
29.8170,66
29.8542,60
29.8913,63
29.9285,51
29.9656,46
30.0028,46
30.0399,60
30.0771,51
30.1142,47
30.1514,61
30.1885,55
30.2257,63
30.2628,73
30.3000,56
30.3371,78
30.3743,106
30.4114,109
30.4486,84
30.4857,77
30.5229,61
30.5600,60
30.5972,50
30.6343,60
30.6715,59
30.7086,46
30.7458,56
30.7829,59
30.8201,55
30.8572,46
30.8944,36
30.9315,56
30.9687,50
31.0058,64
31.0430,51
31.0801,56
31.1173,46
31.1544,50
31.1916,55
31.2287,60
31.2659,48
31.3030,50
31.3402,44
31.3774,51
31.4145,65
31.4517,61
31.4888,32
31.5260,49
31.5631,58
31.6003,48
31.6374,47
31.6746,45
31.7117,49
31.7489,43
31.7860,59
31.8232,42
31.8603,48
31.8975,43
31.9346,48
31.9718,54
32.0089,44
32.0461,32
32.0832,35
32.1204,49
32.1575,56
32.1947,39
32.2318,40
32.2690,48
32.3061,52
32.3433,39
32.3804,45
32.4176,37
32.4547,46
32.4919,46
32.5290,61
32.5662,39
32.6033,45
32.6405,46
32.6776,36
32.7148,44
32.7519,56
32.7891,52
32.8262,54
32.8634,55
32.9006,44
32.9377,45
32.9749,49
33.0120,52
33.0492,57
33.0863,34
33.1235,54
33.1606,39
33.1978,52
33.2349,49
33.2721,37
33.3092,52
33.3464,41
33.3835,53
33.4207,47
33.4578,46
33.4950,53
33.5321,43
33.5693,49
33.6064,47
33.6436,41
33.6807,53
33.7179,44
33.7550,53
33.7922,37
33.8293,40
33.8665,39
33.9036,50
33.9408,41
33.9779,36
34.0151,41
34.0522,52
34.0894,33
34.1265,46
34.1637,48
34.2008,43
34.2380,33
34.2751,44
34.3123,39
34.3494,53
34.3866,42
34.4238,59
34.4609,40
34.4981,37
34.5352,42
34.5724,52
34.6095,44
34.6467,31
34.6838,53
34.7210,60
34.7581,58
34.7953,62
34.8324,43
34.8696,60
34.9067,34
34.9439,43
34.9810,43
35.0182,54
35.0553,34
35.0925,31
35.1296,33
35.1668,40
35.2039,45
35.2411,51
35.2782,41
35.3154,37
35.3525,31
35.3897,36
35.4268,35
35.4640,46
35.5011,35
35.5383,33
35.5754,36
35.6126,19
35.6497,31
35.6869,32
35.7240,38
35.7612,37
35.7983,34
35.8355,46
35.8726,36
35.9098,39
35.9469,34
35.9841,36
36.0213,44
36.0584,38
36.0956,39
36.1327,33
36.1699,38
36.2070,32
36.2442,30
36.2813,39
36.3185,35
36.3556,42
36.3928,39
36.4299,38
36.4671,30
36.5042,34
36.5414,28
36.5785,29
36.6157,39
36.6528,41
36.6900,36
36.7271,39
36.7643,35
36.8014,36
36.8386,36
36.8757,31
36.9129,32
36.9500,21
36.9872,36
37.0243,37
37.0615,35
37.0986,35
37.1358,35
37.1729,38
37.2101,30
37.2472,22
37.2844,37
37.3215,47
37.3587,33
37.3958,43
37.4330,60
37.4701,44
37.5073,48
37.5445,45
37.5816,40
37.6188,42
37.6559,33
37.6931,27
37.7302,29
37.7674,28
37.8045,26
37.8417,27
37.8788,29
37.9160,28
37.9531,29
37.9903,26
38.0274,31
38.0646,30
38.1017,37
38.1389,36
38.1760,30
38.2132,33
38.2503,29
38.2875,32
38.3246,38
38.3618,29
38.3989,35
38.4361,34
38.4732,36
38.5104,43
38.5475,34
38.5847,32
38.6218,37
38.6590,21
38.6961,32
38.7333,32
38.7704,28
38.8076,30
38.8447,30
38.8819,36
38.9190,28
38.9562,35
38.9933,32
39.0305,34
39.0677,34
39.1048,36
39.1420,25
39.1791,18
39.2163,32
39.2534,21
39.2906,25
39.3277,30
39.3649,20
39.4020,32
39.4392,29
39.4763,34
39.5135,35
39.5506,27
39.5878,31
39.6249,36
39.6621,28
39.6992,28
39.7364,30
39.7735,28
39.8107,28
39.8478,28
39.8850,28
39.9221,26
39.9593,36
39.9964,32
40.0336,30
40.0707,28
40.1079,27
40.1450,31
40.1822,34
40.2193,25
40.2565,27
40.2936,22
40.3308,35
40.3679,31
40.4051,29
40.4422,17
40.4794,29
40.5165,28
40.5537,23
40.5908,29
40.6280,30
40.6652,15
40.7023,31
40.7395,28
40.7766,25
40.8138,29
40.8509,32
40.8881,29
40.9252,22
40.9624,29
40.9995,25
41.0367,43
41.0738,31
41.1110,28
41.1481,25
41.1853,20
41.2224,23
41.2596,37
41.2967,19
41.3339,21
41.3710,23
41.4082,37
41.4453,28
41.4825,26
41.5196,27
41.5568,35
41.5939,30
41.6311,27
41.6682,22
41.7054,28
41.7425,22
41.7797,27
41.8168,32
41.8540,32
41.8911,36
41.9283,23
41.9654,30
42.0026,28
42.0397,30
42.0769,28
42.1140,25
42.1512,31
42.1884,34
42.2255,35
42.2627,35
42.2998,27
42.3370,29
42.3741,26
42.4113,21
42.4484,26
42.4856,25
42.5227,32
42.5599,27
42.5970,24
42.6342,20
42.6713,35
42.7085,24
42.7456,33
42.7828,25
42.8199,26
42.8571,30
42.8942,25
42.9314,19
42.9685,28
43.0057,27
43.0428,35
43.0800,30
43.1171,35
43.1543,31
43.1914,14
43.2286,33
43.2657,35
43.3029,20
43.3400,29
43.3772,27
43.4143,24
43.4515,35
43.4886,35
43.5258,47
43.5629,54
43.6001,42
43.6372,45
43.6744,26
43.7116,30
43.7487,34
43.7859,19
43.8230,26
43.8602,26
43.8973,21
43.9345,38
43.9716,21
44.0088,26
44.0459,24
44.0831,31
44.1202,29
44.1574,37
44.1945,24
44.2317,28
44.2688,14
44.3060,26
44.3431,25
44.3803,25
44.4174,32
44.4546,17
44.4917,20
44.5289,28
44.5660,29
44.6032,29
44.6403,32
44.6775,31
44.7146,33
44.7518,31
44.7889,20
44.8261,26
44.8632,30
44.9004,22
44.9375,22
44.9747,30
45.0118,31
45.0490,17
45.0861,16
45.1233,33
45.1604,21
45.1976,22
45.2347,23
45.2719,27
45.3091,22
45.3462,25
45.3834,21
45.4205,24
45.4577,25
45.4948,19
45.5320,27
45.5691,26
45.6063,21
45.6434,13
45.6806,26
45.7177,22
45.7549,27
45.7920,23
45.8292,24
45.8663,16
45.9035,30
45.9406,22
45.9778,23
46.0149,19
46.0521,22
46.0892,24
46.1264,30
46.1635,17
46.2007,26
46.2378,25
46.2750,30
46.3121,33
46.3493,25
46.3864,23
46.4236,29
46.4607,23
46.4979,15
46.5350,26
46.5722,20
46.6093,28
46.6465,25
46.6836,14
46.7208,26
46.7579,29
46.7951,19
46.8323,32
46.8694,19
46.9066,26
46.9437,17
46.9809,24
47.0180,24
47.0552,25
47.0923,25
47.1295,35
47.1666,21
47.2038,25
47.2409,24
47.2781,12
47.3152,24
47.3524,28
47.3895,31
47.4267,18
47.4638,14
47.5010,21
47.5381,24
47.5753,22
47.6124,30
47.6496,29
47.6867,19
47.7239,19
47.7610,14
47.7982,17
47.8353,21
47.8725,26
47.9096,27
47.9468,21
47.9839,18
48.0211,29
48.0582,23
48.0954,22
48.1325,25
48.1697,28
48.2068,31
48.2440,26
48.2811,21
48.3183,24
48.3555,18
48.3926,23
48.4298,24
48.4669,23
48.5041,23
48.5412,18
48.5784,14
48.6155,23
48.6527,25
48.6898,27
48.7270,14
48.7641,26
48.8013,27
48.8384,23
48.8756,24
48.9127,27
48.9499,54
48.9870,31
49.0242,32
49.0613,39
49.0985,32
49.1356,35
49.1728,22
49.2099,32
49.2471,16
49.2842,24
49.3214,28
49.3585,28
49.3957,18
49.4328,22
49.4700,27
49.5071,24
49.5443,20
49.5814,21
49.6186,18
49.6557,19
49.6929,20
49.7300,22
49.7672,13
49.8043,27
49.8415,27
49.8786,22
49.9158,25
49.9530,25
49.9901,24
50.0273,17
50.0644,19
50.1016,16
50.1387,23
50.1759,17
50.2130,25
50.2502,16
50.2873,24
50.3245,26
50.3616,19
50.3988,22
50.4359,21
50.4731,33
50.5102,27
50.5474,18
50.5845,22
50.6217,24
50.6588,15
50.6960,18
50.7331,17
50.7703,24
50.8074,22
50.8446,25
50.8817,25
50.9189,26
50.9560,25
50.9932,28
51.0303,20
51.0675,19
51.1046,22
51.1418,21
51.1789,21
51.2161,17
51.2532,20
51.2904,14
51.3275,20
51.3647,26
51.4018,13
51.4390,24
51.4762,29
51.5133,22
51.5505,25
51.5876,18
51.6248,23
51.6619,19
51.6991,21
51.7362,17
51.7734,32
51.8105,30
51.8477,40
51.8848,23
51.9220,19
51.9591,26
51.9963,23
52.0334,19
52.0706,20
52.1077,27
52.1449,21
52.1820,25
52.2192,21
52.2563,21
52.2935,17
52.3306,21
52.3678,12
52.4049,26
52.4421,21
52.4792,19
52.5164,20
52.5535,17
52.5907,24
52.6278,15
52.6650,19
52.7021,29
52.7393,15
52.7764,22
52.8136,22
52.8507,22
52.8879,21
52.9250,26
52.9622,23
52.9994,26
53.0365,13
53.0737,23
53.1108,23
53.1480,24
53.1851,22
53.2223,20
53.2594,21
53.2966,20
53.3337,15
53.3709,29
53.4080,28
53.4452,23
53.4823,18
53.5195,23
53.5566,20
53.5938,19
53.6309,19
53.6681,18
53.7052,16
53.7424,18
53.7795,16
53.8167,22
53.8538,11
53.8910,26
53.9281,20
53.9653,24
54.0024,21
54.0396,28
54.0767,25
54.1139,22
54.1510,20
54.1882,31
54.2253,18
54.2625,17
54.2996,18
54.3368,22
54.3739,17
54.4111,18
54.4482,23
54.4854,13
54.5225,21
54.5597,15
54.5969,17
54.6340,25
54.6712,14
54.7083,23
54.7455,20
54.7826,22
54.8198,11
54.8569,19
54.8941,20
54.9312,20
54.9684,22
55.0055,16
55.0427,24
55.0798,21
55.1170,17
55.1541,22
55.1913,19
55.2284,10
55.2656,21
55.3027,14
55.3399,19
55.3770,24
55.4142,24
55.4513,22
55.4885,20
55.5256,20
55.5628,27
55.5999,19
55.6371,28
55.6742,20
55.7114,20
55.7485,21
55.7857,26
55.8228,24
55.8600,22
55.8971,20
55.9343,23
55.9714,20
56.0086,20
56.0457,14
56.0829,22
56.1201,20
56.1572,20
56.1944,24
56.2315,17
56.2687,18
56.3058,30
56.3430,17
56.3801,21
56.4173,32
56.4544,24
56.4916,19
56.5287,26
56.5659,27
56.6030,18
56.6402,21
56.6773,22
56.7145,18
56.7516,27
56.7888,26
56.8259,23
56.8631,25
56.9002,22
56.9374,23
56.9745,21
57.0117,22
57.0488,14
57.0860,15
57.1231,30
57.1603,22
57.1974,20
57.2346,18
57.2717,17
57.3089,14
57.3460,28
57.3832,13
57.4203,23
57.4575,24
57.4946,16
57.5318,18
57.5689,16
57.6061,22
57.6433,18
57.6804,22
57.7176,25
57.7547,14
57.7919,26
57.8290,19
57.8662,23
57.9033,23
57.9405,13
57.9776,14
58.0148,23
58.0519,17
58.0891,12
58.1262,19
58.1634,22
58.2005,22
58.2377,21
58.2748,15
58.3120,27
58.3491,24
58.3863,14
58.4234,18
58.4606,17
58.4977,23
58.5349,25
58.5720,16
58.6092,17
58.6463,14
58.6835,19
58.7206,24
58.7578,21
58.7949,22
58.8321,15
58.8692,22
58.9064,21
58.9435,17
58.9807,27
59.0178,18
59.0550,21
59.0921,22
59.1293,22
59.1664,22
59.2036,20
59.2408,22
59.2779,25
59.3151,18
59.3522,21
59.3894,16
59.4265,16
59.4637,19
59.5008,21
59.5380,18
59.5751,19
59.6123,12
59.6494,23
59.6866,23
59.7237,22
59.7609,24
59.7980,15
59.8352,20
59.8723,22
59.9095,17
59.9466,23
59.9838,20
60.0024,23