File: notebooks/data/xrd_data/ML_20220721_32_SJD_4_LaB6-4min.csv
;,2THETA,
5.0000,268
5.0372,267
5.0743,265
5.1115,256
5.1486,272
5.1858,250
5.2229,246
5.2601,265
5.2972,235
5.3344,241
5.3715,215
5.4087,175
5.4458,244
5.4830,229
5.5201,236
5.5573,210
5.5944,253
5.6316,210
5.6687,219
5.7059,218
5.7430,204
5.7802,202
5.8173,234
5.8545,233
5.8916,193
5.9288,206
5.9659,176
6.0031,236
6.0402,184
6.0774,225
6.1145,206
6.1517,179
6.1888,193
6.2260,198
6.2631,195
6.3003,170
6.3374,218
6.3746,171
6.4117,191
6.4489,157
6.4860,189
6.5232,152
6.5604,181
6.5975,179
6.6347,164
6.6718,157
6.7090,161
6.7461,164
6.7833,154
6.8204,164
6.8576,167
6.8947,172
6.9319,164
6.9690,175
7.0062,185
7.0433,166
7.0805,143
7.1176,154
7.1548,143
7.1919,162
7.2291,156
7.2662,180
7.3034,154
7.3405,179
7.3777,157
7.4148,147
7.4520,175
7.4891,181
7.5263,152
7.5634,191
7.6006,175
7.6377,163
7.6749,163
7.7120,186
7.7492,165
7.7863,172
7.8235,174
7.8606,177
7.8978,196
7.9349,179
7.9721,206
8.0092,189
8.0464,172
8.0835,187
8.1207,153
8.1579,195
8.1950,197
8.2322,205
8.2693,199
8.3065,190
8.3436,206
8.3808,198
8.4179,208
8.4551,195
8.4922,182
8.5294,193
8.5665,201
8.6037,206
8.6408,214
8.6780,226
8.7151,214
8.7523,230
8.7894,210
8.8266,214
8.8637,225
8.9009,218
8.9380,218
8.9752,224
9.0123,232
9.0495,231
9.0866,231
9.1238,222
9.1609,208
9.1981,215
9.2352,229
9.2724,220
9.3095,200
9.3467,221
9.3838,227
9.4210,246
9.4581,215
9.4953,238
9.5324,206
9.5696,232
9.6067,229
9.6439,217
9.6811,253
9.7182,225
9.7554,203
9.7925,247
9.8297,232
9.8668,259
9.9040,226
9.9411,246
9.9783,253
10.0154,222
10.0526,247
10.0897,246
10.1269,259
10.1640,232
10.2012,250
10.2383,252
10.2755,262
10.3126,236
10.3498,256
10.3869,246
10.4241,235
10.4612,229
10.4984,253
10.5355,274
10.5727,223
10.6098,254
10.6470,228
10.6841,232
10.7213,247
10.7584,240
10.7956,244
10.8327,221
10.8699,216
10.9070,207
10.9442,243
10.9813,235
11.0185,231
11.0556,251
11.0928,234
11.1299,252
11.1671,219
11.2043,232
11.2414,228
11.2786,211
11.3157,220
11.3529,234
11.3900,217
11.4272,253
11.4643,236
11.5015,228
11.5386,254
11.5758,272
11.6129,247
11.6501,246
11.6872,218
11.7244,239
11.7615,233
11.7987,242
11.8358,263
11.8730,206
11.9101,220
11.9473,260
11.9844,233
12.0216,228
12.0587,223
12.0959,230
12.1330,225
12.1702,213
12.2073,221
12.2445,200
12.2816,209
12.3188,210
12.3559,202
12.3931,220
12.4302,212
12.4674,218
12.5045,211
12.5417,237
12.5788,193
12.6160,240
12.6531,216
12.6903,211
12.7274,204
12.7646,208
12.8018,229
12.8389,203
12.8761,229
12.9132,217
12.9504,239
12.9875,217
13.0247,203
13.0618,229
13.0990,202
13.1361,208
13.1733,223
13.2104,215
13.2476,208
13.2847,221
13.3219,190
13.3590,230
13.3962,220
13.4333,207
13.4705,208
13.5076,197
13.5448,208
13.5819,174
13.6191,193
13.6562,205
13.6934,195
13.7305,190
13.7677,182
13.8048,172
13.8420,189
13.8791,197
13.9163,222
13.9534,191
13.9906,172
14.0277,186
14.0649,210
14.1020,187
14.1392,159
14.1763,190
14.2135,165
14.2506,184
14.2878,169
14.3250,180
14.3621,164
14.3993,171
14.4364,164
14.4736,164
14.5107,171
14.5479,160
14.5850,173
14.6222,189
14.6593,170
14.6965,173
14.7336,204
14.7708,176
14.8079,182
14.8451,174
14.8822,156
14.9194,168
14.9565,163
14.9937,158
15.0308,156
15.0680,167
15.1051,184
15.1423,164
15.1794,180
15.2166,154
15.2537,166
15.2909,168
15.3280,182
15.3652,133
15.4023,141
15.4395,162
15.4766,171
15.5138,158
15.5509,170
15.5881,165
15.6252,181
15.6624,163
15.6995,150
15.7367,162
15.7738,156
15.8110,162
15.8482,155
15.8853,166
15.9225,184
15.9596,146
15.9968,161
16.0339,162
16.0711,160
16.1082,148
16.1454,173
16.1825,167
16.2197,133
16.2568,176
16.2940,162
16.3311,165
16.3683,161
16.4054,184
16.4426,158
16.4797,173
16.5169,164
16.5540,160
16.5912,164
16.6283,164
16.6655,158
16.7026,143
16.7398,156
16.7769,169
16.8141,172
16.8512,171
16.8884,167
16.9255,174
16.9627,163
16.9998,153
17.0370,141
17.0741,179
17.1113,181
17.1484,150
17.1856,138
17.2227,169
17.2599,144
17.2970,180
17.3342,163
17.3713,155
17.4085,168
17.4457,175
17.4828,158
17.5200,145
17.5571,152
17.5943,174
17.6314,168
17.6686,171
17.7057,173
17.7429,180
17.7800,159
17.8172,181
17.8543,187
17.8915,137
17.9286,163
17.9658,192
18.0029,149
18.0401,168
18.0772,141
18.1144,159
18.1515,166
18.1887,171
18.2258,183
18.2630,178
18.3001,151
18.3373,150
18.3744,180
18.4116,155
18.4487,177
18.4859,192
18.5230,173
18.5602,200
18.5973,162
18.6345,145
18.6716,172
18.7088,152
18.7459,182
18.7831,168
18.8202,187
18.8574,164
18.8945,180
18.9317,191
18.9689,176
19.0060,180
19.0432,175
19.0803,192
19.1175,197
19.1546,188
19.1918,189
19.2289,159
19.2661,168
19.3032,186
19.3404,163
19.3775,208
19.4147,190
19.4518,174
19.4890,189
19.5261,190
19.5633,164
19.6004,158
19.6376,199
19.6747,181
19.7119,178
19.7490,163
19.7862,186
19.8233,167
19.8605,179
19.8976,192
19.9348,206
19.9719,169
20.0091,195
20.0462,187
20.0834,176
20.1205,160
20.1577,167
20.1948,174
20.2320,198
20.2691,157
20.3063,217
20.3434,170
20.3806,172
20.4177,192
20.4549,181
20.4921,200
20.5292,207
20.5664,163
20.6035,191
20.6407,196
20.6778,208
20.7150,205
20.7521,210
20.7893,180
20.8264,197
20.8636,194
20.9007,198
20.9379,184
20.9750,220
21.0122,207
21.0493,179
21.0865,219
21.1236,206
21.1608,216
21.1979,322
21.2351,342
21.2722,316
21.3094,343
21.3465,509
21.3837,434
21.4208,340
21.4580,261
21.4951,195
21.5323,216
21.5694,213
21.6066,186
21.6437,210
21.6809,175
21.7180,196
21.7552,220
21.7923,221
21.8295,214
21.8666,196
21.9038,208
21.9409,210
21.9781,185
22.0152,203
22.0524,203
22.0896,195
22.1267,189
22.1639,215
22.2010,199
22.2382,192
22.2753,191
22.3125,226
22.3496,184
22.3868,171
22.4239,171
22.4611,205
22.4982,217
22.5354,203
22.5725,204
22.6097,209
22.6468,193
22.6840,192
22.7211,185
22.7583,210
22.7954,177
22.8326,207
22.8697,177
22.9069,196
22.9440,215
22.9812,187
23.0183,198
23.0555,192
23.0926,213
23.1298,220
23.1669,200
23.2041,184
23.2412,196
23.2784,209
23.3155,216
23.3527,210
23.3898,206
23.4270,186
23.4641,192
23.5013,192
23.5384,205
23.5756,219
23.6128,193
23.6499,209
23.6871,230
23.7242,201
23.7614,208
23.7985,216
23.8357,185
23.8728,224
23.9100,219
23.9471,186
23.9843,213
24.0214,239
24.0586,210
24.0957,192
24.1329,203
24.1700,192
24.2072,213
24.2443,210
24.2815,221
24.3186,240
24.3558,228
24.3929,208
24.4301,231
24.4672,193
24.5044,202
24.5415,197
24.5787,208
24.6158,227
24.6530,199
24.6901,193
24.7273,192
24.7644,223
24.8016,230
24.8387,215
24.8759,207
24.9130,175
24.9502,186
24.9873,196
25.0245,185
25.0616,188
25.0988,184
25.1360,163
25.1731,213
25.2103,191
25.2474,187
25.2846,199
25.3217,175
25.3589,203
25.3960,192
25.4332,213
25.4703,185
25.5075,191
25.5446,217
25.5818,180
25.6189,186
25.6561,191
25.6932,219
25.7304,188
25.7675,208
25.8047,191
25.8418,199
25.8790,195
25.9161,196
25.9533,211
25.9904,191
26.0276,200
26.0647,189
26.1019,222
26.1390,185
26.1762,171
26.2133,180
26.2505,192
26.2876,189
26.3248,187
26.3619,183
26.3991,212
26.4362,200
26.4734,182
26.5105,189
26.5477,206
26.5848,172
26.6220,173
26.6591,187
26.6963,168
26.7335,204
26.7706,175
26.8078,183
26.8449,184
26.8821,179
26.9192,181
26.9564,192
26.9935,187
27.0307,184
27.0678,196
27.1050,199
27.1421,213
27.1793,238
27.2164,257
27.2536,229
27.2907,199
27.3279,202
27.3650,210
27.4022,192
27.4393,196
27.4765,174
27.5136,183
27.5508,219
27.5879,187
27.6251,182
27.6622,178
27.6994,180
27.7365,165
27.7737,198
27.8108,203
27.8480,179
27.8851,171
27.9223,171
27.9594,161
27.9966,163
28.0337,199
28.0709,195
28.1080,161
28.1452,152
28.1823,179
28.2195,172
28.2567,176
28.2938,177
28.3310,166
28.3681,188
28.4053,143
28.4424,154
28.4796,181
28.5167,170
28.5539,161
28.5910,175
28.6282,157
28.6653,155
28.7025,183
28.7396,175
28.7768,182
28.8139,173
28.8511,145
28.8882,173
28.9254,174
28.9625,154
28.9997,169
29.0368,159
29.0740,166
29.1111,139
29.1483,144
29.1854,147
29.2226,174
29.2597,160
29.2969,171
29.3340,173
29.3712,151
29.4083,154
29.4455,165
29.4826,162
29.5198,180
29.5569,159
29.5941,166
29.6312,189
29.6684,153
29.7055,162
29.7427,156
29.7799,154
29.8170,168
29.8542,153
29.8913,168
29.9285,155
29.9656,150
30.0028,164
30.0399,137
30.0771,145
30.1142,145
30.1514,143
30.1885,150
30.2257,180
30.2628,168
30.3000,178
30.3371,206
30.3743,321
30.4114,288
30.4486,240
30.4857,238
30.5229,173
30.5600,156
30.5972,169
30.6343,152
30.6715,159
30.7086,167
30.7458,165
30.7829,166
30.8201,150
30.8572,137
30.8944,132
30.9315,145
30.9687,159
31.0058,135
31.0430,135
31.0801,156
31.1173,142
31.1544,144
31.1916,143
31.2287,141
31.2659,117
31.3030,133
31.3402,178
31.3774,130
31.4145,128
31.4517,119
31.4888,143
31.5260,127
31.5631,137
31.6003,126
31.6374,150
31.6746,130
31.7117,146
31.7489,122
31.7860,149
31.8232,123
31.8603,131
31.8975,150
31.9346,133
31.9718,118
32.0089,141
32.0461,154
32.0832,130
32.1204,137
32.1575,145
32.1947,132
32.2318,150
32.2690,130
32.3061,132
32.3433,136
32.3804,136
32.4176,129
32.4547,130
32.4919,126
32.5290,129
32.5662,141
32.6033,157
32.6405,136
32.6776,128
32.7148,122
32.7519,115
32.7891,110
32.8262,124
32.8634,112
32.9006,146
32.9377,120
32.9749,111
33.0120,119
33.0492,135
33.0863,119
33.1235,125
33.1606,138
33.1978,130
33.2349,104
33.2721,124
33.3092,119
33.3464,120
33.3835,113
33.4207,105
33.4578,131
33.4950,128
33.5321,119
33.5693,121
33.6064,101
33.6436,120
33.6807,108
33.7179,112
33.7550,104
33.7922,99
33.8293,121
33.8665,104
33.9036,124
33.9408,101
33.9779,112
34.0151,123
34.0522,103
34.0894,116
34.1265,118
34.1637,103
34.2008,103
34.2380,116
34.2751,106
34.3123,142
34.3494,115
34.3866,117
34.4238,113
34.4609,117
34.4981,127
34.5352,109
34.5724,121
34.6095,139
34.6467,128
34.6838,124
34.7210,142
34.7581,159
34.7953,144
34.8324,157
34.8696,139
34.9067,102
34.9439,115
34.9810,110
35.0182,114
35.0553,114
35.0925,114
35.1296,95
35.1668,126
35.2039,99
35.2411,110
35.2782,111
35.3154,100
35.3525,116
35.3897,93
35.4268,91
35.4640,99
35.5011,106
35.5383,103
35.5754,93
35.6126,99
35.6497,105
35.6869,108
35.7240,100
35.7612,98
35.7983,106
35.8355,103
35.8726,101
35.9098,98
35.9469,108
35.9841,113
36.0213,124
36.0584,94
36.0956,100
36.1327,103
36.1699,100
36.2070,105
36.2442,81
36.2813,93
36.3185,82
36.3556,95
36.3928,107
36.4299,114
36.4671,99
36.5042,113
36.5414,82
36.5785,98
36.6157,102
36.6528,87
36.6900,77
36.7271,71
36.7643,86
36.8014,102
36.8386,86
36.8757,100
36.9129,81
36.9500,110
36.9872,71
37.0243,101
37.0615,93
37.0986,103
37.1358,109
37.1729,91
37.2101,93
37.2472,84
37.2844,90
37.3215,103
37.3587,87
37.3958,122
37.4330,153
37.4701,139
37.5073,112
37.5445,120
37.5816,110
37.6188,89
37.6559,108
37.6931,89
37.7302,99
37.7674,89
37.8045,96
37.8417,76
37.8788,81
37.9160,87
37.9531,78
37.9903,88
38.0274,91
38.0646,87
38.1017,95
38.1389,106
38.1760,89
38.2132,88
38.2503,79
38.2875,96
38.3246,86
38.3618,97
38.3989,94
38.4361,104
38.4732,90
38.5104,97
38.5475,97
38.5847,90
38.6218,88
38.6590,92
38.6961,83
38.7333,86
38.7704,94
38.8076,77
38.8447,100
38.8819,89
38.9190,80
38.9562,99
38.9933,86
39.0305,78
39.0677,95
39.1048,86
39.1420,75
39.1791,69
39.2163,66
39.2534,73
39.2906,81
39.3277,101
39.3649,74
39.4020,92
39.4392,92
39.4763,85
39.5135,98
39.5506,74
39.5878,75
39.6249,76
39.6621,83
39.6992,81
39.7364,82
39.7735,74
39.8107,95
39.8478,74
39.8850,68
39.9221,83
39.9593,72
39.9964,90
40.0336,68
40.0707,72
40.1079,73
40.1450,82
40.1822,81
40.2193,64
40.2565,88
40.2936,94
40.3308,68
40.3679,86
40.4051,77
40.4422,93
40.4794,68
40.5165,92
40.5537,83
40.5908,99
40.6280,70
40.6652,84
40.7023,67
40.7395,91
40.7766,69
40.8138,68
40.8509,80
40.8881,80
40.9252,88
40.9624,82
40.9995,91
41.0367,81
41.0738,92
41.1110,84
41.1481,68
41.1853,60
41.2224,70
41.2596,83
41.2967,85
41.3339,81
41.3710,89
41.4082,82
41.4453,74
41.4825,80
41.5196,76
41.5568,93
41.5939,65
41.6311,89
41.6682,73
41.7054,64
41.7425,89
41.7797,80
41.8168,58
41.8540,68
41.8911,74
41.9283,84
41.9654,69
42.0026,69
42.0397,80
42.0769,71
42.1140,68
42.1512,65
42.1884,73
42.2255,70
42.2627,87
42.2998,74
42.3370,68
42.3741,63
42.4113,61
42.4484,75
42.4856,82
42.5227,72
42.5599,72
42.5970,62
42.6342,73
42.6713,87
42.7085,72
42.7456,70
42.7828,77
42.8199,79
42.8571,81
42.8942,81
42.9314,64
42.9685,72
43.0057,86
43.0428,80
43.0800,83
43.1171,78
43.1543,71
43.1914,84
43.2286,89
43.2657,94
43.3029,82
43.3400,76
43.3772,89
43.4143,83
43.4515,90
43.4886,104
43.5258,124
43.5629,102
43.6001,91
43.6372,104
43.6744,70
43.7116,75
43.7487,69
43.7859,92
43.8230,72
43.8602,64
43.8973,69
43.9345,83
43.9716,68
44.0088,65
44.0459,63
44.0831,82
44.1202,70
44.1574,51
44.1945,64
44.2317,74
44.2688,86
44.3060,83
44.3431,86
44.3803,70
44.4174,81
44.4546,68
44.4917,83
44.5289,73
44.5660,75
44.6032,72
44.6403,77
44.6775,80
44.7146,74
44.7518,83
44.7889,78
44.8261,73
44.8632,74
44.9004,81
44.9375,76
44.9747,70
45.0118,75
45.0490,87
45.0861,68
45.1233,59
45.1604,71
45.1976,65
45.2347,72
45.2719,80
45.3091,75
45.3462,79
45.3834,71
45.4205,83
45.4577,64
45.4948,56
45.5320,75
45.5691,69
45.6063,88
45.6434,75
45.6806,66
45.7177,52
45.7549,78
45.7920,71
45.8292,62
45.8663,72
45.9035,62
45.9406,62
45.9778,69
46.0149,61
46.0521,67
46.0892,64
46.1264,54
46.1635,77
46.2007,68
46.2378,80
46.2750,71
46.3121,61
46.3493,64
46.3864,54
46.4236,62
46.4607,75
46.4979,67
46.5350,72
46.5722,80
46.6093,67
46.6465,60
46.6836,69
46.7208,67
46.7579,61
46.7951,49
46.8323,63
46.8694,77
46.9066,70
46.9437,55
46.9809,54
47.0180,63
47.0552,50
47.0923,50
47.1295,70
47.1666,66
47.2038,64
47.2409,77
47.2781,61
47.3152,61
47.3524,76
47.3895,59
47.4267,62
47.4638,60
47.5010,71
47.5381,57
47.5753,72
47.6124,69
47.6496,65
47.6867,74
47.7239,53
47.7610,62
47.7982,66
47.8353,66
47.8725,78
47.9096,71
47.9468,84
47.9839,53
48.0211,65
48.0582,57
48.0954,61
48.1325,60
48.1697,73
48.2068,70
48.2440,63
48.2811,64
48.3183,76
48.3555,51
48.3926,61
48.4298,72
48.4669,55
48.5041,51
48.5412,80
48.5784,64
48.6155,65
48.6527,54
48.6898,60
48.7270,53
48.7641,67
48.8013,66
48.8384,52
48.8756,86
48.9127,95
48.9499,126
48.9870,94
49.0242,79
49.0613,84
49.0985,89
49.1356,73
49.1728,60
49.2099,87
49.2471,63
49.2842,70
49.3214,66
49.3585,48
49.3957,65
49.4328,64
49.4700,72
49.5071,64
49.5443,61
49.5814,53
49.6186,59
49.6557,49
49.6929,53
49.7300,52
49.7672,62
49.8043,58
49.8415,56
49.8786,57
49.9158,69
49.9530,86
49.9901,54
50.0273,70
50.0644,64
50.1016,76
50.1387,72
50.1759,58
50.2130,66
50.2502,54
50.2873,60
50.3245,72
50.3616,56
50.3988,57
50.4359,70
50.4731,62
50.5102,62
50.5474,85
50.5845,56
50.6217,55
50.6588,66
50.6960,72
50.7331,57
50.7703,57
50.8074,66
50.8446,74
50.8817,69
50.9189,43
50.9560,70
50.9932,76
51.0303,67
51.0675,58
51.1046,78
51.1418,67
51.1789,46
51.2161,59
51.2532,70
51.2904,74
51.3275,62
51.3647,55
51.4018,70
51.4390,88
51.4762,67
51.5133,69
51.5505,73
51.5876,59
51.6248,67
51.6619,60
51.6991,57
51.7362,76
51.7734,77
51.8105,65
51.8477,52
51.8848,58
51.9220,80
51.9591,60
51.9963,68
52.0334,70
52.0706,50
52.1077,64
52.1449,57
52.1820,58
52.2192,58
52.2563,57
52.2935,50
52.3306,55
52.3678,56
52.4049,65
52.4421,62
52.4792,58
52.5164,57
52.5535,59
52.5907,65
52.6278,53
52.6650,65
52.7021,55
52.7393,56
52.7764,52
52.8136,49
52.8507,68
52.8879,56
52.9250,58
52.9622,61
52.9994,61
53.0365,53
53.0737,64
53.1108,54
53.1480,76
53.1851,57
53.2223,55
53.2594,56
53.2966,54
53.3337,77
53.3709,55
53.4080,69
53.4452,54
53.4823,57
53.5195,61
53.5566,65
53.5938,59
53.6309,65
53.6681,55
53.7052,69
53.7424,59
53.7795,57
53.8167,46
53.8538,66
53.8910,51
53.9281,65
53.9653,73
54.0024,85
54.0396,82
54.0767,66
54.1139,61
54.1510,78
54.1882,53
54.2253,54
54.2625,45
54.2996,49
54.3368,52
54.3739,57
54.4111,62
54.4482,80
54.4854,63
54.5225,47
54.5597,46
54.5969,64
54.6340,63
54.6712,52
54.7083,50
54.7455,66
54.7826,55
54.8198,62
54.8569,55
54.8941,51
54.9312,61
54.9684,52
55.0055,47
55.0427,38
55.0798,55
55.1170,64
55.1541,61
55.1913,53
55.2284,62
55.2656,57
55.3027,47
55.3399,63
55.3770,70
55.4142,55
55.4513,44
55.4885,53
55.5256,55
55.5628,58
55.5999,58
55.6371,53
55.6742,49
55.7114,58
55.7485,55
55.7857,52
55.8228,53
55.8600,49
55.8971,53
55.9343,43
55.9714,60
56.0086,39
56.0457,56
56.0829,56
56.1201,57
56.1572,62
56.1944,65
56.2315,74
56.2687,75
56.3058,69
56.3430,69
56.3801,56
56.4173,71
56.4544,61
56.4916,69
56.5287,61
56.5659,53
56.6030,67
56.6402,55
56.6773,55
56.7145,52
56.7516,62
56.7888,62
56.8259,59
56.8631,58
56.9002,50
56.9374,63
56.9745,49
57.0117,53
57.0488,54
57.0860,61
57.1231,66
57.1603,61
57.1974,57
57.2346,51
57.2717,48
57.3089,55
57.3460,68
57.3832,74
57.4203,61
57.4575,56
57.4946,56
57.5318,54
57.5689,70
57.6061,56
57.6433,56
57.6804,61
57.7176,70
57.7547,52
57.7919,54
57.8290,41
57.8662,63
57.9033,45
57.9405,73
57.9776,55
58.0148,53
58.0519,55
58.0891,63
58.1262,59
58.1634,70
58.2005,62
58.2377,45
58.2748,60
58.3120,55
58.3491,38
58.3863,55
58.4234,53
58.4606,40
58.4977,47
58.5349,53
58.5720,58
58.6092,46
58.6463,61
58.6835,55
58.7206,47
58.7578,45
58.7949,52
58.8321,50
58.8692,54
58.9064,52
58.9435,52
58.9807,62
59.0178,47
59.0550,55
59.0921,58
59.1293,48
59.1664,63
59.2036,49
59.2408,54
59.2779,47
59.3151,51
59.3522,53
59.3894,44
59.4265,52
59.4637,51
59.5008,57
59.5380,55
59.5751,57
59.6123,56
59.6494,60
59.6866,60
59.7237,56
59.7609,50
59.7980,49
59.8352,72
59.8723,47
59.9095,48
59.9466,66
59.9838,60
60.0024,56