File: notebooks/data/xrd_data/ML_20220721_18_SJD_4_LaB6-4min.uxd
; (content of file Y:\Sam\Apurva-07-20-2022\puck1\ML_20220721_18_SJD_0_LaB6-4min.raw)
_FILEVERSION = 3
_SAMPLE = ML_20220721_18_SJD_0_LaB6-4min
_+SAMPLE =
_SITE = USA
_USER = Administrator
_GONIOMETER_CODE = 20
; Goniometer : D8 theta/2theta, stage : Unknown
_ATTACHMENTS_CODE = 0
_GONIOMETER_RADIUS = 200.5
_FIXED_DIVSLIT = 0.6
_FIXED_SAMPLESLIT = 0
_SOLLER_SLITS = 2
_FIXED_DETSLIT = 9.55
_MONOCHROMATOR = 0
; Incident beam monochromator : None
_SOLLER_SLITS_2 = N
_THIN_FILM = N
_BETA_FILTER = Y
_FIXED_ANTISLIT = 5.89
_ANALYZER_CODE = 0
; Received beam analyzer : None
_DATEMEASURED = "25-Jul-2022 15:13:15"
_WL_UNIT = A
_WL1 = 1.5406
_WL2 = 1.54439
_WL3 = 1.39222
_WLRATIO = 0.5
_ANODE = Cu
_V4_INF_CREATOR = XRDWizard
_V4_INF_CREATOR_VERSION = V2.9.0.22
_V4_INF_WIZARD_VERSION = V2.9.0.22
_V4_INF_WIZARD_ADDINS = V2.9.0.22
_V4_INF_WIZARD_DOCTYPE = XRD
_V4_INF_OSUSER = McQueenLab
_V4_INF_USER = Administrator
_V4_INF_SITE = USA
_V4_INF_SAMPLEID = ML_20220721_18_SJD_0_LaB6-4min

; Data for range 1
_DRIVE = COUPLED
_STEPTIME = 11.28
_STEPSIZE = 0.0185756
_STEPMODE = C
_START = 5
_THETA = 2.5
_2THETA = 5
_KHI = 0
_PHI = 0
_X = 0
_Y = 0
_Z = 0
_DETECTOR = 5
; Detector type : Unknown
_DETECTORSLIT = unkn
_AUX1 = 0
_AUX2 = 0
_AUX3 = 0
_TIMESTARTED = 15
_TEMP_RATE = -1
_TEMP_DELAY = -1
_KV = 40
_MA = 40
_RANGE_WL = 1.5406
_3DPLANE = 0
_V4_ADDITIONALDETECTOR = 257
_V4_PSD2THETA = 3.365
_V4_PSDCHANNEL1 = 0
_V4_PSDAPERTURE = 12.68
_V4_PSDTYPE = 5
_V4_PSDFIXED = 0
_V4_COUNTERS_MASK = 4096
_V4_DRIVES_MASK = 0
_V4_ENCODERS_MASK = 0
_2THETACOUNTS = 1
; 2THETA  PSD
   5.0000        288
   5.0372        275
   5.0743        244
   5.1115        267
   5.1486        269
   5.1858        303
   5.2229        233
   5.2601        247
   5.2972        253
   5.3344        250
   5.3715        225
   5.4087        251
   5.4458        247
   5.4830        221
   5.5201        221
   5.5573        244
   5.5944        234
   5.6316        235
   5.6687        231
   5.7059        236
   5.7430        197
   5.7802        210
   5.8173        197
   5.8545        244
   5.8916        205
   5.9288        208
   5.9659        205
   6.0031        211
   6.0402        195
   6.0774        213
   6.1145        205
   6.1517        199
   6.1888        192
   6.2260        194
   6.2631        195
   6.3003        208
   6.3374        175
   6.3746        174
   6.4117        160
   6.4489        171
   6.4860        182
   6.5232        198
   6.5604        193
   6.5975        152
   6.6347        150
   6.6718        190
   6.7090        163
   6.7461        176
   6.7833        153
   6.8204        163
   6.8576        167
   6.8947        152
   6.9319        169
   6.9690        190
   7.0062        182
   7.0433        157
   7.0805        159
   7.1176        169
   7.1548        166
   7.1919        151
   7.2291        175
   7.2662        167
   7.3034        146
   7.3405        152
   7.3777        157
   7.4148        170
   7.4520        163
   7.4891        181
   7.5263        159
   7.5634        189
   7.6006        184
   7.6377        195
   7.6749        172
   7.7120        196
   7.7492        173
   7.7863        177
   7.8235        172
   7.8606        202
   7.8978        197
   7.9349        191
   7.9721        182
   8.0092        199
   8.0464        166
   8.0835        173
   8.1207        207
   8.1579        220
   8.1950        197
   8.2322        222
   8.2693        199
   8.3065        183
   8.3436        209
   8.3808        204
   8.4179        225
   8.4551        207
   8.4922        181
   8.5294        199
   8.5665        210
   8.6037        214
   8.6408        209
   8.6780        212
   8.7151        185
   8.7523        218
   8.7894        184
   8.8266        223
   8.8637        193
   8.9009        204
   8.9380        208
   8.9752        190
   9.0123        214
   9.0495        222
   9.0866        247
   9.1238        259
   9.1609        229
   9.1981        223
   9.2352        236
   9.2724        225
   9.3095        234
   9.3467        212
   9.3838        214
   9.4210        213
   9.4581        234
   9.4953        225
   9.5324        213
   9.5696        227
   9.6067        229
   9.6439        242
   9.6811        221
   9.7182        235
   9.7554        242
   9.7925        228
   9.8297        262
   9.8668        234
   9.9040        269
   9.9411        248
   9.9783        265
  10.0154        234
  10.0526        239
  10.0897        195
  10.1269        251
  10.1640        255
  10.2012        267
  10.2383        229
  10.2755        258
  10.3126        246
  10.3498        245
  10.3869        249
  10.4241        253
  10.4612        243
  10.4984        247
  10.5355        238
  10.5727        255
  10.6098        252
  10.6470        208
  10.6841        236
  10.7213        234
  10.7584        250
  10.7956        222
  10.8327        246
  10.8699        247
  10.9070        211
  10.9442        238
  10.9813        252
  11.0185        245
  11.0556        254
  11.0928        227
  11.1299        205
  11.1671        236
  11.2043        249
  11.2414        215
  11.2786        263
  11.3157        250
  11.3529        214
  11.3900        210
  11.4272        216
  11.4643        262
  11.5015        237
  11.5386        239
  11.5758        245
  11.6129        221
  11.6501        252
  11.6872        243
  11.7244        250
  11.7615        218
  11.7987        224
  11.8358        257
  11.8730        234
  11.9101        239
  11.9473        245
  11.9844        224
  12.0216        222
  12.0587        236
  12.0959        193
  12.1330        243
  12.1702        216
  12.2073        208
  12.2445        254
  12.2816        219
  12.3188        248
  12.3559        245
  12.3931        185
  12.4302        212
  12.4674        233
  12.5045        210
  12.5417        208
  12.5788        192
  12.6160        209
  12.6531        213
  12.6903        239
  12.7274        225
  12.7646        206
  12.8018        199
  12.8389        201
  12.8761        252
  12.9132        235
  12.9504        226
  12.9875        192
  13.0247        212
  13.0618        193
  13.0990        201
  13.1361        215
  13.1733        190
  13.2104        203
  13.2476        194
  13.2847        199
  13.3219        200
  13.3590        195
  13.3962        228
  13.4333        221
  13.4705        192
  13.5076        174
  13.5448        179
  13.5819        213
  13.6191        178
  13.6562        195
  13.6934        202
  13.7305        197
  13.7677        184
  13.8048        185
  13.8420        173
  13.8791        183
  13.9163        203
  13.9534        187
  13.9906        236
  14.0277        209
  14.0649        184
  14.1020        177
  14.1392        195
  14.1763        174
  14.2135        192
  14.2506        180
  14.2878        173
  14.3250        195
  14.3621        187
  14.3993        170
  14.4364        174
  14.4736        166
  14.5107        179
  14.5479        197
  14.5850        168
  14.6222        169
  14.6593        183
  14.6965        186
  14.7336        186
  14.7708        177
  14.8079        172
  14.8451        158
  14.8822        176
  14.9194        170
  14.9565        166
  14.9937        153
  15.0308        171
  15.0680        159
  15.1051        184
  15.1423        174
  15.1794        157
  15.2166        144
  15.2537        194
  15.2909        199
  15.3280        152
  15.3652        166
  15.4023        154
  15.4395        187
  15.4766        172
  15.5138        167
  15.5509        148
  15.5881        166
  15.6252        175
  15.6624        159
  15.6995        167
  15.7367        158
  15.7738        184
  15.8110        187
  15.8482        160
  15.8853        163
  15.9225        176
  15.9596        164
  15.9968        172
  16.0339        169
  16.0711        164
  16.1082        179
  16.1454        182
  16.1825        167
  16.2197        191
  16.2568        171
  16.2940        136
  16.3311        163
  16.3683        162
  16.4054        178
  16.4426        154
  16.4797        161
  16.5169        170
  16.5540        171
  16.5912        181
  16.6283        159
  16.6655        161
  16.7026        143
  16.7398        177
  16.7769        162
  16.8141        167
  16.8512        148
  16.8884        165
  16.9255        167
  16.9627        152
  16.9998        167
  17.0370        182
  17.0741        176
  17.1113        153
  17.1484        177
  17.1856        171
  17.2227        174
  17.2599        171
  17.2970        166
  17.3342        184
  17.3713        173
  17.4085        171
  17.4457        170
  17.4828        165
  17.5200        146
  17.5571        164
  17.5943        176
  17.6314        174
  17.6686        144
  17.7057        165
  17.7429        182
  17.7800        157
  17.8172        174
  17.8543        174
  17.8915        153
  17.9286        153
  17.9658        173
  18.0029        164
  18.0401        164
  18.0772        160
  18.1144        168
  18.1515        164
  18.1887        149
  18.2258        168
  18.2630        189
  18.3001        151
  18.3373        161
  18.3744        176
  18.4116        154
  18.4487        154
  18.4859        163
  18.5230        168
  18.5602        166
  18.5973        173
  18.6345        163
  18.6716        181
  18.7088        171
  18.7459        181
  18.7831        181
  18.8202        161
  18.8574        162
  18.8945        171
  18.9317        174
  18.9689        162
  19.0060        169
  19.0432        168
  19.0803        173
  19.1175        156
  19.1546        153
  19.1918        181
  19.2289        170
  19.2661        171
  19.3032        157
  19.3404        165
  19.3775        175
  19.4147        179
  19.4518        163
  19.4890        187
  19.5261        169
  19.5633        156
  19.6004        182
  19.6376        193
  19.6747        172
  19.7119        183
  19.7490        201
  19.7862        193
  19.8233        170
  19.8605        181
  19.8976        193
  19.9348        200
  19.9719        167
  20.0091        186
  20.0462        207
  20.0834        189
  20.1205        175
  20.1577        195
  20.1948        181
  20.2320        198
  20.2691        178
  20.3063        195
  20.3434        188
  20.3806        175
  20.4177        191
  20.4549        168
  20.4921        205
  20.5292        161
  20.5664        199
  20.6035        179
  20.6407        187
  20.6778        182
  20.7150        202
  20.7521        181
  20.7893        202
  20.8264        192
  20.8636        191
  20.9007        193
  20.9379        207
  20.9750        192
  21.0122        203
  21.0493        201
  21.0865        212
  21.1236        210
  21.1608        226
  21.1979        292
  21.2351        337
  21.2722        339
  21.3094        319
  21.3465        510
  21.3837        419
  21.4208        366
  21.4580        253
  21.4951        197
  21.5323        224
  21.5694        193
  21.6066        221
  21.6437        214
  21.6809        190
  21.7180        214
  21.7552        196
  21.7923        216
  21.8295        184
  21.8666        205
  21.9038        189
  21.9409        207
  21.9781        178
  22.0152        184
  22.0524        176
  22.0896        192
  22.1267        199
  22.1639        202
  22.2010        187
  22.2382        203
  22.2753        195
  22.3125        186
  22.3496        179
  22.3868        188
  22.4239        211
  22.4611        213
  22.4982        200
  22.5354        189
  22.5725        196
  22.6097        205
  22.6468        197
  22.6840        181
  22.7211        196
  22.7583        207
  22.7954        187
  22.8326        187
  22.8697        188
  22.9069        186
  22.9440        208
  22.9812        225
  23.0183        213
  23.0555        213
  23.0926        205
  23.1298        202
  23.1669        190
  23.2041        192
  23.2412        201
  23.2784        222
  23.3155        192
  23.3527        189
  23.3898        226
  23.4270        198
  23.4641        211
  23.5013        192
  23.5384        186
  23.5756        200
  23.6128        201
  23.6499        194
  23.6871        211
  23.7242        192
  23.7614        210
  23.7985        194
  23.8357        197
  23.8728        200
  23.9100        185
  23.9471        200
  23.9843        199
  24.0214        227
  24.0586        187
  24.0957        181
  24.1329        205
  24.1700        195
  24.2072        200
  24.2443        232
  24.2815        264
  24.3186        239
  24.3558        225
  24.3929        196
  24.4301        202
  24.4672        215
  24.5044        243
  24.5415        214
  24.5787        192
  24.6158        191
  24.6530        204
  24.6901        221
  24.7273        205
  24.7644        183
  24.8016        199
  24.8387        197
  24.8759        214
  24.9130        165
  24.9502        206
  24.9873        173
  25.0245        220
  25.0616        222
  25.0988        197
  25.1360        223
  25.1731        211
  25.2103        194
  25.2474        199
  25.2846        179
  25.3217        216
  25.3589        219
  25.3960        229
  25.4332        201
  25.4703        199
  25.5075        186
  25.5446        196
  25.5818        199
  25.6189        216
  25.6561        192
  25.6932        191
  25.7304        228
  25.7675        214
  25.8047        208
  25.8418        202
  25.8790        210
  25.9161        208
  25.9533        187
  25.9904        181
  26.0276        207
  26.0647        217
  26.1019        206
  26.1390        180
  26.1762        179
  26.2133        206
  26.2505        216
  26.2876        186
  26.3248        184
  26.3619        197
  26.3991        188
  26.4362        190
  26.4734        188
  26.5105        214
  26.5477        189
  26.5848        208
  26.6220        202
  26.6591        177
  26.6963        202
  26.7335        201
  26.7706        179
  26.8078        232
  26.8449        189
  26.8821        188
  26.9192        197
  26.9564        182
  26.9935        182
  27.0307        192
  27.0678        191
  27.1050        190
  27.1421        204
  27.1793        225
  27.2164        282
  27.2536        239
  27.2907        219
  27.3279        201
  27.3650        187
  27.4022        192
  27.4393        178
  27.4765        191
  27.5136        195
  27.5508        161
  27.5879        179
  27.6251        189
  27.6622        174
  27.6994        192
  27.7365        174
  27.7737        169
  27.8108        179
  27.8480        180
  27.8851        170
  27.9223        153
  27.9594        190
  27.9966        171
  28.0337        172
  28.0709        181
  28.1080        189
  28.1452        170
  28.1823        158
  28.2195        174
  28.2567        172
  28.2938        184
  28.3310        172
  28.3681        182
  28.4053        171
  28.4424        190
  28.4796        170
  28.5167        167
  28.5539        151
  28.5910        182
  28.6282        183
  28.6653        148
  28.7025        177
  28.7396        167
  28.7768        181
  28.8139        158
  28.8511        171
  28.8882        168
  28.9254        158
  28.9625        138
  28.9997        143
  29.0368        148
  29.0740        161
  29.1111        164
  29.1483        183
  29.1854        160
  29.2226        171
  29.2597        165
  29.2969        141
  29.3340        173
  29.3712        154
  29.4083        168
  29.4455        154
  29.4826        151
  29.5198        167
  29.5569        185
  29.5941        149
  29.6312        157
  29.6684        150
  29.7055        162
  29.7427        153
  29.7799        161
  29.8170        156
  29.8542        163
  29.8913        181
  29.9285        175
  29.9656        157
  30.0028        167
  30.0399        163
  30.0771        152
  30.1142        162
  30.1514        166
  30.1885        168
  30.2257        157
  30.2628        161
  30.3000        178
  30.3371        206
  30.3743        319
  30.4114        297
  30.4486        228
  30.4857        226
  30.5229        125
  30.5600        196
  30.5972        138
  30.6343        149
  30.6715        159
  30.7086        177
  30.7458        154
  30.7829        158
  30.8201        142
  30.8572        164
  30.8944        129
  30.9315        159
  30.9687        155
  31.0058        160
  31.0430        145
  31.0801        142
  31.1173        143
  31.1544        140
  31.1916        141
  31.2287        137
  31.2659        124
  31.3030        118
  31.3402        139
  31.3774        136
  31.4145        136
  31.4517        166
  31.4888        153
  31.5260        140
  31.5631        157
  31.6003        164
  31.6374        161
  31.6746        151
  31.7117        135
  31.7489        130
  31.7860        125
  31.8232        120
  31.8603        145
  31.8975        148
  31.9346        150
  31.9718        141
  32.0089        148
  32.0461        122
  32.0832        144
  32.1204        154
  32.1575        148
  32.1947        114
  32.2318        136
  32.2690        147
  32.3061        122
  32.3433        139
  32.3804        128
  32.4176        158
  32.4547        154
  32.4919        150
  32.5290        143
  32.5662        137
  32.6033        120
  32.6405        132
  32.6776        114
  32.7148        135
  32.7519        140
  32.7891        123
  32.8262        158
  32.8634        121
  32.9006        112
  32.9377        121
  32.9749        121
  33.0120        126
  33.0492        106
  33.0863        122
  33.1235        111
  33.1606        121
  33.1978        120
  33.2349        130
  33.2721        114
  33.3092        127
  33.3464        101
  33.3835        117
  33.4207        139
  33.4578        126
  33.4950        123
  33.5321        123
  33.5693        129
  33.6064        123
  33.6436        125
  33.6807        126
  33.7179        101
  33.7550        104
  33.7922        112
  33.8293        128
  33.8665        116
  33.9036        110
  33.9408        116
  33.9779        129
  34.0151        120
  34.0522        111
  34.0894        104
  34.1265        139
  34.1637        129
  34.2008        120
  34.2380        117
  34.2751        117
  34.3123        113
  34.3494        103
  34.3866        128
  34.4238        114
  34.4609        126
  34.4981        126
  34.5352        133
  34.5724        115
  34.6095        126
  34.6467        145
  34.6838        119
  34.7210        151
  34.7581        161
  34.7953        157
  34.8324        154
  34.8696        128
  34.9067        116
  34.9439        108
  34.9810        108
  35.0182        123
  35.0553        114
  35.0925         95
  35.1296        113
  35.1668        116
  35.2039        123
  35.2411         99
  35.2782         93
  35.3154        103
  35.3525        105
  35.3897         98
  35.4268         99
  35.4640        104
  35.5011         90
  35.5383        123
  35.5754         93
  35.6126        120
  35.6497        103
  35.6869        117
  35.7240         96
  35.7612        104
  35.7983        105
  35.8355        115
  35.8726        108
  35.9098        107
  35.9469         93
  35.9841        103
  36.0213         90
  36.0584         97
  36.0956        110
  36.1327        102
  36.1699        111
  36.2070         93
  36.2442         89
  36.2813        107
  36.3185         97
  36.3556         86
  36.3928        114
  36.4299         90
  36.4671        105
  36.5042         90
  36.5414         86
  36.5785         98
  36.6157        105
  36.6528         86
  36.6900        100
  36.7271        120
  36.7643         89
  36.8014         85
  36.8386         83
  36.8757         76
  36.9129         85
  36.9500         89
  36.9872        105
  37.0243         96
  37.0615        102
  37.0986        102
  37.1358         99
  37.1729        102
  37.2101         97
  37.2472         94
  37.2844         98
  37.3215        105
  37.3587         94
  37.3958        101
  37.4330        174
  37.4701        127
  37.5073        122
  37.5445        117
  37.5816        103
  37.6188         83
  37.6559         78
  37.6931         90
  37.7302         98
  37.7674         78
  37.8045         79
  37.8417        102
  37.8788        101
  37.9160         80
  37.9531         80
  37.9903         87
  38.0274        105
  38.0646         86
  38.1017         74
  38.1389         81
  38.1760        101
  38.2132         99
  38.2503         78
  38.2875         77
  38.3246        104
  38.3618         88
  38.3989        100
  38.4361         65
  38.4732         85
  38.5104         80
  38.5475         89
  38.5847         75
  38.6218         94
  38.6590         97
  38.6961         77
  38.7333         81
  38.7704         82
  38.8076         89
  38.8447         91
  38.8819         90
  38.9190         76
  38.9562        107
  38.9933         75
  39.0305        100
  39.0677         82
  39.1048         72
  39.1420        100
  39.1791         96
  39.2163         86
  39.2534         95
  39.2906         83
  39.3277         87
  39.3649         79
  39.4020         76
  39.4392         88
  39.4763         86
  39.5135         75
  39.5506         74
  39.5878         90
  39.6249         74
  39.6621         85
  39.6992         75
  39.7364         87
  39.7735         79
  39.8107         72
  39.8478         69
  39.8850         72
  39.9221         72
  39.9593         84
  39.9964         67
  40.0336         70
  40.0707         68
  40.1079         84
  40.1450         63
  40.1822         87
  40.2193         90
  40.2565         80
  40.2936         86
  40.3308         83
  40.3679         84
  40.4051         83
  40.4422         82
  40.4794         82
  40.5165         75
  40.5537         86
  40.5908         84
  40.6280         88
  40.6652         61
  40.7023         74
  40.7395         68
  40.7766         95
  40.8138         96
  40.8509         73
  40.8881         72
  40.9252         88
  40.9624         87
  40.9995         83
  41.0367         82
  41.0738         82
  41.1110         71
  41.1481         77
  41.1853         87
  41.2224         79
  41.2596         96
  41.2967         67
  41.3339         77
  41.3710         63
  41.4082         71
  41.4453         89
  41.4825         87
  41.5196         69
  41.5568         73
  41.5939         77
  41.6311         64
  41.6682         59
  41.7054         69
  41.7425         67
  41.7797         84
  41.8168         89
  41.8540         77
  41.8911         86
  41.9283         88
  41.9654         81
  42.0026         70
  42.0397         83
  42.0769         79
  42.1140         83
  42.1512         66
  42.1884         80
  42.2255         76
  42.2627         82
  42.2998         76
  42.3370         91
  42.3741         67
  42.4113         68
  42.4484         66
  42.4856         83
  42.5227         82
  42.5599         75
  42.5970         81
  42.6342         62
  42.6713         79
  42.7085         57
  42.7456         60
  42.7828         71
  42.8199         66
  42.8571         63
  42.8942         75
  42.9314         74
  42.9685         82
  43.0057         52
  43.0428         60
  43.0800         74
  43.1171         76
  43.1543         77
  43.1914         81
  43.2286         97
  43.2657         88
  43.3029         84
  43.3400        102
  43.3772         76
  43.4143         78
  43.4515         94
  43.4886        107
  43.5258        121
  43.5629        105
  43.6001         98
  43.6372         96
  43.6744         95
  43.7116         67
  43.7487         77
  43.7859         81
  43.8230         79
  43.8602         67
  43.8973         82
  43.9345         92
  43.9716         70
  44.0088         67
  44.0459         71
  44.0831         86
  44.1202         76
  44.1574         68
  44.1945         85
  44.2317         75
  44.2688         80
  44.3060         66
  44.3431         75
  44.3803         67
  44.4174         70
  44.4546         73
  44.4917         80
  44.5289         66
  44.5660         82
  44.6032         79
  44.6403         70
  44.6775         83
  44.7146        100
  44.7518         80
  44.7889         74
  44.8261         69
  44.8632         72
  44.9004         66
  44.9375         71
  44.9747         66
  45.0118         75
  45.0490         65
  45.0861         60
  45.1233         76
  45.1604         88
  45.1976         58
  45.2347         60
  45.2719         63
  45.3091         77
  45.3462         76
  45.3834         86
  45.4205         59
  45.4577         91
  45.4948         59
  45.5320         58
  45.5691         68
  45.6063         81
  45.6434         77
  45.6806         61
  45.7177         71
  45.7549         57
  45.7920         67
  45.8292         68
  45.8663         72
  45.9035         68
  45.9406         67
  45.9778         53
  46.0149         79
  46.0521         76
  46.0892         60
  46.1264         72
  46.1635         63
  46.2007         59
  46.2378         65
  46.2750         67
  46.3121         63
  46.3493         73
  46.3864         55
  46.4236         82
  46.4607         61
  46.4979         68
  46.5350         73
  46.5722         68
  46.6093         55
  46.6465         59
  46.6836         72
  46.7208         77
  46.7579         53
  46.7951         65
  46.8323         58
  46.8694         55
  46.9066         53
  46.9437         67
  46.9809         76
  47.0180         61
  47.0552         54
  47.0923         52
  47.1295         65
  47.1666         72
  47.2038         78
  47.2409         61
  47.2781         75
  47.3152         64
  47.3524         64
  47.3895         71
  47.4267         69
  47.4638         59
  47.5010         68
  47.5381         69
  47.5753         57
  47.6124         55
  47.6496         48
  47.6867         68
  47.7239         79
  47.7610         48
  47.7982         77
  47.8353         64
  47.8725         52
  47.9096         64
  47.9468         61
  47.9839         56
  48.0211         57
  48.0582         77
  48.0954         67
  48.1325         64
  48.1697         74
  48.2068         66
  48.2440         74
  48.2811         74
  48.3183         55
  48.3555         64
  48.3926         69
  48.4298         63
  48.4669         61
  48.5041         61
  48.5412         66
  48.5784         81
  48.6155         78
  48.6527         62
  48.6898         62
  48.7270         67
  48.7641         82
  48.8013         59
  48.8384         61
  48.8756         65
  48.9127         67
  48.9499        108
  48.9870         91
  49.0242         82
  49.0613         90
  49.0985         93
  49.1356         94
  49.1728         83
  49.2099         71
  49.2471         60
  49.2842         68
  49.3214         72
  49.3585         52
  49.3957         57
  49.4328         68
  49.4700         61
  49.5071         70
  49.5443         45
  49.5814         50
  49.6186         66
  49.6557         39
  49.6929         61
  49.7300         68
  49.7672         55
  49.8043         58
  49.8415         72
  49.8786         79
  49.9158         57
  49.9530         61
  49.9901         63
  50.0273         59
  50.0644         66
  50.1016         45
  50.1387         80
  50.1759         57
  50.2130         88
  50.2502         59
  50.2873         47
  50.3245         58
  50.3616         70
  50.3988         63
  50.4359         71
  50.4731         55
  50.5102         70
  50.5474         49
  50.5845         61
  50.6217         48
  50.6588         63
  50.6960         57
  50.7331         58
  50.7703         49
  50.8074         64
  50.8446         55
  50.8817         75
  50.9189         49
  50.9560         56
  50.9932         51
  51.0303         57
  51.0675         64
  51.1046         50
  51.1418         64
  51.1789         63
  51.2161         73
  51.2532         73
  51.2904         84
  51.3275         69
  51.3647         58
  51.4018         73
  51.4390         75
  51.4762         69
  51.5133         61
  51.5505         75
  51.5876         77
  51.6248         60
  51.6619         64
  51.6991         78
  51.7362         62
  51.7734         68
  51.8105         75
  51.8477         74
  51.8848         80
  51.9220         63
  51.9591         64
  51.9963         60
  52.0334         68
  52.0706         60
  52.1077         70
  52.1449         63
  52.1820         57
  52.2192         62
  52.2563         52
  52.2935         53
  52.3306         52
  52.3678         65
  52.4049         62
  52.4421         71
  52.4792         56
  52.5164         70
  52.5535         64
  52.5907         56
  52.6278         56
  52.6650         72
  52.7021         71
  52.7393         54
  52.7764         65
  52.8136         57
  52.8507         48
  52.8879         64
  52.9250         70
  52.9622         67
  52.9994         77
  53.0365         66
  53.0737         67
  53.1108         50
  53.1480         70
  53.1851         69
  53.2223         78
  53.2594         52
  53.2966         59
  53.3337         70
  53.3709         56
  53.4080         54
  53.4452         49
  53.4823         72
  53.5195         57
  53.5566         57
  53.5938         54
  53.6309         61
  53.6681         54
  53.7052         52
  53.7424         53
  53.7795         54
  53.8167         59
  53.8538         52
  53.8910         59
  53.9281         47
  53.9653         69
  54.0024         92
  54.0396         67
  54.0767         74
  54.1139         80
  54.1510         81
  54.1882         56
  54.2253         79
  54.2625         61
  54.2996         62
  54.3368         62
  54.3739         59
  54.4111         53
  54.4482         80
  54.4854         62
  54.5225         58
  54.5597         41
  54.5969         46
  54.6340         60
  54.6712         63
  54.7083         51
  54.7455         51
  54.7826         65
  54.8198         55
  54.8569         53
  54.8941         63
  54.9312         56
  54.9684         66
  55.0055         66
  55.0427         54
  55.0798         66
  55.1170         51
  55.1541         59
  55.1913         53
  55.2284         60
  55.2656         56
  55.3027         50
  55.3399         60
  55.3770         56
  55.4142         54
  55.4513         64
  55.4885         73
  55.5256         53
  55.5628         45
  55.5999         55
  55.6371         58
  55.6742         52
  55.7114         60
  55.7485         63
  55.7857         51
  55.8228         65
  55.8600         67
  55.8971         64
  55.9343         56
  55.9714         66
  56.0086         58
  56.0457         65
  56.0829         65
  56.1201         50
  56.1572         67
  56.1944         73
  56.2315         77
  56.2687         76
  56.3058         72
  56.3430         72
  56.3801         73
  56.4173         64
  56.4544         57
  56.4916         62
  56.5287         55
  56.5659         49
  56.6030         67
  56.6402         46
  56.6773         49
  56.7145         51
  56.7516         52
  56.7888         70
  56.8259         65
  56.8631         57
  56.9002         58
  56.9374         59
  56.9745         71
  57.0117         52
  57.0488         58
  57.0860         58
  57.1231         54
  57.1603         59
  57.1974         50
  57.2346         69
  57.2717         50
  57.3089         62
  57.3460         68
  57.3832         55
  57.4203         55
  57.4575         76
  57.4946         48
  57.5318         53
  57.5689         63
  57.6061         61
  57.6433         49
  57.6804         73
  57.7176         56
  57.7547         48
  57.7919         62
  57.8290         51
  57.8662         60
  57.9033         71
  57.9405         53
  57.9776         55
  58.0148         65
  58.0519         57
  58.0891         62
  58.1262         55
  58.1634         50
  58.2005         62
  58.2377         50
  58.2748         47
  58.3120         49
  58.3491         52
  58.3863         61
  58.4234         47
  58.4606         56
  58.4977         46
  58.5349         56
  58.5720         54
  58.6092         54
  58.6463         53
  58.6835         61
  58.7206         58
  58.7578         49
  58.7949         62
  58.8321         51
  58.8692         54
  58.9064         46
  58.9435         56
  58.9807         56
  59.0178         55
  59.0550         50
  59.0921         45
  59.1293         58
  59.1664         53
  59.2036         58
  59.2408         53
  59.2779         65
  59.3151         52
  59.3522         58
  59.3894         39
  59.4265         40
  59.4637         52
  59.5008         56
  59.5380         58
  59.5751         49
  59.6123         52
  59.6494         61
  59.6866         50
  59.7237         62
  59.7609         52
  59.7980         55
  59.8352         42
  59.8723         55
  59.9095         51
  59.9466         53
  59.9838         54
  60.0024         58