File: notebooks/data/xrd_data/ML_20220720_37_SJD_4_LaB6-1min.csv
;,2THETA,
5.0000,80
5.0372,95
5.0743,80
5.1115,87
5.1486,112
5.1858,102
5.2229,88
5.2601,89
5.2972,78
5.3344,87
5.3715,100
5.4087,91
5.4458,83
5.4830,90
5.5201,74
5.5573,70
5.5944,79
5.6316,77
5.6687,81
5.7059,79
5.7430,81
5.7802,70
5.8173,76
5.8545,75
5.8916,84
5.9288,75
5.9659,68
6.0031,82
6.0402,65
6.0774,59
6.1145,61
6.1517,82
6.1888,81
6.2260,45
6.2631,60
6.3003,81
6.3374,71
6.3746,68
6.4117,68
6.4489,51
6.4860,93
6.5232,71
6.5604,67
6.5975,70
6.6347,58
6.6718,56
6.7090,58
6.7461,84
6.7833,65
6.8204,70
6.8576,65
6.8947,53
6.9319,55
6.9690,72
7.0062,55
7.0433,62
7.0805,66
7.1176,54
7.1548,63
7.1919,55
7.2291,71
7.2662,61
7.3034,59
7.3405,69
7.3777,79
7.4148,59
7.4520,52
7.4891,57
7.5263,42
7.5634,64
7.6006,45
7.6377,78
7.6749,51
7.7120,57
7.7492,73
7.7863,60
7.8235,60
7.8606,64
7.8978,65
7.9349,85
7.9721,57
8.0092,71
8.0464,69
8.0835,62
8.1207,71
8.1579,87
8.1950,72
8.2322,73
8.2693,60
8.3065,64
8.3436,77
8.3808,80
8.4179,70
8.4551,95
8.4922,75
8.5294,51
8.5665,68
8.6037,69
8.6408,76
8.6780,80
8.7151,63
8.7523,68
8.7894,74
8.8266,72
8.8637,88
8.9009,72
8.9380,89
8.9752,61
9.0123,84
9.0495,74
9.0866,80
9.1238,85
9.1609,77
9.1981,65
9.2352,91
9.2724,75
9.3095,80
9.3467,78
9.3838,77
9.4210,81
9.4581,92
9.4953,72
9.5324,82
9.5696,88
9.6067,85
9.6439,71
9.6811,71
9.7182,70
9.7554,91
9.7925,92
9.8297,90
9.8668,79
9.9040,91
9.9411,82
9.9783,78
10.0154,77
10.0526,100
10.0897,89
10.1269,81
10.1640,100
10.2012,82
10.2383,90
10.2755,105
10.3126,85
10.3498,95
10.3869,83
10.4241,85
10.4612,81
10.4984,93
10.5355,84
10.5727,88
10.6098,83
10.6470,64
10.6841,81
10.7213,95
10.7584,94
10.7956,87
10.8327,84
10.8699,92
10.9070,95
10.9442,87
10.9813,95
11.0185,95
11.0556,100
11.0928,90
11.1299,101
11.1671,97
11.2043,101
11.2414,88
11.2786,87
11.3157,91
11.3529,94
11.3900,69
11.4272,91
11.4643,79
11.5015,83
11.5386,89
11.5758,102
11.6129,84
11.6501,69
11.6872,93
11.7244,76
11.7615,99
11.7987,67
11.8358,88
11.8730,85
11.9101,119
11.9473,74
11.9844,82
12.0216,91
12.0587,82
12.0959,83
12.1330,112
12.1702,95
12.2073,89
12.2445,77
12.2816,90
12.3188,71
12.3559,106
12.3931,79
12.4302,81
12.4674,81
12.5045,73
12.5417,85
12.5788,90
12.6160,76
12.6531,91
12.6903,71
12.7274,70
12.7646,75
12.8018,73
12.8389,97
12.8761,61
12.9132,79
12.9504,77
12.9875,69
13.0247,78
13.0618,79
13.0990,85
13.1361,68
13.1733,74
13.2104,76
13.2476,89
13.2847,70
13.3219,63
13.3590,72
13.3962,69
13.4333,88
13.4705,74
13.5076,61
13.5448,65
13.5819,71
13.6191,67
13.6562,71
13.6934,57
13.7305,69
13.7677,68
13.8048,63
13.8420,78
13.8791,64
13.9163,53
13.9534,78
13.9906,66
14.0277,65
14.0649,60
14.1020,61
14.1392,63
14.1763,74
14.2135,63
14.2506,66
14.2878,52
14.3250,70
14.3621,49
14.3993,66
14.4364,69
14.4736,62
14.5107,68
14.5479,71
14.5850,61
14.6222,72
14.6593,59
14.6965,66
14.7336,59
14.7708,67
14.8079,71
14.8451,71
14.8822,58
14.9194,57
14.9565,62
14.9937,55
15.0308,60
15.0680,69
15.1051,71
15.1423,60
15.1794,62
15.2166,59
15.2537,67
15.2909,70
15.3280,65
15.3652,66
15.4023,47
15.4395,70
15.4766,54
15.5138,57
15.5509,70
15.5881,58
15.6252,66
15.6624,58
15.6995,57
15.7367,73
15.7738,62
15.8110,67
15.8482,64
15.8853,59
15.9225,58
15.9596,64
15.9968,55
16.0339,72
16.0711,63
16.1082,47
16.1454,57
16.1825,57
16.2197,56
16.2568,55
16.2940,45
16.3311,49
16.3683,61
16.4054,56
16.4426,59
16.4797,71
16.5169,63
16.5540,57
16.5912,52
16.6283,65
16.6655,49
16.7026,73
16.7398,54
16.7769,61
16.8141,79
16.8512,44
16.8884,67
16.9255,53
16.9627,59
16.9998,52
17.0370,53
17.0741,49
17.1113,61
17.1484,77
17.1856,61
17.2227,49
17.2599,59
17.2970,59
17.3342,60
17.3713,60
17.4085,55
17.4457,49
17.4828,65
17.5200,56
17.5571,45
17.5943,56
17.6314,60
17.6686,53
17.7057,59
17.7429,66
17.7800,58
17.8172,63
17.8543,60
17.8915,58
17.9286,65
17.9658,60
18.0029,67
18.0401,50
18.0772,58
18.1144,56
18.1515,66
18.1887,52
18.2258,59
18.2630,49
18.3001,57
18.3373,57
18.3744,64
18.4116,43
18.4487,57
18.4859,57
18.5230,73
18.5602,64
18.5973,62
18.6345,52
18.6716,63
18.7088,61
18.7459,63
18.7831,51
18.8202,59
18.8574,56
18.8945,67
18.9317,50
18.9689,68
19.0060,72
19.0432,61
19.0803,59
19.1175,69
19.1546,64
19.1918,76
19.2289,72
19.2661,62
19.3032,63
19.3404,55
19.3775,68
19.4147,54
19.4518,66
19.4890,67
19.5261,65
19.5633,60
19.6004,73
19.6376,67
19.6747,66
19.7119,63
19.7490,67
19.7862,75
19.8233,65
19.8605,73
19.8976,70
19.9348,58
19.9719,74
20.0091,68
20.0462,54
20.0834,67
20.1205,60
20.1577,71
20.1948,63
20.2320,66
20.2691,56
20.3063,59
20.3434,48
20.3806,72
20.4177,64
20.4549,80
20.4921,70
20.5292,78
20.5664,75
20.6035,56
20.6407,70
20.6778,74
20.7150,71
20.7521,68
20.7893,80
20.8264,80
20.8636,65
20.9007,73
20.9379,76
20.9750,68
21.0122,77
21.0493,62
21.0865,63
21.1236,68
21.1608,82
21.1979,88
21.2351,109
21.2722,90
21.3094,107
21.3465,176
21.3837,169
21.4208,113
21.4580,82
21.4951,87
21.5323,76
21.5694,74
21.6066,84
21.6437,67
21.6809,66
21.7180,71
21.7552,54
21.7923,84
21.8295,74
21.8666,63
21.9038,73
21.9409,69
21.9781,70
22.0152,69
22.0524,61
22.0896,74
22.1267,76
22.1639,62
22.2010,77
22.2382,60
22.2753,85
22.3125,58
22.3496,81
22.3868,69
22.4239,64
22.4611,58
22.4982,70
22.5354,69
22.5725,83
22.6097,68
22.6468,69
22.6840,75
22.7211,66
22.7583,78
22.7954,73
22.8326,65
22.8697,94
22.9069,75
22.9440,93
22.9812,75
23.0183,75
23.0555,67
23.0926,64
23.1298,73
23.1669,74
23.2041,73
23.2412,68
23.2784,67
23.3155,81
23.3527,62
23.3898,75
23.4270,72
23.4641,75
23.5013,60
23.5384,68
23.5756,84
23.6128,83
23.6499,85
23.6871,65
23.7242,65
23.7614,73
23.7985,68
23.8357,55
23.8728,63
23.9100,81
23.9471,70
23.9843,67
24.0214,81
24.0586,98
24.0957,77
24.1329,70
24.1700,60
24.2072,68
24.2443,83
24.2815,86
24.3186,65
24.3558,80
24.3929,91
24.4301,67
24.4672,68
24.5044,63
24.5415,78
24.5787,67
24.6158,66
24.6530,72
24.6901,80
24.7273,66
24.7644,85
24.8016,77
24.8387,63
24.8759,73
24.9130,54
24.9502,76
24.9873,78
25.0245,74
25.0616,71
25.0988,64
25.1360,71
25.1731,65
25.2103,71
25.2474,79
25.2846,73
25.3217,72
25.3589,62
25.3960,59
25.4332,66
25.4703,82
25.5075,75
25.5446,61
25.5818,73
25.6189,63
25.6561,82
25.6932,59
25.7304,55
25.7675,75
25.8047,64
25.8418,67
25.8790,67
25.9161,76
25.9533,66
25.9904,85
26.0276,88
26.0647,67
26.1019,61
26.1390,65
26.1762,75
26.2133,76
26.2505,75
26.2876,71
26.3248,79
26.3619,68
26.3991,72
26.4362,72
26.4734,95
26.5105,65
26.5477,65
26.5848,61
26.6220,73
26.6591,73
26.6963,73
26.7335,72
26.7706,61
26.8078,81
26.8449,73
26.8821,76
26.9192,81
26.9564,87
26.9935,80
27.0307,74
27.0678,73
27.1050,61
27.1421,69
27.1793,78
27.2164,94
27.2536,61
27.2907,68
27.3279,76
27.3650,75
27.4022,75
27.4393,77
27.4765,74
27.5136,69
27.5508,64
27.5879,76
27.6251,68
27.6622,61
27.6994,58
27.7365,56
27.7737,75
27.8108,71
27.8480,79
27.8851,49
27.9223,54
27.9594,77
27.9966,73
28.0337,56
28.0709,73
28.1080,63
28.1452,67
28.1823,53
28.2195,63
28.2567,43
28.2938,55
28.3310,65
28.3681,52
28.4053,69
28.4424,51
28.4796,59
28.5167,56
28.5539,60
28.5910,56
28.6282,67
28.6653,72
28.7025,43
28.7396,56
28.7768,74
28.8139,58
28.8511,66
28.8882,56
28.9254,66
28.9625,60
28.9997,60
29.0368,45
29.0740,52
29.1111,49
29.1483,65
29.1854,53
29.2226,56
29.2597,64
29.2969,70
29.3340,64
29.3712,64
29.4083,62
29.4455,66
29.4826,49
29.5198,69
29.5569,69
29.5941,43
29.6312,67
29.6684,57
29.7055,50
29.7427,60
29.7799,53
29.8170,58
29.8542,62
29.8913,71
29.9285,69
29.9656,63
30.0028,59
30.0399,53
30.0771,55
30.1142,56
30.1514,70
30.1885,59
30.2257,49
30.2628,64
30.3000,67
30.3371,72
30.3743,115
30.4114,133
30.4486,77
30.4857,78
30.5229,64
30.5600,57
30.5972,53
30.6343,57
30.6715,46
30.7086,55
30.7458,52
30.7829,54
30.8201,56
30.8572,53
30.8944,57
30.9315,51
30.9687,51
31.0058,61
31.0430,48
31.0801,64
31.1173,62
31.1544,52
31.1916,54
31.2287,47
31.2659,48
31.3030,51
31.3402,53
31.3774,48
31.4145,48
31.4517,56
31.4888,47
31.5260,35
31.5631,40
31.6003,45
31.6374,39
31.6746,62
31.7117,45
31.7489,61
31.7860,51
31.8232,58
31.8603,52
31.8975,35
31.9346,47
31.9718,61
32.0089,56
32.0461,46
32.0832,50
32.1204,46
32.1575,61
32.1947,47
32.2318,45
32.2690,44
32.3061,52
32.3433,46
32.3804,51
32.4176,50
32.4547,47
32.4919,54
32.5290,55
32.5662,49
32.6033,44
32.6405,57
32.6776,50
32.7148,39
32.7519,49
32.7891,44
32.8262,51
32.8634,37
32.9006,33
32.9377,46
32.9749,50
33.0120,38
33.0492,37
33.0863,48
33.1235,45
33.1606,44
33.1978,44
33.2349,42
33.2721,41
33.3092,48
33.3464,33
33.3835,47
33.4207,50
33.4578,50
33.4950,42
33.5321,36
33.5693,55
33.6064,38
33.6436,48
33.6807,42
33.7179,37
33.7550,43
33.7922,39
33.8293,38
33.8665,33
33.9036,43
33.9408,38
33.9779,46
34.0151,34
34.0522,42
34.0894,41
34.1265,42
34.1637,44
34.2008,42
34.2380,32
34.2751,55
34.3123,47
34.3494,44
34.3866,50
34.4238,43
34.4609,47
34.4981,36
34.5352,48
34.5724,34
34.6095,51
34.6467,53
34.6838,44
34.7210,54
34.7581,65
34.7953,46
34.8324,49
34.8696,45
34.9067,37
34.9439,51
34.9810,48
35.0182,38
35.0553,36
35.0925,30
35.1296,28
35.1668,37
35.2039,39
35.2411,42
35.2782,42
35.3154,36
35.3525,45
35.3897,34
35.4268,39
35.4640,44
35.5011,30
35.5383,44
35.5754,25
35.6126,41
35.6497,29
35.6869,43
35.7240,40
35.7612,30
35.7983,29
35.8355,31
35.8726,30
35.9098,39
35.9469,36
35.9841,28
36.0213,34
36.0584,24
36.0956,26
36.1327,24
36.1699,38
36.2070,34
36.2442,38
36.2813,39
36.3185,53
36.3556,38
36.3928,37
36.4299,26
36.4671,36
36.5042,33
36.5414,32
36.5785,47
36.6157,32
36.6528,36
36.6900,41
36.7271,42
36.7643,24
36.8014,41
36.8386,41
36.8757,25
36.9129,31
36.9500,35
36.9872,33
37.0243,39
37.0615,38
37.0986,35
37.1358,40
37.1729,26
37.2101,27
37.2472,32
37.2844,31
37.3215,27
37.3587,41
37.3958,44
37.4330,46
37.4701,43
37.5073,40
37.5445,51
37.5816,33
37.6188,33
37.6559,33
37.6931,24
37.7302,29
37.7674,32
37.8045,32
37.8417,31
37.8788,33
37.9160,23
37.9531,39
37.9903,31
38.0274,35
38.0646,26
38.1017,38
38.1389,27
38.1760,38
38.2132,30
38.2503,26
38.2875,41
38.3246,32
38.3618,44
38.3989,24
38.4361,36
38.4732,29
38.5104,27
38.5475,28
38.5847,38
38.6218,27
38.6590,33
38.6961,28
38.7333,39
38.7704,34
38.8076,30
38.8447,36
38.8819,30
38.9190,23
38.9562,26
38.9933,29
39.0305,34
39.0677,35
39.1048,31
39.1420,26
39.1791,23
39.2163,30
39.2534,19
39.2906,37
39.3277,27
39.3649,30
39.4020,28
39.4392,31
39.4763,24
39.5135,37
39.5506,23
39.5878,35
39.6249,35
39.6621,40
39.6992,27
39.7364,28
39.7735,27
39.8107,29
39.8478,28
39.8850,24
39.9221,34
39.9593,29
39.9964,18
40.0336,30
40.0707,28
40.1079,36
40.1450,29
40.1822,23
40.2193,30
40.2565,36
40.2936,17
40.3308,26
40.3679,30
40.4051,28
40.4422,21
40.4794,31
40.5165,22
40.5537,32
40.5908,23
40.6280,40
40.6652,40
40.7023,34
40.7395,29
40.7766,35
40.8138,33
40.8509,27
40.8881,28
40.9252,38
40.9624,29
40.9995,31
41.0367,28
41.0738,34
41.1110,21
41.1481,27
41.1853,28
41.2224,32
41.2596,19
41.2967,33
41.3339,28
41.3710,26
41.4082,29
41.4453,28
41.4825,24
41.5196,28
41.5568,22
41.5939,32
41.6311,26
41.6682,21
41.7054,34
41.7425,28
41.7797,23
41.8168,32
41.8540,33
41.8911,31
41.9283,30
41.9654,28
42.0026,24
42.0397,32
42.0769,36
42.1140,37
42.1512,25
42.1884,27
42.2255,40
42.2627,27
42.2998,29
42.3370,30
42.3741,25
42.4113,28
42.4484,26
42.4856,23
42.5227,22
42.5599,19
42.5970,23
42.6342,29
42.6713,24
42.7085,29
42.7456,25
42.7828,33
42.8199,33
42.8571,22
42.8942,30
42.9314,26
42.9685,18
43.0057,22
43.0428,31
43.0800,30
43.1171,40
43.1543,27
43.1914,28
43.2286,30
43.2657,40
43.3029,37
43.3400,27
43.3772,27
43.4143,31
43.4515,35
43.4886,34
43.5258,48
43.5629,33
43.6001,37
43.6372,42
43.6744,24
43.7116,31
43.7487,21
43.7859,29
43.8230,37
43.8602,35
43.8973,29
43.9345,36
43.9716,21
44.0088,32
44.0459,29
44.0831,25
44.1202,37
44.1574,28
44.1945,28
44.2317,25
44.2688,24
44.3060,27
44.3431,25
44.3803,26
44.4174,26
44.4546,30
44.4917,28
44.5289,17
44.5660,30
44.6032,37
44.6403,34
44.6775,23
44.7146,26
44.7518,33
44.7889,29
44.8261,27
44.8632,25
44.9004,21
44.9375,23
44.9747,33
45.0118,28
45.0490,24
45.0861,16
45.1233,24
45.1604,26
45.1976,22
45.2347,30
45.2719,14
45.3091,26
45.3462,21
45.3834,32
45.4205,26
45.4577,22
45.4948,22
45.5320,25
45.5691,24
45.6063,34
45.6434,30
45.6806,26
45.7177,22
45.7549,32
45.7920,33
45.8292,26
45.8663,27
45.9035,18
45.9406,17
45.9778,20
46.0149,23
46.0521,19
46.0892,20
46.1264,19
46.1635,24
46.2007,26
46.2378,32
46.2750,27
46.3121,20
46.3493,23
46.3864,25
46.4236,29
46.4607,25
46.4979,29
46.5350,25
46.5722,33
46.6093,22
46.6465,27
46.6836,21
46.7208,24
46.7579,16
46.7951,24
46.8323,19
46.8694,23
46.9066,17
46.9437,29
46.9809,20
47.0180,16
47.0552,25
47.0923,18
47.1295,27
47.1666,29
47.2038,23
47.2409,18
47.2781,25
47.3152,32
47.3524,25
47.3895,28
47.4267,27
47.4638,30
47.5010,23
47.5381,33
47.5753,27
47.6124,23
47.6496,17
47.6867,16
47.7239,14
47.7610,28
47.7982,21
47.8353,28
47.8725,25
47.9096,29
47.9468,19
47.9839,27
48.0211,29
48.0582,18
48.0954,25
48.1325,34
48.1697,26
48.2068,19
48.2440,20
48.2811,29
48.3183,23
48.3555,17
48.3926,17
48.4298,23
48.4669,24
48.5041,29
48.5412,14
48.5784,12
48.6155,15
48.6527,27
48.6898,19
48.7270,25
48.7641,24
48.8013,32
48.8384,21
48.8756,24
48.9127,41
48.9499,38
48.9870,35
49.0242,27
49.0613,30
49.0985,37
49.1356,27
49.1728,20
49.2099,24
49.2471,23
49.2842,22
49.3214,30
49.3585,18
49.3957,24
49.4328,19
49.4700,23
49.5071,24
49.5443,20
49.5814,22
49.6186,26
49.6557,21
49.6929,29
49.7300,22
49.7672,16
49.8043,20
49.8415,27
49.8786,21
49.9158,17
49.9530,26
49.9901,29
50.0273,22
50.0644,20
50.1016,12
50.1387,31
50.1759,24
50.2130,26
50.2502,15
50.2873,20
50.3245,27
50.3616,17
50.3988,25
50.4359,20
50.4731,23
50.5102,14
50.5474,26
50.5845,25
50.6217,18
50.6588,23
50.6960,18
50.7331,22
50.7703,22
50.8074,15
50.8446,26
50.8817,15
50.9189,19
50.9560,26
50.9932,21
51.0303,25
51.0675,33
51.1046,25
51.1418,16
51.1789,29
51.2161,26
51.2532,20
51.2904,20
51.3275,33
51.3647,24
51.4018,25
51.4390,35
51.4762,20
51.5133,23
51.5505,30
51.5876,27
51.6248,24
51.6619,15
51.6991,23
51.7362,16
51.7734,25
51.8105,33
51.8477,21
51.8848,25
51.9220,20
51.9591,21
51.9963,26
52.0334,33
52.0706,24
52.1077,26
52.1449,21
52.1820,19
52.2192,22
52.2563,17
52.2935,29
52.3306,22
52.3678,18
52.4049,19
52.4421,25
52.4792,23
52.5164,18
52.5535,16
52.5907,22
52.6278,20
52.6650,27
52.7021,22
52.7393,18
52.7764,17
52.8136,20
52.8507,22
52.8879,23
52.9250,25
52.9622,26
52.9994,20
53.0365,27
53.0737,16
53.1108,26
53.1480,23
53.1851,22
53.2223,26
53.2594,24
53.2966,18
53.3337,16
53.3709,25
53.4080,21
53.4452,21
53.4823,16
53.5195,26
53.5566,16
53.5938,23
53.6309,19
53.6681,17
53.7052,29
53.7424,24
53.7795,13
53.8167,18
53.8538,20
53.8910,15
53.9281,27
53.9653,21
54.0024,34
54.0396,22
54.0767,29
54.1139,27
54.1510,32
54.1882,30
54.2253,25
54.2625,19
54.2996,28
54.3368,16
54.3739,33
54.4111,18
54.4482,27
54.4854,13
54.5225,17
54.5597,34
54.5969,22
54.6340,24
54.6712,16
54.7083,25
54.7455,21
54.7826,21
54.8198,14
54.8569,23
54.8941,24
54.9312,22
54.9684,20
55.0055,23
55.0427,27
55.0798,19
55.1170,25
55.1541,26
55.1913,19
55.2284,25
55.2656,17
55.3027,17
55.3399,26
55.3770,12
55.4142,13
55.4513,18
55.4885,21
55.5256,24
55.5628,22
55.5999,18
55.6371,24
55.6742,23
55.7114,18
55.7485,27
55.7857,20
55.8228,24
55.8600,17
55.8971,20
55.9343,13
55.9714,25
56.0086,31
56.0457,19
56.0829,20
56.1201,25
56.1572,14
56.1944,20
56.2315,17
56.2687,26
56.3058,21
56.3430,22
56.3801,17
56.4173,21
56.4544,21
56.4916,22
56.5287,16
56.5659,19
56.6030,21
56.6402,17
56.6773,23
56.7145,17
56.7516,19
56.7888,33
56.8259,23
56.8631,22
56.9002,20
56.9374,21
56.9745,22
57.0117,23
57.0488,23
57.0860,18
57.1231,25
57.1603,18
57.1974,19
57.2346,21
57.2717,23
57.3089,17
57.3460,25
57.3832,22
57.4203,26
57.4575,18
57.4946,22
57.5318,20
57.5689,19
57.6061,28
57.6433,26
57.6804,23
57.7176,20
57.7547,33
57.7919,11
57.8290,15
57.8662,21
57.9033,25
57.9405,23
57.9776,20
58.0148,19
58.0519,23
58.0891,17
58.1262,15
58.1634,18
58.2005,26
58.2377,14
58.2748,15
58.3120,13
58.3491,18
58.3863,20
58.4234,25
58.4606,17
58.4977,16
58.5349,21
58.5720,16
58.6092,21
58.6463,24
58.6835,16
58.7206,22
58.7578,20
58.7949,18
58.8321,20
58.8692,25
58.9064,16
58.9435,28
58.9807,17
59.0178,23
59.0550,15
59.0921,20
59.1293,21
59.1664,30
59.2036,15
59.2408,20
59.2779,27
59.3151,19
59.3522,17
59.3894,24
59.4265,17
59.4637,26
59.5008,22
59.5380,30
59.5751,18
59.6123,26
59.6494,16
59.6866,26
59.7237,16
59.7609,23
59.7980,13
59.8352,26
59.8723,12
59.9095,24
59.9466,21
59.9838,17
60.0024,19