File: notebooks/data/xrd_data/ML_20220721_24_SJD_4_LaB6-4min.csv
;,2THETA,
5.0000,277
5.0372,241
5.0743,262
5.1115,272
5.1486,253
5.1858,247
5.2229,256
5.2601,253
5.2972,278
5.3344,245
5.3715,241
5.4087,204
5.4458,242
5.4830,223
5.5201,225
5.5573,245
5.5944,220
5.6316,214
5.6687,233
5.7059,244
5.7430,193
5.7802,203
5.8173,210
5.8545,217
5.8916,231
5.9288,189
5.9659,210
6.0031,196
6.0402,191
6.0774,189
6.1145,192
6.1517,218
6.1888,193
6.2260,171
6.2631,207
6.3003,180
6.3374,189
6.3746,172
6.4117,164
6.4489,158
6.4860,145
6.5232,176
6.5604,196
6.5975,164
6.6347,183
6.6718,183
6.7090,199
6.7461,174
6.7833,171
6.8204,162
6.8576,168
6.8947,165
6.9319,158
6.9690,208
7.0062,167
7.0433,159
7.0805,172
7.1176,151
7.1548,157
7.1919,164
7.2291,154
7.2662,180
7.3034,198
7.3405,181
7.3777,189
7.4148,156
7.4520,165
7.4891,157
7.5263,165
7.5634,176
7.6006,153
7.6377,166
7.6749,164
7.7120,186
7.7492,173
7.7863,170
7.8235,172
7.8606,186
7.8978,194
7.9349,186
7.9721,186
8.0092,180
8.0464,195
8.0835,180
8.1207,183
8.1579,186
8.1950,203
8.2322,207
8.2693,207
8.3065,216
8.3436,183
8.3808,185
8.4179,183
8.4551,197
8.4922,186
8.5294,215
8.5665,203
8.6037,198
8.6408,210
8.6780,193
8.7151,219
8.7523,193
8.7894,228
8.8266,223
8.8637,243
8.9009,230
8.9380,236
8.9752,195
9.0123,226
9.0495,224
9.0866,232
9.1238,187
9.1609,229
9.1981,224
9.2352,212
9.2724,242
9.3095,238
9.3467,220
9.3838,226
9.4210,202
9.4581,224
9.4953,211
9.5324,240
9.5696,212
9.6067,221
9.6439,212
9.6811,243
9.7182,201
9.7554,237
9.7925,227
9.8297,216
9.8668,248
9.9040,248
9.9411,253
9.9783,240
10.0154,255
10.0526,247
10.0897,248
10.1269,256
10.1640,254
10.2012,243
10.2383,245
10.2755,254
10.3126,262
10.3498,249
10.3869,214
10.4241,271
10.4612,240
10.4984,249
10.5355,225
10.5727,241
10.6098,223
10.6470,223
10.6841,234
10.7213,253
10.7584,240
10.7956,232
10.8327,252
10.8699,231
10.9070,234
10.9442,262
10.9813,237
11.0185,218
11.0556,246
11.0928,248
11.1299,221
11.1671,234
11.2043,272
11.2414,247
11.2786,236
11.3157,236
11.3529,244
11.3900,227
11.4272,280
11.4643,248
11.5015,237
11.5386,236
11.5758,220
11.6129,221
11.6501,256
11.6872,206
11.7244,212
11.7615,238
11.7987,201
11.8358,217
11.8730,210
11.9101,222
11.9473,237
11.9844,239
12.0216,218
12.0587,220
12.0959,237
12.1330,241
12.1702,181
12.2073,240
12.2445,216
12.2816,239
12.3188,243
12.3559,227
12.3931,219
12.4302,210
12.4674,218
12.5045,212
12.5417,202
12.5788,220
12.6160,189
12.6531,206
12.6903,222
12.7274,210
12.7646,214
12.8018,209
12.8389,222
12.8761,207
12.9132,205
12.9504,219
12.9875,202
13.0247,199
13.0618,202
13.0990,213
13.1361,197
13.1733,235
13.2104,218
13.2476,231
13.2847,206
13.3219,205
13.3590,213
13.3962,166
13.4333,221
13.4705,191
13.5076,203
13.5448,195
13.5819,190
13.6191,202
13.6562,201
13.6934,185
13.7305,175
13.7677,187
13.8048,161
13.8420,206
13.8791,191
13.9163,185
13.9534,201
13.9906,184
14.0277,184
14.0649,183
14.1020,199
14.1392,185
14.1763,202
14.2135,195
14.2506,182
14.2878,191
14.3250,155
14.3621,172
14.3993,180
14.4364,163
14.4736,180
14.5107,199
14.5479,167
14.5850,183
14.6222,188
14.6593,174
14.6965,176
14.7336,167
14.7708,158
14.8079,172
14.8451,169
14.8822,193
14.9194,173
14.9565,165
14.9937,187
15.0308,159
15.0680,166
15.1051,135
15.1423,152
15.1794,157
15.2166,158
15.2537,166
15.2909,139
15.3280,175
15.3652,173
15.4023,172
15.4395,188
15.4766,164
15.5138,152
15.5509,176
15.5881,168
15.6252,163
15.6624,152
15.6995,163
15.7367,161
15.7738,147
15.8110,155
15.8482,163
15.8853,146
15.9225,170
15.9596,159
15.9968,165
16.0339,171
16.0711,179
16.1082,169
16.1454,178
16.1825,161
16.2197,142
16.2568,175
16.2940,154
16.3311,154
16.3683,160
16.4054,162
16.4426,167
16.4797,150
16.5169,151
16.5540,187
16.5912,150
16.6283,144
16.6655,162
16.7026,156
16.7398,174
16.7769,154
16.8141,162
16.8512,160
16.8884,171
16.9255,177
16.9627,167
16.9998,173
17.0370,171
17.0741,154
17.1113,165
17.1484,167
17.1856,155
17.2227,156
17.2599,158
17.2970,144
17.3342,156
17.3713,165
17.4085,149
17.4457,142
17.4828,162
17.5200,172
17.5571,162
17.5943,166
17.6314,174
17.6686,156
17.7057,160
17.7429,138
17.7800,169
17.8172,187
17.8543,156
17.8915,168
17.9286,164
17.9658,166
18.0029,180
18.0401,152
18.0772,147
18.1144,163
18.1515,177
18.1887,178
18.2258,178
18.2630,173
18.3001,184
18.3373,160
18.3744,179
18.4116,155
18.4487,182
18.4859,172
18.5230,166
18.5602,165
18.5973,151
18.6345,198
18.6716,171
18.7088,198
18.7459,161
18.7831,164
18.8202,192
18.8574,172
18.8945,171
18.9317,172
18.9689,175
19.0060,173
19.0432,166
19.0803,176
19.1175,133
19.1546,161
19.1918,159
19.2289,166
19.2661,183
19.3032,178
19.3404,166
19.3775,190
19.4147,152
19.4518,182
19.4890,157
19.5261,153
19.5633,170
19.6004,182
19.6376,189
19.6747,188
19.7119,194
19.7490,181
19.7862,170
19.8233,181
19.8605,167
19.8976,163
19.9348,185
19.9719,177
20.0091,172
20.0462,153
20.0834,187
20.1205,184
20.1577,178
20.1948,208
20.2320,211
20.2691,187
20.3063,203
20.3434,208
20.3806,177
20.4177,158
20.4549,202
20.4921,187
20.5292,201
20.5664,190
20.6035,173
20.6407,216
20.6778,214
20.7150,185
20.7521,182
20.7893,164
20.8264,205
20.8636,155
20.9007,209
20.9379,186
20.9750,199
21.0122,176
21.0493,169
21.0865,235
21.1236,236
21.1608,250
21.1979,273
21.2351,315
21.2722,289
21.3094,336
21.3465,483
21.3837,413
21.4208,348
21.4580,245
21.4951,192
21.5323,199
21.5694,181
21.6066,202
21.6437,201
21.6809,230
21.7180,186
21.7552,209
21.7923,190
21.8295,210
21.8666,199
21.9038,196
21.9409,164
21.9781,209
22.0152,192
22.0524,214
22.0896,203
22.1267,200
22.1639,190
22.2010,199
22.2382,198
22.2753,219
22.3125,192
22.3496,181
22.3868,179
22.4239,199
22.4611,209
22.4982,201
22.5354,184
22.5725,209
22.6097,196
22.6468,195
22.6840,178
22.7211,188
22.7583,201
22.7954,212
22.8326,197
22.8697,198
22.9069,192
22.9440,175
22.9812,200
23.0183,172
23.0555,211
23.0926,196
23.1298,187
23.1669,204
23.2041,210
23.2412,234
23.2784,195
23.3155,192
23.3527,205
23.3898,225
23.4270,224
23.4641,230
23.5013,190
23.5384,225
23.5756,201
23.6128,190
23.6499,191
23.6871,185
23.7242,201
23.7614,197
23.7985,199
23.8357,206
23.8728,178
23.9100,187
23.9471,233
23.9843,194
24.0214,214
24.0586,197
24.0957,221
24.1329,198
24.1700,197
24.2072,226
24.2443,220
24.2815,225
24.3186,213
24.3558,214
24.3929,216
24.4301,217
24.4672,206
24.5044,191
24.5415,239
24.5787,188
24.6158,189
24.6530,206
24.6901,208
24.7273,207
24.7644,211
24.8016,204
24.8387,205
24.8759,191
24.9130,197
24.9502,187
24.9873,180
25.0245,208
25.0616,180
25.0988,202
25.1360,197
25.1731,220
25.2103,176
25.2474,188
25.2846,200
25.3217,202
25.3589,192
25.3960,202
25.4332,205
25.4703,194
25.5075,187
25.5446,199
25.5818,213
25.6189,178
25.6561,191
25.6932,207
25.7304,214
25.7675,202
25.8047,199
25.8418,196
25.8790,182
25.9161,201
25.9533,188
25.9904,202
26.0276,174
26.0647,207
26.1019,190
26.1390,195
26.1762,185
26.2133,205
26.2505,182
26.2876,199
26.3248,196
26.3619,191
26.3991,190
26.4362,191
26.4734,187
26.5105,206
26.5477,185
26.5848,191
26.6220,174
26.6591,201
26.6963,190
26.7335,184
26.7706,183
26.8078,201
26.8449,193
26.8821,192
26.9192,205
26.9564,205
26.9935,192
27.0307,185
27.0678,197
27.1050,212
27.1421,220
27.1793,225
27.2164,227
27.2536,241
27.2907,221
27.3279,200
27.3650,183
27.4022,217
27.4393,188
27.4765,223
27.5136,177
27.5508,178
27.5879,190
27.6251,168
27.6622,206
27.6994,175
27.7365,190
27.7737,191
27.8108,195
27.8480,173
27.8851,164
27.9223,188
27.9594,164
27.9966,178
28.0337,179
28.0709,165
28.1080,194
28.1452,179
28.1823,186
28.2195,180
28.2567,167
28.2938,179
28.3310,183
28.3681,134
28.4053,195
28.4424,171
28.4796,159
28.5167,161
28.5539,192
28.5910,174
28.6282,154
28.6653,176
28.7025,161
28.7396,158
28.7768,183
28.8139,135
28.8511,152
28.8882,179
28.9254,146
28.9625,165
28.9997,170
29.0368,169
29.0740,187
29.1111,134
29.1483,161
29.1854,152
29.2226,161
29.2597,157
29.2969,168
29.3340,175
29.3712,173
29.4083,160
29.4455,182
29.4826,152
29.5198,151
29.5569,188
29.5941,164
29.6312,165
29.6684,162
29.7055,166
29.7427,164
29.7799,176
29.8170,168
29.8542,154
29.8913,150
29.9285,148
29.9656,154
30.0028,152
30.0399,134
30.0771,158
30.1142,143
30.1514,180
30.1885,153
30.2257,139
30.2628,145
30.3000,189
30.3371,220
30.3743,364
30.4114,280
30.4486,242
30.4857,228
30.5229,200
30.5600,163
30.5972,129
30.6343,134
30.6715,158
30.7086,166
30.7458,140
30.7829,152
30.8201,167
30.8572,145
30.8944,150
30.9315,162
30.9687,146
31.0058,147
31.0430,144
31.0801,140
31.1173,153
31.1544,132
31.1916,155
31.2287,135
31.2659,140
31.3030,165
31.3402,141
31.3774,145
31.4145,119
31.4517,123
31.4888,142
31.5260,136
31.5631,140
31.6003,123
31.6374,138
31.6746,160
31.7117,127
31.7489,138
31.7860,138
31.8232,120
31.8603,148
31.8975,150
31.9346,144
31.9718,126
32.0089,141
32.0461,160
32.0832,125
32.1204,135
32.1575,143
32.1947,134
32.2318,122
32.2690,131
32.3061,149
32.3433,161
32.3804,146
32.4176,123
32.4547,139
32.4919,146
32.5290,145
32.5662,128
32.6033,136
32.6405,152
32.6776,132
32.7148,126
32.7519,143
32.7891,125
32.8262,115
32.8634,129
32.9006,127
32.9377,119
32.9749,122
33.0120,116
33.0492,130
33.0863,129
33.1235,113
33.1606,116
33.1978,120
33.2349,125
33.2721,138
33.3092,117
33.3464,140
33.3835,106
33.4207,127
33.4578,116
33.4950,111
33.5321,119
33.5693,145
33.6064,124
33.6436,103
33.6807,111
33.7179,110
33.7550,129
33.7922,130
33.8293,117
33.8665,116
33.9036,111
33.9408,99
33.9779,121
34.0151,126
34.0522,99
34.0894,107
34.1265,132
34.1637,115
34.2008,106
34.2380,106
34.2751,107
34.3123,113
34.3494,110
34.3866,112
34.4238,118
34.4609,123
34.4981,123
34.5352,117
34.5724,109
34.6095,117
34.6467,136
34.6838,133
34.7210,151
34.7581,167
34.7953,160
34.8324,133
34.8696,144
34.9067,113
34.9439,120
34.9810,109
35.0182,112
35.0553,102
35.0925,91
35.1296,102
35.1668,93
35.2039,110
35.2411,98
35.2782,125
35.3154,98
35.3525,89
35.3897,105
35.4268,89
35.4640,99
35.5011,107
35.5383,91
35.5754,105
35.6126,109
35.6497,80
35.6869,98
35.7240,97
35.7612,109
35.7983,107
35.8355,96
35.8726,103
35.9098,99
35.9469,114
35.9841,93
36.0213,101
36.0584,93
36.0956,88
36.1327,84
36.1699,91
36.2070,104
36.2442,107
36.2813,90
36.3185,90
36.3556,88
36.3928,97
36.4299,92
36.4671,111
36.5042,105
36.5414,110
36.5785,74
36.6157,103
36.6528,119
36.6900,109
36.7271,85
36.7643,102
36.8014,100
36.8386,108
36.8757,81
36.9129,94
36.9500,90
36.9872,92
37.0243,98
37.0615,98
37.0986,98
37.1358,83
37.1729,98
37.2101,75
37.2472,87
37.2844,102
37.3215,88
37.3587,89
37.3958,119
37.4330,168
37.4701,131
37.5073,112
37.5445,138
37.5816,104
37.6188,105
37.6559,92
37.6931,80
37.7302,83
37.7674,86
37.8045,93
37.8417,86
37.8788,87
37.9160,94
37.9531,80
37.9903,73
38.0274,96
38.0646,93
38.1017,75
38.1389,83
38.1760,73
38.2132,60
38.2503,84
38.2875,100
38.3246,100
38.3618,79
38.3989,92
38.4361,76
38.4732,73
38.5104,91
38.5475,80
38.5847,83
38.6218,91
38.6590,93
38.6961,78
38.7333,84
38.7704,86
38.8076,97
38.8447,118
38.8819,91
38.9190,103
38.9562,106
38.9933,92
39.0305,84
39.0677,86
39.1048,79
39.1420,96
39.1791,82
39.2163,79
39.2534,72
39.2906,76
39.3277,63
39.3649,55
39.4020,72
39.4392,82
39.4763,80
39.5135,91
39.5506,80
39.5878,63
39.6249,78
39.6621,85
39.6992,83
39.7364,79
39.7735,92
39.8107,82
39.8478,90
39.8850,89
39.9221,66
39.9593,88
39.9964,84
40.0336,98
40.0707,75
40.1079,80
40.1450,75
40.1822,82
40.2193,96
40.2565,78
40.2936,88
40.3308,66
40.3679,86
40.4051,59
40.4422,82
40.4794,73
40.5165,82
40.5537,70
40.5908,72
40.6280,78
40.6652,69
40.7023,87
40.7395,73
40.7766,78
40.8138,67
40.8509,70
40.8881,78
40.9252,90
40.9624,82
40.9995,76
41.0367,82
41.0738,66
41.1110,71
41.1481,96
41.1853,80
41.2224,78
41.2596,73
41.2967,70
41.3339,79
41.3710,77
41.4082,82
41.4453,81
41.4825,73
41.5196,81
41.5568,71
41.5939,69
41.6311,76
41.6682,74
41.7054,66
41.7425,84
41.7797,83
41.8168,79
41.8540,80
41.8911,72
41.9283,65
41.9654,86
42.0026,62
42.0397,80
42.0769,69
42.1140,58
42.1512,93
42.1884,79
42.2255,63
42.2627,91
42.2998,51
42.3370,74
42.3741,67
42.4113,63
42.4484,84
42.4856,78
42.5227,72
42.5599,84
42.5970,73
42.6342,78
42.6713,69
42.7085,75
42.7456,66
42.7828,75
42.8199,73
42.8571,83
42.8942,64
42.9314,81
42.9685,72
43.0057,79
43.0428,71
43.0800,71
43.1171,88
43.1543,110
43.1914,86
43.2286,84
43.2657,85
43.3029,75
43.3400,79
43.3772,85
43.4143,64
43.4515,84
43.4886,105
43.5258,116
43.5629,91
43.6001,95
43.6372,97
43.6744,83
43.7116,75
43.7487,88
43.7859,87
43.8230,77
43.8602,71
43.8973,85
43.9345,81
43.9716,63
44.0088,65
44.0459,72
44.0831,70
44.1202,69
44.1574,71
44.1945,73
44.2317,68
44.2688,80
44.3060,73
44.3431,70
44.3803,73
44.4174,68
44.4546,57
44.4917,80
44.5289,75
44.5660,91
44.6032,89
44.6403,73
44.6775,81
44.7146,83
44.7518,79
44.7889,70
44.8261,78
44.8632,69
44.9004,74
44.9375,75
44.9747,60
45.0118,70
45.0490,70
45.0861,88
45.1233,83
45.1604,57
45.1976,71
45.2347,78
45.2719,79
45.3091,66
45.3462,68
45.3834,71
45.4205,64
45.4577,66
45.4948,75
45.5320,69
45.5691,75
45.6063,44
45.6434,65
45.6806,80
45.7177,68
45.7549,67
45.7920,64
45.8292,48
45.8663,62
45.9035,65
45.9406,63
45.9778,69
46.0149,58
46.0521,65
46.0892,59
46.1264,76
46.1635,62
46.2007,61
46.2378,64
46.2750,79
46.3121,76
46.3493,71
46.3864,61
46.4236,52
46.4607,66
46.4979,69
46.5350,70
46.5722,67
46.6093,64
46.6465,60
46.6836,68
46.7208,73
46.7579,64
46.7951,60
46.8323,86
46.8694,59
46.9066,74
46.9437,75
46.9809,71
47.0180,77
47.0552,57
47.0923,75
47.1295,58
47.1666,58
47.2038,69
47.2409,59
47.2781,61
47.3152,60
47.3524,62
47.3895,59
47.4267,51
47.4638,65
47.5010,57
47.5381,49
47.5753,54
47.6124,61
47.6496,55
47.6867,61
47.7239,74
47.7610,67
47.7982,61
47.8353,65
47.8725,58
47.9096,62
47.9468,70
47.9839,80
48.0211,52
48.0582,64
48.0954,49
48.1325,55
48.1697,65
48.2068,77
48.2440,58
48.2811,64
48.3183,72
48.3555,65
48.3926,61
48.4298,64
48.4669,65
48.5041,65
48.5412,56
48.5784,61
48.6155,65
48.6527,64
48.6898,69
48.7270,72
48.7641,59
48.8013,65
48.8384,88
48.8756,69
48.9127,65
48.9499,134
48.9870,103
49.0242,79
49.0613,71
49.0985,94
49.1356,71
49.1728,77
49.2099,63
49.2471,55
49.2842,58
49.3214,75
49.3585,65
49.3957,71
49.4328,56
49.4700,68
49.5071,63
49.5443,60
49.5814,68
49.6186,64
49.6557,51
49.6929,64
49.7300,58
49.7672,55
49.8043,60
49.8415,61
49.8786,61
49.9158,79
49.9530,55
49.9901,73
50.0273,73
50.0644,67
50.1016,60
50.1387,67
50.1759,75
50.2130,67
50.2502,67
50.2873,72
50.3245,60
50.3616,69
50.3988,68
50.4359,61
50.4731,82
50.5102,64
50.5474,44
50.5845,65
50.6217,57
50.6588,48
50.6960,60
50.7331,76
50.7703,65
50.8074,72
50.8446,53
50.8817,60
50.9189,59
50.9560,57
50.9932,64
51.0303,62
51.0675,56
51.1046,64
51.1418,69
51.1789,64
51.2161,76
51.2532,69
51.2904,65
51.3275,50
51.3647,57
51.4018,77
51.4390,65
51.4762,58
51.5133,79
51.5505,60
51.5876,63
51.6248,72
51.6619,63
51.6991,55
51.7362,49
51.7734,53
51.8105,69
51.8477,61
51.8848,63
51.9220,60
51.9591,59
51.9963,67
52.0334,58
52.0706,57
52.1077,68
52.1449,54
52.1820,54
52.2192,57
52.2563,50
52.2935,65
52.3306,76
52.3678,45
52.4049,63
52.4421,69
52.4792,49
52.5164,67
52.5535,60
52.5907,60
52.6278,56
52.6650,53
52.7021,65
52.7393,62
52.7764,54
52.8136,50
52.8507,61
52.8879,44
52.9250,58
52.9622,63
52.9994,73
53.0365,73
53.0737,66
53.1108,68
53.1480,58
53.1851,60
53.2223,65
53.2594,62
53.2966,55
53.3337,69
53.3709,63
53.4080,65
53.4452,52
53.4823,56
53.5195,53
53.5566,68
53.5938,62
53.6309,60
53.6681,71
53.7052,66
53.7424,52
53.7795,46
53.8167,67
53.8538,51
53.8910,75
53.9281,72
53.9653,78
54.0024,82
54.0396,52
54.0767,59
54.1139,59
54.1510,78
54.1882,56
54.2253,63
54.2625,61
54.2996,50
54.3368,59
54.3739,58
54.4111,57
54.4482,46
54.4854,63
54.5225,58
54.5597,62
54.5969,47
54.6340,58
54.6712,48
54.7083,46
54.7455,58
54.7826,50
54.8198,51
54.8569,58
54.8941,54
54.9312,59
54.9684,55
55.0055,61
55.0427,45
55.0798,57
55.1170,53
55.1541,53
55.1913,47
55.2284,70
55.2656,56
55.3027,55
55.3399,59
55.3770,62
55.4142,70
55.4513,55
55.4885,43
55.5256,62
55.5628,48
55.5999,50
55.6371,64
55.6742,50
55.7114,61
55.7485,59
55.7857,70
55.8228,41
55.8600,63
55.8971,44
55.9343,57
55.9714,53
56.0086,48
56.0457,58
56.0829,52
56.1201,71
56.1572,39
56.1944,76
56.2315,72
56.2687,72
56.3058,68
56.3430,67
56.3801,61
56.4173,68
56.4544,69
56.4916,56
56.5287,49
56.5659,77
56.6030,54
56.6402,63
56.6773,58
56.7145,53
56.7516,54
56.7888,58
56.8259,64
56.8631,48
56.9002,51
56.9374,64
56.9745,78
57.0117,45
57.0488,48
57.0860,56
57.1231,49
57.1603,59
57.1974,64
57.2346,65
57.2717,68
57.3089,56
57.3460,58
57.3832,56
57.4203,57
57.4575,57
57.4946,48
57.5318,59
57.5689,58
57.6061,56
57.6433,56
57.6804,69
57.7176,53
57.7547,61
57.7919,54
57.8290,64
57.8662,51
57.9033,63
57.9405,63
57.9776,55
58.0148,53
58.0519,67
58.0891,53
58.1262,46
58.1634,49
58.2005,64
58.2377,59
58.2748,62
58.3120,56
58.3491,66
58.3863,68
58.4234,59
58.4606,51
58.4977,65
58.5349,55
58.5720,45
58.6092,54
58.6463,54
58.6835,62
58.7206,59
58.7578,49
58.7949,61
58.8321,55
58.8692,54
58.9064,39
58.9435,59
58.9807,52
59.0178,61
59.0550,61
59.0921,59
59.1293,56
59.1664,51
59.2036,48
59.2408,45
59.2779,54
59.3151,42
59.3522,60
59.3894,65
59.4265,46
59.4637,53
59.5008,61
59.5380,61
59.5751,52
59.6123,57
59.6494,61
59.6866,45
59.7237,63
59.7609,52
59.7980,60
59.8352,47
59.8723,68
59.9095,65
59.9466,51
59.9838,44
60.0024,58