File: notebooks/data/xrd_data/ML_20220718_54_SJD_4_LaB6-1min.uxd
; (content of file Y:\Sam\Apurva-07-20-2022\puck4\ML_20220718_54_SJD_4_LaB6-1min.raw)
_FILEVERSION = 3
_SAMPLE = ML_20220718_54_SJD_4_LaB6-1min
_+SAMPLE =
_SITE = USA
_USER = Administrator
_GONIOMETER_CODE = 20
; Goniometer : D8 theta/2theta, stage : Unknown
_ATTACHMENTS_CODE = 0
_GONIOMETER_RADIUS = 200.5
_FIXED_DIVSLIT = 0.6
_FIXED_SAMPLESLIT = 0
_SOLLER_SLITS = 2
_FIXED_DETSLIT = 9.55
_MONOCHROMATOR = 0
; Incident beam monochromator : None
_SOLLER_SLITS_2 = N
_THIN_FILM = N
_BETA_FILTER = Y
_FIXED_ANTISLIT = 5.89
_ANALYZER_CODE = 0
; Received beam analyzer : None
_DATEMEASURED = "26-Jul-2022 10:56:51"
_WL_UNIT = A
_WL1 = 1.5406
_WL2 = 1.54439
_WL3 = 1.39222
_WLRATIO = 0.5
_ANODE = Cu
_V4_INF_CREATOR = XRDWizard
_V4_INF_CREATOR_VERSION = V2.9.0.22
_V4_INF_WIZARD_VERSION = V2.9.0.22
_V4_INF_WIZARD_ADDINS = V2.9.0.22
_V4_INF_WIZARD_DOCTYPE = XRD
_V4_INF_OSUSER = McQueenLab
_V4_INF_USER = Administrator
_V4_INF_SITE = USA
_V4_INF_SAMPLEID = ML_20220718_54_SJD_4_LaB6-1min

; Data for range 1
_DRIVE = COUPLED
_STEPTIME = 4.23
_STEPSIZE = 0.0185756
_STEPMODE = C
_START = 5
_THETA = 2.5
_2THETA = 5
_KHI = 0
_PHI = 0
_X = 0
_Y = 0
_Z = 0
_DETECTOR = 5
; Detector type : Unknown
_DETECTORSLIT = unkn
_AUX1 = 0
_AUX2 = 0
_AUX3 = 0
_TIMESTARTED = 15
_TEMP_RATE = -1
_TEMP_DELAY = -1
_KV = 40
_MA = 40
_RANGE_WL = 1.5406
_3DPLANE = 0
_V4_ADDITIONALDETECTOR = 257
_V4_PSD2THETA = 3.3736
_V4_PSDCHANNEL1 = 0
_V4_PSDAPERTURE = 12.68
_V4_PSDTYPE = 5
_V4_PSDFIXED = 0
_V4_COUNTERS_MASK = 4096
_V4_DRIVES_MASK = 0
_V4_ENCODERS_MASK = 0
_2THETACOUNTS = 1
; 2THETA  PSD
   5.0000         87
   5.0372         94
   5.0743         90
   5.1115         96
   5.1486        100
   5.1858         95
   5.2229         88
   5.2601         85
   5.2972         91
   5.3344         97
   5.3715         78
   5.4087         82
   5.4458         86
   5.4830         83
   5.5201         95
   5.5573         75
   5.5944         83
   5.6316         89
   5.6687         94
   5.7059         74
   5.7430         71
   5.7802         78
   5.8173         74
   5.8545         64
   5.8916         80
   5.9288         64
   5.9659         72
   6.0031         59
   6.0402         63
   6.0774         67
   6.1145         65
   6.1517         69
   6.1888         67
   6.2260         73
   6.2631         80
   6.3003         58
   6.3374         61
   6.3746         77
   6.4117         71
   6.4489         78
   6.4860         56
   6.5232         67
   6.5604         78
   6.5975         68
   6.6347         76
   6.6718         63
   6.7090         62
   6.7461         61
   6.7833         54
   6.8204         59
   6.8576         59
   6.8947         54
   6.9319         65
   6.9690         66
   7.0062         41
   7.0433         46
   7.0805         58
   7.1176         50
   7.1548         63
   7.1919         57
   7.2291         47
   7.2662         67
   7.3034         55
   7.3405         60
   7.3777         54
   7.4148         56
   7.4520         43
   7.4891         60
   7.5263         58
   7.5634         59
   7.6006         60
   7.6377         55
   7.6749         59
   7.7120         66
   7.7492         61
   7.7863         70
   7.8235         68
   7.8606         57
   7.8978         66
   7.9349         68
   7.9721         62
   8.0092         70
   8.0464         67
   8.0835         69
   8.1207         63
   8.1579         74
   8.1950         89
   8.2322         67
   8.2693         70
   8.3065         65
   8.3436         66
   8.3808         77
   8.4179         76
   8.4551         66
   8.4922         74
   8.5294         73
   8.5665         69
   8.6037         57
   8.6408         91
   8.6780         73
   8.7151         60
   8.7523         77
   8.7894         94
   8.8266         56
   8.8637         83
   8.9009         71
   8.9380         71
   8.9752         77
   9.0123         66
   9.0495         74
   9.0866         63
   9.1238         78
   9.1609         65
   9.1981         77
   9.2352         65
   9.2724         84
   9.3095         77
   9.3467         86
   9.3838        102
   9.4210         81
   9.4581         63
   9.4953         86
   9.5324         78
   9.5696         74
   9.6067         85
   9.6439         88
   9.6811         79
   9.7182         71
   9.7554         89
   9.7925         73
   9.8297         84
   9.8668         90
   9.9040         86
   9.9411         85
   9.9783        101
  10.0154         84
  10.0526         82
  10.0897         95
  10.1269        101
  10.1640        101
  10.2012        104
  10.2383         71
  10.2755         91
  10.3126         90
  10.3498         89
  10.3869         98
  10.4241         97
  10.4612         91
  10.4984         86
  10.5355         93
  10.5727         77
  10.6098         86
  10.6470         72
  10.6841        105
  10.7213         94
  10.7584         84
  10.7956         88
  10.8327         78
  10.8699         78
  10.9070         92
  10.9442         82
  10.9813         81
  11.0185        100
  11.0556         85
  11.0928         86
  11.1299         69
  11.1671         97
  11.2043         97
  11.2414         92
  11.2786         86
  11.3157         93
  11.3529         87
  11.3900        102
  11.4272        103
  11.4643         89
  11.5015         85
  11.5386         95
  11.5758         76
  11.6129         74
  11.6501         86
  11.6872         87
  11.7244         83
  11.7615         78
  11.7987         80
  11.8358         83
  11.8730         69
  11.9101         81
  11.9473         95
  11.9844         83
  12.0216         83
  12.0587         89
  12.0959         86
  12.1330         84
  12.1702         89
  12.2073         78
  12.2445         85
  12.2816         92
  12.3188         80
  12.3559         84
  12.3931         80
  12.4302         79
  12.4674         80
  12.5045         90
  12.5417         85
  12.5788         70
  12.6160         74
  12.6531         90
  12.6903         72
  12.7274         91
  12.7646         92
  12.8018         64
  12.8389         76
  12.8761         70
  12.9132         90
  12.9504         69
  12.9875         76
  13.0247         79
  13.0618         76
  13.0990         85
  13.1361         65
  13.1733         79
  13.2104         71
  13.2476         79
  13.2847         63
  13.3219         83
  13.3590         70
  13.3962         81
  13.4333         74
  13.4705         71
  13.5076         59
  13.5448         66
  13.5819        101
  13.6191         86
  13.6562         74
  13.6934         76
  13.7305         67
  13.7677         64
  13.8048         66
  13.8420         77
  13.8791         80
  13.9163         68
  13.9534         73
  13.9906         68
  14.0277         62
  14.0649         76
  14.1020         65
  14.1392         61
  14.1763         61
  14.2135         57
  14.2506         79
  14.2878         59
  14.3250         69
  14.3621         66
  14.3993         61
  14.4364         82
  14.4736         55
  14.5107         58
  14.5479         72
  14.5850         61
  14.6222         67
  14.6593         66
  14.6965         61
  14.7336         55
  14.7708         56
  14.8079         58
  14.8451         64
  14.8822         49
  14.9194         60
  14.9565         59
  14.9937         56
  15.0308         45
  15.0680         66
  15.1051         62
  15.1423         55
  15.1794         72
  15.2166         54
  15.2537         61
  15.2909         54
  15.3280         69
  15.3652         64
  15.4023         56
  15.4395         60
  15.4766         55
  15.5138         66
  15.5509         59
  15.5881         65
  15.6252         81
  15.6624         64
  15.6995         57
  15.7367         59
  15.7738         57
  15.8110         65
  15.8482         49
  15.8853         66
  15.9225         51
  15.9596         73
  15.9968         53
  16.0339         59
  16.0711         68
  16.1082         48
  16.1454         84
  16.1825         65
  16.2197         60
  16.2568         57
  16.2940         63
  16.3311         56
  16.3683         58
  16.4054         62
  16.4426         56
  16.4797         65
  16.5169         61
  16.5540         56
  16.5912         63
  16.6283         54
  16.6655         61
  16.7026         51
  16.7398         64
  16.7769         56
  16.8141         62
  16.8512         58
  16.8884         57
  16.9255         55
  16.9627         61
  16.9998         48
  17.0370         50
  17.0741         59
  17.1113         70
  17.1484         61
  17.1856         48
  17.2227         63
  17.2599         53
  17.2970         68
  17.3342         50
  17.3713         59
  17.4085         55
  17.4457         50
  17.4828         62
  17.5200         65
  17.5571         50
  17.5943         67
  17.6314         54
  17.6686         56
  17.7057         65
  17.7429         70
  17.7800         48
  17.8172         54
  17.8543         64
  17.8915         64
  17.9286         62
  17.9658         68
  18.0029         47
  18.0401         56
  18.0772         63
  18.1144         67
  18.1515         58
  18.1887         65
  18.2258         68
  18.2630         69
  18.3001         53
  18.3373         67
  18.3744         66
  18.4116         44
  18.4487         58
  18.4859         60
  18.5230         59
  18.5602         49
  18.5973         54
  18.6345         66
  18.6716         56
  18.7088         69
  18.7459         59
  18.7831         51
  18.8202         78
  18.8574         74
  18.8945         47
  18.9317         58
  18.9689         68
  19.0060         62
  19.0432         65
  19.0803         60
  19.1175         57
  19.1546         74
  19.1918         78
  19.2289         67
  19.2661         63
  19.3032         52
  19.3404         64
  19.3775         80
  19.4147         57
  19.4518         68
  19.4890         63
  19.5261         82
  19.5633         67
  19.6004         65
  19.6376         71
  19.6747         66
  19.7119         64
  19.7490         65
  19.7862         54
  19.8233         70
  19.8605         77
  19.8976         62
  19.9348         71
  19.9719         79
  20.0091         59
  20.0462         59
  20.0834         67
  20.1205         59
  20.1577         70
  20.1948         63
  20.2320         75
  20.2691         76
  20.3063         62
  20.3434         73
  20.3806         66
  20.4177         68
  20.4549         74
  20.4921         64
  20.5292         73
  20.5664         54
  20.6035         57
  20.6407         66
  20.6778         63
  20.7150         54
  20.7521         68
  20.7893         68
  20.8264         69
  20.8636         63
  20.9007         78
  20.9379         66
  20.9750         67
  21.0122         62
  21.0493         81
  21.0865         74
  21.1236         82
  21.1608         98
  21.1979        130
  21.2351        127
  21.2722        124
  21.3094        124
  21.3465        162
  21.3837        160
  21.4208        124
  21.4580         77
  21.4951         67
  21.5323         60
  21.5694         85
  21.6066         67
  21.6437         80
  21.6809         86
  21.7180         73
  21.7552         60
  21.7923         70
  21.8295         70
  21.8666         64
  21.9038         81
  21.9409         73
  21.9781         75
  22.0152         72
  22.0524         69
  22.0896         82
  22.1267         80
  22.1639         81
  22.2010         62
  22.2382         88
  22.2753         70
  22.3125         66
  22.3496         86
  22.3868         74
  22.4239         79
  22.4611         55
  22.4982         73
  22.5354         70
  22.5725         59
  22.6097         92
  22.6468         55
  22.6840         64
  22.7211         76
  22.7583         81
  22.7954         70
  22.8326         77
  22.8697         88
  22.9069         71
  22.9440         72
  22.9812         78
  23.0183         68
  23.0555         75
  23.0926         64
  23.1298         59
  23.1669         74
  23.2041         69
  23.2412         70
  23.2784         63
  23.3155         89
  23.3527         75
  23.3898         70
  23.4270         83
  23.4641         83
  23.5013         68
  23.5384         67
  23.5756         81
  23.6128         63
  23.6499         78
  23.6871         82
  23.7242         72
  23.7614         66
  23.7985         89
  23.8357         87
  23.8728         85
  23.9100         60
  23.9471         66
  23.9843         90
  24.0214         54
  24.0586         64
  24.0957         74
  24.1329         68
  24.1700         95
  24.2072         91
  24.2443         87
  24.2815         98
  24.3186         90
  24.3558        105
  24.3929         80
  24.4301         76
  24.4672         79
  24.5044         72
  24.5415         82
  24.5787         75
  24.6158         65
  24.6530         83
  24.6901         82
  24.7273         61
  24.7644         79
  24.8016         66
  24.8387         74
  24.8759         74
  24.9130         76
  24.9502         74
  24.9873         54
  25.0245         93
  25.0616         77
  25.0988         79
  25.1360         64
  25.1731         75
  25.2103         70
  25.2474         76
  25.2846         81
  25.3217         75
  25.3589         68
  25.3960         64
  25.4332         55
  25.4703         64
  25.5075         63
  25.5446         67
  25.5818         64
  25.6189         69
  25.6561         70
  25.6932         84
  25.7304         68
  25.7675         79
  25.8047         76
  25.8418         72
  25.8790         69
  25.9161         77
  25.9533         86
  25.9904         63
  26.0276         58
  26.0647         78
  26.1019         63
  26.1390         64
  26.1762         63
  26.2133         81
  26.2505         80
  26.2876         72
  26.3248         56
  26.3619         78
  26.3991         71
  26.4362         61
  26.4734         80
  26.5105         82
  26.5477         74
  26.5848         71
  26.6220         65
  26.6591         69
  26.6963         88
  26.7335         73
  26.7706         81
  26.8078         72
  26.8449         64
  26.8821         73
  26.9192         86
  26.9564         81
  26.9935         63
  27.0307         65
  27.0678         72
  27.1050         70
  27.1421         70
  27.1793         73
  27.2164        101
  27.2536        100
  27.2907         72
  27.3279         71
  27.3650         61
  27.4022         57
  27.4393         60
  27.4765         68
  27.5136         64
  27.5508         64
  27.5879         56
  27.6251         64
  27.6622         58
  27.6994         57
  27.7365         61
  27.7737         67
  27.8108         60
  27.8480         51
  27.8851         56
  27.9223         71
  27.9594         50
  27.9966         79
  28.0337         56
  28.0709         62
  28.1080         59
  28.1452         56
  28.1823         81
  28.2195         66
  28.2567         54
  28.2938         64
  28.3310         61
  28.3681         52
  28.4053         47
  28.4424         53
  28.4796         59
  28.5167         64
  28.5539         51
  28.5910         64
  28.6282         66
  28.6653         59
  28.7025         65
  28.7396         45
  28.7768         69
  28.8139         70
  28.8511         69
  28.8882         77
  28.9254         52
  28.9625         53
  28.9997         52
  29.0368         53
  29.0740         54
  29.1111         53
  29.1483         49
  29.1854         54
  29.2226         59
  29.2597         58
  29.2969         64
  29.3340         58
  29.3712         57
  29.4083         69
  29.4455         58
  29.4826         67
  29.5198         46
  29.5569         63
  29.5941         52
  29.6312         66
  29.6684         69
  29.7055         69
  29.7427         65
  29.7799         55
  29.8170         58
  29.8542         52
  29.8913         57
  29.9285         66
  29.9656         45
  30.0028         55
  30.0399         63
  30.0771         47
  30.1142         70
  30.1514         58
  30.1885         65
  30.2257         65
  30.2628         63
  30.3000         62
  30.3371         79
  30.3743        124
  30.4114        101
  30.4486         93
  30.4857         88
  30.5229         71
  30.5600         56
  30.5972         53
  30.6343         56
  30.6715         54
  30.7086         59
  30.7458         61
  30.7829         50
  30.8201         43
  30.8572         54
  30.8944         52
  30.9315         53
  30.9687         54
  31.0058         66
  31.0430         53
  31.0801         47
  31.1173         51
  31.1544         51
  31.1916         49
  31.2287         50
  31.2659         53
  31.3030         55
  31.3402         44
  31.3774         58
  31.4145         56
  31.4517         60
  31.4888         52
  31.5260         60
  31.5631         54
  31.6003         41
  31.6374         53
  31.6746         59
  31.7117         61
  31.7489         52
  31.7860         51
  31.8232         52
  31.8603         58
  31.8975         38
  31.9346         57
  31.9718         43
  32.0089         51
  32.0461         49
  32.0832         50
  32.1204         44
  32.1575         47
  32.1947         60
  32.2318         40
  32.2690         33
  32.3061         55
  32.3433         58
  32.3804         44
  32.4176         67
  32.4547         43
  32.4919         47
  32.5290         60
  32.5662         53
  32.6033         49
  32.6405         39
  32.6776         51
  32.7148         46
  32.7519         39
  32.7891         55
  32.8262         47
  32.8634         62
  32.9006         49
  32.9377         57
  32.9749         51
  33.0120         61
  33.0492         44
  33.0863         36
  33.1235         43
  33.1606         43
  33.1978         38
  33.2349         49
  33.2721         35
  33.3092         65
  33.3464         58
  33.3835         29
  33.4207         33
  33.4578         53
  33.4950         39
  33.5321         46
  33.5693         42
  33.6064         38
  33.6436         49
  33.6807         50
  33.7179         37
  33.7550         56
  33.7922         42
  33.8293         41
  33.8665         40
  33.9036         47
  33.9408         41
  33.9779         45
  34.0151         39
  34.0522         45
  34.0894         40
  34.1265         40
  34.1637         40
  34.2008         39
  34.2380         45
  34.2751         45
  34.3123         47
  34.3494         55
  34.3866         27
  34.4238         44
  34.4609         41
  34.4981         44
  34.5352         48
  34.5724         45
  34.6095         43
  34.6467         52
  34.6838         54
  34.7210         63
  34.7581         69
  34.7953         54
  34.8324         64
  34.8696         43
  34.9067         45
  34.9439         30
  34.9810         44
  35.0182         37
  35.0553         39
  35.0925         36
  35.1296         38
  35.1668         35
  35.2039         34
  35.2411         27
  35.2782         32
  35.3154         38
  35.3525         37
  35.3897         46
  35.4268         36
  35.4640         39
  35.5011         37
  35.5383         49
  35.5754         38
  35.6126         25
  35.6497         39
  35.6869         34
  35.7240         30
  35.7612         30
  35.7983         42
  35.8355         36
  35.8726         52
  35.9098         37
  35.9469         26
  35.9841         29
  36.0213         50
  36.0584         39
  36.0956         26
  36.1327         25
  36.1699         32
  36.2070         34
  36.2442         37
  36.2813         30
  36.3185         32
  36.3556         37
  36.3928         39
  36.4299         33
  36.4671         26
  36.5042         41
  36.5414         35
  36.5785         45
  36.6157         33
  36.6528         34
  36.6900         44
  36.7271         29
  36.7643         36
  36.8014         38
  36.8386         35
  36.8757         31
  36.9129         26
  36.9500         35
  36.9872         30
  37.0243         39
  37.0615         31
  37.0986         24
  37.1358         31
  37.1729         44
  37.2101         36
  37.2472         32
  37.2844         47
  37.3215         28
  37.3587         42
  37.3958         32
  37.4330         48
  37.4701         43
  37.5073         39
  37.5445         44
  37.5816         38
  37.6188         36
  37.6559         33
  37.6931         32
  37.7302         33
  37.7674         32
  37.8045         29
  37.8417         37
  37.8788         30
  37.9160         25
  37.9531         32
  37.9903         39
  38.0274         37
  38.0646         33
  38.1017         28
  38.1389         27
  38.1760         37
  38.2132         38
  38.2503         49
  38.2875         33
  38.3246         17
  38.3618         37
  38.3989         32
  38.4361         28
  38.4732         30
  38.5104         29
  38.5475         26
  38.5847         36
  38.6218         30
  38.6590         23
  38.6961         30
  38.7333         28
  38.7704         21
  38.8076         28
  38.8447         44
  38.8819         32
  38.9190         31
  38.9562         31
  38.9933         32
  39.0305         39
  39.0677         28
  39.1048         34
  39.1420         31
  39.1791         36
  39.2163         31
  39.2534         36
  39.2906         26
  39.3277         28
  39.3649         25
  39.4020         43
  39.4392         27
  39.4763         25
  39.5135         35
  39.5506         29
  39.5878         27
  39.6249         22
  39.6621         32
  39.6992         27
  39.7364         30
  39.7735         30
  39.8107         28
  39.8478         36
  39.8850         25
  39.9221         32
  39.9593         37
  39.9964         34
  40.0336         30
  40.0707         35
  40.1079         30
  40.1450         30
  40.1822         35
  40.2193         34
  40.2565         29
  40.2936         31
  40.3308         23
  40.3679         43
  40.4051         29
  40.4422         27
  40.4794         18
  40.5165         27
  40.5537         28
  40.5908         18
  40.6280         30
  40.6652         38
  40.7023         36
  40.7395         25
  40.7766         32
  40.8138         26
  40.8509         24
  40.8881         35
  40.9252         26
  40.9624         31
  40.9995         30
  41.0367         23
  41.0738         29
  41.1110         22
  41.1481         31
  41.1853         22
  41.2224         35
  41.2596         28
  41.2967         28
  41.3339         33
  41.3710         35
  41.4082         29
  41.4453         25
  41.4825         28
  41.5196         19
  41.5568         24
  41.5939         32
  41.6311         26
  41.6682         22
  41.7054         36
  41.7425         29
  41.7797         34
  41.8168         24
  41.8540         27
  41.8911         19
  41.9283         29
  41.9654         21
  42.0026         27
  42.0397         37
  42.0769         29
  42.1140         24
  42.1512         19
  42.1884         22
  42.2255         24
  42.2627         24
  42.2998         32
  42.3370         23
  42.3741         24
  42.4113         19
  42.4484         23
  42.4856         33
  42.5227         29
  42.5599         26
  42.5970         25
  42.6342         22
  42.6713         24
  42.7085         22
  42.7456         31
  42.7828         15
  42.8199         26
  42.8571         34
  42.8942         30
  42.9314         22
  42.9685         36
  43.0057         30
  43.0428         24
  43.0800         22
  43.1171         30
  43.1543         36
  43.1914         26
  43.2286         35
  43.2657         37
  43.3029         32
  43.3400         31
  43.3772         37
  43.4143         23
  43.4515         33
  43.4886         40
  43.5258         37
  43.5629         30
  43.6001         27
  43.6372         35
  43.6744         27
  43.7116         21
  43.7487         35
  43.7859         33
  43.8230         30
  43.8602         33
  43.8973         31
  43.9345         19
  43.9716         27
  44.0088         28
  44.0459         36
  44.0831         20
  44.1202         36
  44.1574         30
  44.1945         22
  44.2317         25
  44.2688         27
  44.3060         25
  44.3431         33
  44.3803         31
  44.4174         31
  44.4546         32
  44.4917         29
  44.5289         38
  44.5660         32
  44.6032         28
  44.6403         22
  44.6775         18
  44.7146         11
  44.7518         33
  44.7889         30
  44.8261         27
  44.8632         26
  44.9004         30
  44.9375         26
  44.9747         23
  45.0118         25
  45.0490         24
  45.0861         23
  45.1233         28
  45.1604         14
  45.1976         26
  45.2347         30
  45.2719         22
  45.3091         33
  45.3462         32
  45.3834         24
  45.4205         38
  45.4577         27
  45.4948         21
  45.5320         30
  45.5691         26
  45.6063         26
  45.6434         23
  45.6806         21
  45.7177         18
  45.7549         10
  45.7920         25
  45.8292         28
  45.8663         29
  45.9035         23
  45.9406         25
  45.9778         21
  46.0149         22
  46.0521         25
  46.0892         19
  46.1264         33
  46.1635         20
  46.2007         26
  46.2378         24
  46.2750         17
  46.3121         26
  46.3493         24
  46.3864         24
  46.4236         22
  46.4607         32
  46.4979         23
  46.5350         22
  46.5722         25
  46.6093         30
  46.6465         14
  46.6836         25
  46.7208         21
  46.7579         21
  46.7951         31
  46.8323         21
  46.8694         25
  46.9066         28
  46.9437         20
  46.9809         22
  47.0180         23
  47.0552         22
  47.0923         29
  47.1295         25
  47.1666         20
  47.2038         20
  47.2409         20
  47.2781         27
  47.3152         31
  47.3524         28
  47.3895         31
  47.4267         25
  47.4638         23
  47.5010         15
  47.5381         17
  47.5753         14
  47.6124         15
  47.6496         24
  47.6867         23
  47.7239         25
  47.7610         25
  47.7982         30
  47.8353         32
  47.8725         28
  47.9096         26
  47.9468         29
  47.9839         18
  48.0211         18
  48.0582         22
  48.0954         24
  48.1325         22
  48.1697         21
  48.2068         22
  48.2440         21
  48.2811         26
  48.3183         26
  48.3555         22
  48.3926         19
  48.4298         21
  48.4669         25
  48.5041         23
  48.5412         27
  48.5784         23
  48.6155         19
  48.6527         25
  48.6898         15
  48.7270         23
  48.7641         21
  48.8013         32
  48.8384         26
  48.8756         22
  48.9127         33
  48.9499         49
  48.9870         39
  49.0242         29
  49.0613         31
  49.0985         29
  49.1356         34
  49.1728         31
  49.2099         29
  49.2471         28
  49.2842         17
  49.3214         21
  49.3585         29
  49.3957         32
  49.4328         29
  49.4700         25
  49.5071         15
  49.5443         23
  49.5814         15
  49.6186         23
  49.6557         19
  49.6929         26
  49.7300         29
  49.7672         28
  49.8043         26
  49.8415         20
  49.8786         23
  49.9158         23
  49.9530         21
  49.9901         23
  50.0273         25
  50.0644         31
  50.1016         20
  50.1387         36
  50.1759         25
  50.2130         16
  50.2502         38
  50.2873         23
  50.3245         28
  50.3616         13
  50.3988         21
  50.4359         21
  50.4731         25
  50.5102         21
  50.5474         29
  50.5845         19
  50.6217         18
  50.6588         18
  50.6960         25
  50.7331         25
  50.7703         21
  50.8074         27
  50.8446         25
  50.8817         16
  50.9189         32
  50.9560         25
  50.9932         27
  51.0303         25
  51.0675         33
  51.1046         30
  51.1418         20
  51.1789         19
  51.2161         26
  51.2532         25
  51.2904         23
  51.3275         19
  51.3647         23
  51.4018         30
  51.4390         18
  51.4762         21
  51.5133         26
  51.5505         37
  51.5876         20
  51.6248         22
  51.6619         24
  51.6991         11
  51.7362         29
  51.7734         17
  51.8105         15
  51.8477         21
  51.8848         20
  51.9220         24
  51.9591         25
  51.9963         26
  52.0334         21
  52.0706         22
  52.1077         23
  52.1449         13
  52.1820         17
  52.2192         21
  52.2563         22
  52.2935         21
  52.3306         15
  52.3678         24
  52.4049         20
  52.4421         22
  52.4792         17
  52.5164         24
  52.5535         12
  52.5907         16
  52.6278         22
  52.6650         28
  52.7021         19
  52.7393         21
  52.7764         23
  52.8136         16
  52.8507         18
  52.8879         24
  52.9250         19
  52.9622         12
  52.9994         25
  53.0365         22
  53.0737         32
  53.1108         30
  53.1480         23
  53.1851         23
  53.2223         22
  53.2594         20
  53.2966         23
  53.3337          9
  53.3709         19
  53.4080         21
  53.4452         16
  53.4823         18
  53.5195         19
  53.5566         19
  53.5938         21
  53.6309         12
  53.6681         29
  53.7052         17
  53.7424         27
  53.7795         21
  53.8167         18
  53.8538         19
  53.8910         27
  53.9281         25
  53.9653         33
  54.0024         24
  54.0396         34
  54.0767         27
  54.1139         18
  54.1510         24
  54.1882         27
  54.2253         21
  54.2625         25
  54.2996         28
  54.3368         25
  54.3739         14
  54.4111         24
  54.4482         24
  54.4854         23
  54.5225         23
  54.5597         21
  54.5969         22
  54.6340         20
  54.6712         17
  54.7083         17
  54.7455         26
  54.7826         24
  54.8198         26
  54.8569         17
  54.8941         24
  54.9312         21
  54.9684         25
  55.0055         18
  55.0427         23
  55.0798         25
  55.1170         15
  55.1541         24
  55.1913         21
  55.2284         18
  55.2656         27
  55.3027         18
  55.3399         23
  55.3770         30
  55.4142         19
  55.4513         16
  55.4885         23
  55.5256         10
  55.5628         24
  55.5999         16
  55.6371         20
  55.6742         23
  55.7114         14
  55.7485         17
  55.7857         18
  55.8228         24
  55.8600         14
  55.8971         18
  55.9343         26
  55.9714         23
  56.0086         19
  56.0457         15
  56.0829         15
  56.1201         21
  56.1572         23
  56.1944         25
  56.2315         20
  56.2687         27
  56.3058         17
  56.3430         17
  56.3801         21
  56.4173         16
  56.4544         22
  56.4916         17
  56.5287         20
  56.5659         21
  56.6030         22
  56.6402         20
  56.6773         24
  56.7145         20
  56.7516         25
  56.7888          9
  56.8259         25
  56.8631         15
  56.9002         17
  56.9374         24
  56.9745         25
  57.0117         17
  57.0488         31
  57.0860         15
  57.1231         20
  57.1603         18
  57.1974         25
  57.2346         23
  57.2717         18
  57.3089         17
  57.3460         27
  57.3832         15
  57.4203         17
  57.4575         17
  57.4946         14
  57.5318         19
  57.5689         27
  57.6061         20
  57.6433         14
  57.6804         22
  57.7176         30
  57.7547         25
  57.7919         21
  57.8290         21
  57.8662          8
  57.9033         21
  57.9405         28
  57.9776         23
  58.0148         22
  58.0519         17
  58.0891         21
  58.1262         17
  58.1634         29
  58.2005         23
  58.2377         12
  58.2748         24
  58.3120         20
  58.3491         21
  58.3863         12
  58.4234         24
  58.4606         22
  58.4977         14
  58.5349         23
  58.5720         20
  58.6092         12
  58.6463         23
  58.6835         28
  58.7206         13
  58.7578         17
  58.7949         24
  58.8321         24
  58.8692         24
  58.9064         19
  58.9435         28
  58.9807         21
  59.0178         17
  59.0550         24
  59.0921         20
  59.1293         13
  59.1664         20
  59.2036         14
  59.2408         16
  59.2779         15
  59.3151         20
  59.3522         22
  59.3894         21
  59.4265         18
  59.4637         24
  59.5008         24
  59.5380         16
  59.5751         23
  59.6123         28
  59.6494         19
  59.6866         23
  59.7237         10
  59.7609         20
  59.7980         21
  59.8352         17
  59.8723         12
  59.9095         24
  59.9466         14
  59.9838         22
  60.0024         21