File: notebooks/data/xrd_data/ML_20220720_9_SJD_4_LaB6-4min.csv
;,2THETA,
5.0000,243
5.0372,266
5.0743,263
5.1115,264
5.1486,233
5.1858,290
5.2229,259
5.2601,248
5.2972,231
5.3344,250
5.3715,223
5.4087,227
5.4458,227
5.4830,227
5.5201,227
5.5573,220
5.5944,225
5.6316,210
5.6687,224
5.7059,219
5.7430,198
5.7802,216
5.8173,198
5.8545,212
5.8916,183
5.9288,188
5.9659,205
6.0031,155
6.0402,196
6.0774,174
6.1145,182
6.1517,162
6.1888,191
6.2260,188
6.2631,190
6.3003,185
6.3374,190
6.3746,166
6.4117,209
6.4489,180
6.4860,179
6.5232,161
6.5604,169
6.5975,177
6.6347,164
6.6718,161
6.7090,166
6.7461,185
6.7833,185
6.8204,177
6.8576,185
6.8947,188
6.9319,155
6.9690,163
7.0062,179
7.0433,167
7.0805,184
7.1176,159
7.1548,163
7.1919,153
7.2291,166
7.2662,157
7.3034,185
7.3405,152
7.3777,174
7.4148,180
7.4520,142
7.4891,171
7.5263,182
7.5634,172
7.6006,162
7.6377,143
7.6749,163
7.7120,159
7.7492,177
7.7863,190
7.8235,191
7.8606,196
7.8978,184
7.9349,162
7.9721,192
8.0092,183
8.0464,189
8.0835,186
8.1207,195
8.1579,210
8.1950,192
8.2322,179
8.2693,185
8.3065,187
8.3436,190
8.3808,203
8.4179,194
8.4551,221
8.4922,230
8.5294,210
8.5665,206
8.6037,208
8.6408,197
8.6780,203
8.7151,219
8.7523,198
8.7894,180
8.8266,211
8.8637,207
8.9009,209
8.9380,227
8.9752,201
9.0123,218
9.0495,221
9.0866,231
9.1238,196
9.1609,193
9.1981,230
9.2352,228
9.2724,218
9.3095,223
9.3467,235
9.3838,221
9.4210,267
9.4581,216
9.4953,238
9.5324,233
9.5696,216
9.6067,248
9.6439,233
9.6811,216
9.7182,218
9.7554,195
9.7925,255
9.8297,232
9.8668,260
9.9040,243
9.9411,230
9.9783,264
10.0154,262
10.0526,258
10.0897,245
10.1269,283
10.1640,253
10.2012,211
10.2383,238
10.2755,235
10.3126,244
10.3498,254
10.3869,217
10.4241,273
10.4612,264
10.4984,249
10.5355,252
10.5727,253
10.6098,232
10.6470,268
10.6841,227
10.7213,243
10.7584,252
10.7956,248
10.8327,253
10.8699,218
10.9070,216
10.9442,239
10.9813,234
11.0185,243
11.0556,223
11.0928,241
11.1299,227
11.1671,260
11.2043,225
11.2414,239
11.2786,223
11.3157,221
11.3529,232
11.3900,254
11.4272,227
11.4643,238
11.5015,248
11.5386,242
11.5758,221
11.6129,246
11.6501,250
11.6872,242
11.7244,238
11.7615,248
11.7987,248
11.8358,260
11.8730,243
11.9101,223
11.9473,205
11.9844,217
12.0216,235
12.0587,212
12.0959,226
12.1330,227
12.1702,228
12.2073,210
12.2445,214
12.2816,232
12.3188,239
12.3559,208
12.3931,226
12.4302,202
12.4674,210
12.5045,233
12.5417,200
12.5788,256
12.6160,214
12.6531,216
12.6903,198
12.7274,231
12.7646,190
12.8018,185
12.8389,222
12.8761,212
12.9132,195
12.9504,216
12.9875,218
13.0247,195
13.0618,197
13.0990,200
13.1361,197
13.1733,168
13.2104,188
13.2476,179
13.2847,204
13.3219,214
13.3590,196
13.3962,210
13.4333,213
13.4705,213
13.5076,177
13.5448,192
13.5819,181
13.6191,174
13.6562,200
13.6934,174
13.7305,186
13.7677,185
13.8048,218
13.8420,200
13.8791,208
13.9163,172
13.9534,198
13.9906,183
14.0277,197
14.0649,204
14.1020,169
14.1392,201
14.1763,175
14.2135,173
14.2506,183
14.2878,178
14.3250,182
14.3621,176
14.3993,185
14.4364,177
14.4736,169
14.5107,167
14.5479,171
14.5850,161
14.6222,166
14.6593,139
14.6965,169
14.7336,169
14.7708,176
14.8079,165
14.8451,188
14.8822,162
14.9194,155
14.9565,178
14.9937,160
15.0308,164
15.0680,173
15.1051,152
15.1423,179
15.1794,164
15.2166,193
15.2537,151
15.2909,162
15.3280,183
15.3652,155
15.4023,137
15.4395,157
15.4766,157
15.5138,184
15.5509,168
15.5881,152
15.6252,170
15.6624,172
15.6995,166
15.7367,182
15.7738,151
15.8110,156
15.8482,167
15.8853,191
15.9225,166
15.9596,147
15.9968,158
16.0339,158
16.0711,158
16.1082,151
16.1454,164
16.1825,161
16.2197,152
16.2568,165
16.2940,150
16.3311,192
16.3683,156
16.4054,171
16.4426,165
16.4797,152
16.5169,164
16.5540,138
16.5912,150
16.6283,147
16.6655,176
16.7026,155
16.7398,141
16.7769,167
16.8141,170
16.8512,174
16.8884,162
16.9255,158
16.9627,172
16.9998,156
17.0370,154
17.0741,155
17.1113,168
17.1484,157
17.1856,161
17.2227,179
17.2599,159
17.2970,166
17.3342,166
17.3713,181
17.4085,161
17.4457,155
17.4828,162
17.5200,168
17.5571,166
17.5943,156
17.6314,176
17.6686,198
17.7057,168
17.7429,152
17.7800,164
17.8172,174
17.8543,155
17.8915,162
17.9286,148
17.9658,201
18.0029,154
18.0401,157
18.0772,189
18.1144,155
18.1515,180
18.1887,163
18.2258,160
18.2630,156
18.3001,156
18.3373,169
18.3744,167
18.4116,151
18.4487,148
18.4859,159
18.5230,169
18.5602,205
18.5973,173
18.6345,172
18.6716,164
18.7088,163
18.7459,172
18.7831,176
18.8202,161
18.8574,183
18.8945,167
18.9317,160
18.9689,167
19.0060,188
19.0432,166
19.0803,171
19.1175,168
19.1546,174
19.1918,188
19.2289,188
19.2661,159
19.3032,203
19.3404,161
19.3775,172
19.4147,191
19.4518,167
19.4890,155
19.5261,176
19.5633,181
19.6004,161
19.6376,186
19.6747,148
19.7119,160
19.7490,187
19.7862,181
19.8233,180
19.8605,163
19.8976,183
19.9348,191
19.9719,175
20.0091,188
20.0462,205
20.0834,196
20.1205,208
20.1577,185
20.1948,179
20.2320,179
20.2691,205
20.3063,173
20.3434,177
20.3806,180
20.4177,193
20.4549,198
20.4921,200
20.5292,207
20.5664,198
20.6035,178
20.6407,212
20.6778,202
20.7150,181
20.7521,179
20.7893,204
20.8264,192
20.8636,189
20.9007,200
20.9379,178
20.9750,191
21.0122,193
21.0493,208
21.0865,176
21.1236,227
21.1608,205
21.1979,297
21.2351,327
21.2722,317
21.3094,323
21.3465,486
21.3837,381
21.4208,325
21.4580,238
21.4951,227
21.5323,199
21.5694,179
21.6066,180
21.6437,192
21.6809,193
21.7180,206
21.7552,190
21.7923,200
21.8295,236
21.8666,197
21.9038,207
21.9409,208
21.9781,185
22.0152,182
22.0524,182
22.0896,207
22.1267,205
22.1639,189
22.2010,185
22.2382,196
22.2753,197
22.3125,212
22.3496,195
22.3868,181
22.4239,187
22.4611,186
22.4982,169
22.5354,205
22.5725,195
22.6097,171
22.6468,204
22.6840,187
22.7211,198
22.7583,210
22.7954,171
22.8326,209
22.8697,209
22.9069,184
22.9440,213
22.9812,190
23.0183,210
23.0555,195
23.0926,209
23.1298,195
23.1669,190
23.2041,191
23.2412,191
23.2784,195
23.3155,180
23.3527,212
23.3898,164
23.4270,184
23.4641,189
23.5013,194
23.5384,228
23.5756,200
23.6128,211
23.6499,191
23.6871,203
23.7242,186
23.7614,199
23.7985,206
23.8357,195
23.8728,192
23.9100,202
23.9471,202
23.9843,219
24.0214,197
24.0586,210
24.0957,202
24.1329,206
24.1700,198
24.2072,190
24.2443,220
24.2815,226
24.3186,234
24.3558,246
24.3929,203
24.4301,196
24.4672,204
24.5044,215
24.5415,222
24.5787,189
24.6158,196
24.6530,204
24.6901,183
24.7273,197
24.7644,198
24.8016,189
24.8387,201
24.8759,220
24.9130,188
24.9502,205
24.9873,208
25.0245,217
25.0616,199
25.0988,206
25.1360,199
25.1731,212
25.2103,190
25.2474,193
25.2846,224
25.3217,225
25.3589,167
25.3960,210
25.4332,192
25.4703,204
25.5075,193
25.5446,195
25.5818,226
25.6189,190
25.6561,192
25.6932,213
25.7304,200
25.7675,210
25.8047,189
25.8418,203
25.8790,183
25.9161,194
25.9533,195
25.9904,171
26.0276,205
26.0647,198
26.1019,211
26.1390,167
26.1762,205
26.2133,197
26.2505,196
26.2876,180
26.3248,164
26.3619,192
26.3991,157
26.4362,164
26.4734,195
26.5105,191
26.5477,191
26.5848,220
26.6220,178
26.6591,181
26.6963,175
26.7335,189
26.7706,207
26.8078,186
26.8449,189
26.8821,185
26.9192,185
26.9564,155
26.9935,198
27.0307,177
27.0678,195
27.1050,237
27.1421,202
27.1793,245
27.2164,236
27.2536,223
27.2907,237
27.3279,201
27.3650,168
27.4022,198
27.4393,198
27.4765,165
27.5136,195
27.5508,176
27.5879,159
27.6251,177
27.6622,178
27.6994,192
27.7365,192
27.7737,168
27.8108,172
27.8480,191
27.8851,165
27.9223,192
27.9594,159
27.9966,180
28.0337,174
28.0709,187
28.1080,173
28.1452,156
28.1823,166
28.2195,171
28.2567,171
28.2938,164
28.3310,178
28.3681,176
28.4053,181
28.4424,160
28.4796,168
28.5167,195
28.5539,159
28.5910,184
28.6282,151
28.6653,172
28.7025,181
28.7396,165
28.7768,167
28.8139,152
28.8511,164
28.8882,195
28.9254,186
28.9625,158
28.9997,165
29.0368,161
29.0740,173
29.1111,157
29.1483,160
29.1854,165
29.2226,149
29.2597,158
29.2969,168
29.3340,170
29.3712,157
29.4083,148
29.4455,171
29.4826,157
29.5198,168
29.5569,152
29.5941,148
29.6312,146
29.6684,143
29.7055,149
29.7427,145
29.7799,174
29.8170,163
29.8542,158
29.8913,159
29.9285,154
29.9656,153
30.0028,145
30.0399,145
30.0771,143
30.1142,155
30.1514,159
30.1885,163
30.2257,153
30.2628,170
30.3000,155
30.3371,200
30.3743,304
30.4114,267
30.4486,258
30.4857,218
30.5229,165
30.5600,177
30.5972,146
30.6343,144
30.6715,160
30.7086,153
30.7458,152
30.7829,147
30.8201,142
30.8572,137
30.8944,166
30.9315,139
30.9687,150
31.0058,149
31.0430,151
31.0801,147
31.1173,146
31.1544,160
31.1916,142
31.2287,153
31.2659,139
31.3030,156
31.3402,141
31.3774,139
31.4145,126
31.4517,156
31.4888,149
31.5260,132
31.5631,127
31.6003,148
31.6374,142
31.6746,131
31.7117,125
31.7489,116
31.7860,131
31.8232,128
31.8603,135
31.8975,138
31.9346,128
31.9718,126
32.0089,134
32.0461,140
32.0832,125
32.1204,129
32.1575,132
32.1947,149
32.2318,136
32.2690,132
32.3061,142
32.3433,116
32.3804,118
32.4176,142
32.4547,154
32.4919,154
32.5290,161
32.5662,144
32.6033,133
32.6405,133
32.6776,131
32.7148,141
32.7519,111
32.7891,116
32.8262,113
32.8634,128
32.9006,109
32.9377,117
32.9749,122
33.0120,131
33.0492,140
33.0863,127
33.1235,112
33.1606,120
33.1978,135
33.2349,135
33.2721,127
33.3092,111
33.3464,108
33.3835,137
33.4207,111
33.4578,118
33.4950,120
33.5321,115
33.5693,120
33.6064,142
33.6436,114
33.6807,116
33.7179,95
33.7550,116
33.7922,105
33.8293,120
33.8665,127
33.9036,110
33.9408,113
33.9779,112
34.0151,108
34.0522,121
34.0894,129
34.1265,123
34.1637,105
34.2008,110
34.2380,127
34.2751,131
34.3123,126
34.3494,118
34.3866,110
34.4238,127
34.4609,110
34.4981,113
34.5352,131
34.5724,112
34.6095,135
34.6467,131
34.6838,133
34.7210,158
34.7581,163
34.7953,138
34.8324,159
34.8696,140
34.9067,157
34.9439,126
34.9810,118
35.0182,111
35.0553,122
35.0925,111
35.1296,121
35.1668,92
35.2039,123
35.2411,80
35.2782,96
35.3154,91
35.3525,104
35.3897,100
35.4268,103
35.4640,100
35.5011,110
35.5383,103
35.5754,104
35.6126,107
35.6497,107
35.6869,98
35.7240,94
35.7612,118
35.7983,98
35.8355,99
35.8726,97
35.9098,91
35.9469,104
35.9841,108
36.0213,108
36.0584,108
36.0956,108
36.1327,86
36.1699,104
36.2070,98
36.2442,91
36.2813,114
36.3185,92
36.3556,94
36.3928,89
36.4299,100
36.4671,92
36.5042,86
36.5414,80
36.5785,92
36.6157,105
36.6528,92
36.6900,99
36.7271,85
36.7643,102
36.8014,98
36.8386,102
36.8757,84
36.9129,110
36.9500,92
36.9872,91
37.0243,94
37.0615,90
37.0986,85
37.1358,102
37.1729,86
37.2101,101
37.2472,92
37.2844,92
37.3215,78
37.3587,86
37.3958,116
37.4330,155
37.4701,141
37.5073,107
37.5445,120
37.5816,100
37.6188,102
37.6559,100
37.6931,94
37.7302,86
37.7674,89
37.8045,85
37.8417,106
37.8788,85
37.9160,78
37.9531,94
37.9903,89
38.0274,99
38.0646,84
38.1017,84
38.1389,85
38.1760,93
38.2132,87
38.2503,75
38.2875,95
38.3246,85
38.3618,74
38.3989,93
38.4361,90
38.4732,100
38.5104,91
38.5475,91
38.5847,73
38.6218,83
38.6590,85
38.6961,99
38.7333,120
38.7704,71
38.8076,94
38.8447,83
38.8819,77
38.9190,94
38.9562,88
38.9933,93
39.0305,85
39.0677,79
39.1048,72
39.1420,89
39.1791,81
39.2163,73
39.2534,71
39.2906,75
39.3277,76
39.3649,64
39.4020,64
39.4392,89
39.4763,78
39.5135,76
39.5506,80
39.5878,71
39.6249,95
39.6621,68
39.6992,107
39.7364,84
39.7735,65
39.8107,78
39.8478,64
39.8850,71
39.9221,76
39.9593,59
39.9964,77
40.0336,75
40.0707,91
40.1079,75
40.1450,62
40.1822,74
40.2193,76
40.2565,71
40.2936,80
40.3308,91
40.3679,78
40.4051,79
40.4422,83
40.4794,78
40.5165,80
40.5537,89
40.5908,84
40.6280,69
40.6652,71
40.7023,77
40.7395,93
40.7766,78
40.8138,85
40.8509,83
40.8881,87
40.9252,76
40.9624,92
40.9995,87
41.0367,74
41.0738,71
41.1110,68
41.1481,63
41.1853,79
41.2224,65
41.2596,72
41.2967,69
41.3339,75
41.3710,80
41.4082,93
41.4453,82
41.4825,77
41.5196,77
41.5568,78
41.5939,65
41.6311,76
41.6682,81
41.7054,75
41.7425,79
41.7797,82
41.8168,77
41.8540,70
41.8911,74
41.9283,74
41.9654,71
42.0026,76
42.0397,70
42.0769,71
42.1140,62
42.1512,89
42.1884,67
42.2255,63
42.2627,72
42.2998,73
42.3370,86
42.3741,75
42.4113,78
42.4484,69
42.4856,73
42.5227,81
42.5599,74
42.5970,67
42.6342,81
42.6713,67
42.7085,73
42.7456,83
42.7828,71
42.8199,72
42.8571,84
42.8942,82
42.9314,72
42.9685,50
43.0057,75
43.0428,77
43.0800,74
43.1171,81
43.1543,66
43.1914,83
43.2286,90
43.2657,105
43.3029,100
43.3400,91
43.3772,62
43.4143,95
43.4515,85
43.4886,120
43.5258,119
43.5629,90
43.6001,98
43.6372,100
43.6744,97
43.7116,80
43.7487,62
43.7859,76
43.8230,68
43.8602,79
43.8973,88
43.9345,78
43.9716,79
44.0088,79
44.0459,94
44.0831,72
44.1202,72
44.1574,79
44.1945,74
44.2317,63
44.2688,75
44.3060,65
44.3431,69
44.3803,94
44.4174,74
44.4546,86
44.4917,78
44.5289,88
44.5660,78
44.6032,89
44.6403,74
44.6775,82
44.7146,79
44.7518,74
44.7889,83
44.8261,85
44.8632,107
44.9004,79
44.9375,71
44.9747,66
45.0118,56
45.0490,63
45.0861,73
45.1233,75
45.1604,75
45.1976,62
45.2347,82
45.2719,80
45.3091,67
45.3462,69
45.3834,73
45.4205,65
45.4577,72
45.4948,70
45.5320,66
45.5691,58
45.6063,77
45.6434,74
45.6806,71
45.7177,63
45.7549,62
45.7920,74
45.8292,69
45.8663,54
45.9035,75
45.9406,61
45.9778,73
46.0149,69
46.0521,77
46.0892,63
46.1264,68
46.1635,67
46.2007,67
46.2378,68
46.2750,68
46.3121,74
46.3493,71
46.3864,55
46.4236,81
46.4607,64
46.4979,67
46.5350,84
46.5722,60
46.6093,57
46.6465,73
46.6836,60
46.7208,62
46.7579,64
46.7951,75
46.8323,73
46.8694,62
46.9066,72
46.9437,61
46.9809,81
47.0180,68
47.0552,67
47.0923,64
47.1295,68
47.1666,54
47.2038,68
47.2409,78
47.2781,71
47.3152,88
47.3524,57
47.3895,67
47.4267,59
47.4638,62
47.5010,62
47.5381,71
47.5753,63
47.6124,69
47.6496,60
47.6867,63
47.7239,66
47.7610,75
47.7982,54
47.8353,79
47.8725,80
47.9096,70
47.9468,55
47.9839,79
48.0211,60
48.0582,63
48.0954,72
48.1325,61
48.1697,60
48.2068,50
48.2440,58
48.2811,70
48.3183,62
48.3555,62
48.3926,62
48.4298,76
48.4669,71
48.5041,63
48.5412,49
48.5784,52
48.6155,66
48.6527,62
48.6898,87
48.7270,71
48.7641,51
48.8013,66
48.8384,65
48.8756,70
48.9127,90
48.9499,129
48.9870,95
49.0242,72
49.0613,89
49.0985,101
49.1356,76
49.1728,71
49.2099,74
49.2471,52
49.2842,82
49.3214,58
49.3585,74
49.3957,69
49.4328,56
49.4700,78
49.5071,77
49.5443,63
49.5814,66
49.6186,70
49.6557,65
49.6929,51
49.7300,55
49.7672,69
49.8043,62
49.8415,46
49.8786,69
49.9158,64
49.9530,46
49.9901,56
50.0273,59
50.0644,64
50.1016,52
50.1387,72
50.1759,60
50.2130,63
50.2502,73
50.2873,59
50.3245,59
50.3616,66
50.3988,57
50.4359,81
50.4731,79
50.5102,71
50.5474,52
50.5845,60
50.6217,60
50.6588,53
50.6960,66
50.7331,70
50.7703,54
50.8074,73
50.8446,59
50.8817,52
50.9189,53
50.9560,67
50.9932,57
51.0303,70
51.0675,63
51.1046,52
51.1418,62
51.1789,67
51.2161,56
51.2532,42
51.2904,65
51.3275,50
51.3647,73
51.4018,62
51.4390,79
51.4762,59
51.5133,74
51.5505,63
51.5876,52
51.6248,68
51.6619,59
51.6991,80
51.7362,67
51.7734,66
51.8105,65
51.8477,67
51.8848,76
51.9220,69
51.9591,78
51.9963,70
52.0334,49
52.0706,67
52.1077,68
52.1449,53
52.1820,61
52.2192,61
52.2563,65
52.2935,73
52.3306,63
52.3678,49
52.4049,62
52.4421,71
52.4792,57
52.5164,54
52.5535,54
52.5907,57
52.6278,63
52.6650,62
52.7021,62
52.7393,53
52.7764,61
52.8136,49
52.8507,65
52.8879,57
52.9250,61
52.9622,59
52.9994,64
53.0365,50
53.0737,68
53.1108,56
53.1480,86
53.1851,46
53.2223,66
53.2594,57
53.2966,51
53.3337,68
53.3709,60
53.4080,61
53.4452,69
53.4823,53
53.5195,54
53.5566,43
53.5938,70
53.6309,62
53.6681,56
53.7052,57
53.7424,63
53.7795,54
53.8167,66
53.8538,67
53.8910,61
53.9281,71
53.9653,88
54.0024,99
54.0396,81
54.0767,79
54.1139,98
54.1510,63
54.1882,60
54.2253,61
54.2625,66
54.2996,47
54.3368,66
54.3739,62
54.4111,45
54.4482,61
54.4854,57
54.5225,54
54.5597,62
54.5969,62
54.6340,48
54.6712,57
54.7083,54
54.7455,59
54.7826,40
54.8198,54
54.8569,57
54.8941,42
54.9312,58
54.9684,60
55.0055,50
55.0427,67
55.0798,62
55.1170,54
55.1541,59
55.1913,35
55.2284,53
55.2656,63
55.3027,56
55.3399,58
55.3770,54
55.4142,49
55.4513,56
55.4885,52
55.5256,61
55.5628,54
55.5999,64
55.6371,61
55.6742,48
55.7114,63
55.7485,60
55.7857,43
55.8228,61
55.8600,63
55.8971,57
55.9343,51
55.9714,59
56.0086,69
56.0457,69
56.0829,51
56.1201,57
56.1572,54
56.1944,61
56.2315,63
56.2687,68
56.3058,62
56.3430,57
56.3801,46
56.4173,51
56.4544,54
56.4916,52
56.5287,52
56.5659,64
56.6030,53
56.6402,58
56.6773,60
56.7145,79
56.7516,46
56.7888,54
56.8259,69
56.8631,46
56.9002,66
56.9374,39
56.9745,42
57.0117,63
57.0488,61
57.0860,66
57.1231,45
57.1603,48
57.1974,57
57.2346,54
57.2717,60
57.3089,50
57.3460,61
57.3832,67
57.4203,57
57.4575,46
57.4946,56
57.5318,58
57.5689,52
57.6061,55
57.6433,58
57.6804,50
57.7176,53
57.7547,66
57.7919,49
57.8290,50
57.8662,53
57.9033,62
57.9405,42
57.9776,61
58.0148,53
58.0519,61
58.0891,61
58.1262,66
58.1634,61
58.2005,57
58.2377,41
58.2748,59
58.3120,51
58.3491,54
58.3863,47
58.4234,65
58.4606,32
58.4977,58
58.5349,55
58.5720,60
58.6092,52
58.6463,59
58.6835,63
58.7206,52
58.7578,55
58.7949,51
58.8321,50
58.8692,59
58.9064,59
58.9435,57
58.9807,49
59.0178,65
59.0550,60
59.0921,31
59.1293,58
59.1664,48
59.2036,48
59.2408,54
59.2779,52
59.3151,61
59.3522,58
59.3894,59
59.4265,51
59.4637,52
59.5008,68
59.5380,65
59.5751,51
59.6123,38
59.6494,66
59.6866,59
59.7237,59
59.7609,57
59.7980,63
59.8352,50
59.8723,60
59.9095,45
59.9466,55
59.9838,48
60.0024,50