File: notebooks/data/xrd_data/ML_20220721_35_SJD_4_LaB6-4min.csv
;,2THETA,
5.0000,273
5.0372,260
5.0743,265
5.1115,263
5.1486,278
5.1858,254
5.2229,294
5.2601,285
5.2972,244
5.3344,238
5.3715,247
5.4087,250
5.4458,236
5.4830,217
5.5201,220
5.5573,204
5.5944,233
5.6316,205
5.6687,231
5.7059,193
5.7430,194
5.7802,228
5.8173,198
5.8545,215
5.8916,203
5.9288,193
5.9659,193
6.0031,211
6.0402,208
6.0774,197
6.1145,152
6.1517,195
6.1888,181
6.2260,203
6.2631,175
6.3003,180
6.3374,205
6.3746,172
6.4117,170
6.4489,167
6.4860,164
6.5232,163
6.5604,157
6.5975,156
6.6347,168
6.6718,164
6.7090,151
6.7461,185
6.7833,161
6.8204,171
6.8576,178
6.8947,168
6.9319,166
6.9690,163
7.0062,167
7.0433,170
7.0805,143
7.1176,183
7.1548,145
7.1919,174
7.2291,167
7.2662,185
7.3034,170
7.3405,170
7.3777,138
7.4148,169
7.4520,167
7.4891,147
7.5263,142
7.5634,148
7.6006,152
7.6377,176
7.6749,168
7.7120,172
7.7492,173
7.7863,178
7.8235,200
7.8606,193
7.8978,179
7.9349,194
7.9721,202
8.0092,193
8.0464,177
8.0835,176
8.1207,180
8.1579,218
8.1950,198
8.2322,173
8.2693,183
8.3065,178
8.3436,179
8.3808,209
8.4179,165
8.4551,203
8.4922,197
8.5294,192
8.5665,204
8.6037,230
8.6408,187
8.6780,189
8.7151,183
8.7523,222
8.7894,205
8.8266,206
8.8637,219
8.9009,215
8.9380,198
8.9752,244
9.0123,236
9.0495,199
9.0866,240
9.1238,238
9.1609,241
9.1981,239
9.2352,189
9.2724,238
9.3095,227
9.3467,210
9.3838,216
9.4210,215
9.4581,204
9.4953,216
9.5324,224
9.5696,228
9.6067,191
9.6439,206
9.6811,222
9.7182,224
9.7554,216
9.7925,267
9.8297,269
9.8668,238
9.9040,242
9.9411,246
9.9783,251
10.0154,219
10.0526,241
10.0897,223
10.1269,251
10.1640,243
10.2012,243
10.2383,222
10.2755,264
10.3126,281
10.3498,233
10.3869,253
10.4241,208
10.4612,268
10.4984,230
10.5355,255
10.5727,239
10.6098,238
10.6470,228
10.6841,244
10.7213,244
10.7584,239
10.7956,250
10.8327,212
10.8699,262
10.9070,242
10.9442,233
10.9813,232
11.0185,255
11.0556,237
11.0928,214
11.1299,202
11.1671,260
11.2043,215
11.2414,241
11.2786,220
11.3157,259
11.3529,212
11.3900,238
11.4272,250
11.4643,245
11.5015,268
11.5386,242
11.5758,219
11.6129,249
11.6501,230
11.6872,238
11.7244,234
11.7615,256
11.7987,223
11.8358,226
11.8730,265
11.9101,211
11.9473,249
11.9844,227
12.0216,238
12.0587,232
12.0959,233
12.1330,217
12.1702,248
12.2073,223
12.2445,224
12.2816,226
12.3188,250
12.3559,227
12.3931,233
12.4302,230
12.4674,254
12.5045,223
12.5417,217
12.5788,207
12.6160,209
12.6531,219
12.6903,204
12.7274,210
12.7646,194
12.8018,210
12.8389,210
12.8761,208
12.9132,214
12.9504,204
12.9875,205
13.0247,193
13.0618,228
13.0990,210
13.1361,223
13.1733,218
13.2104,198
13.2476,207
13.2847,192
13.3219,228
13.3590,212
13.3962,162
13.4333,194
13.4705,199
13.5076,220
13.5448,191
13.5819,218
13.6191,182
13.6562,210
13.6934,200
13.7305,185
13.7677,159
13.8048,187
13.8420,188
13.8791,178
13.9163,184
13.9534,204
13.9906,183
14.0277,137
14.0649,176
14.1020,161
14.1392,179
14.1763,195
14.2135,189
14.2506,185
14.2878,191
14.3250,150
14.3621,177
14.3993,193
14.4364,186
14.4736,186
14.5107,192
14.5479,150
14.5850,174
14.6222,156
14.6593,176
14.6965,174
14.7336,162
14.7708,143
14.8079,166
14.8451,182
14.8822,169
14.9194,150
14.9565,180
14.9937,165
15.0308,141
15.0680,150
15.1051,173
15.1423,165
15.1794,169
15.2166,158
15.2537,170
15.2909,164
15.3280,182
15.3652,165
15.4023,188
15.4395,173
15.4766,172
15.5138,181
15.5509,155
15.5881,175
15.6252,189
15.6624,164
15.6995,178
15.7367,138
15.7738,162
15.8110,165
15.8482,171
15.8853,164
15.9225,158
15.9596,187
15.9968,163
16.0339,153
16.0711,166
16.1082,177
16.1454,150
16.1825,180
16.2197,159
16.2568,177
16.2940,144
16.3311,151
16.3683,163
16.4054,167
16.4426,162
16.4797,166
16.5169,171
16.5540,159
16.5912,188
16.6283,151
16.6655,165
16.7026,174
16.7398,147
16.7769,148
16.8141,161
16.8512,171
16.8884,149
16.9255,157
16.9627,158
16.9998,158
17.0370,144
17.0741,168
17.1113,150
17.1484,146
17.1856,193
17.2227,159
17.2599,179
17.2970,162
17.3342,151
17.3713,164
17.4085,176
17.4457,155
17.4828,167
17.5200,182
17.5571,150
17.5943,191
17.6314,164
17.6686,154
17.7057,180
17.7429,162
17.7800,165
17.8172,176
17.8543,166
17.8915,173
17.9286,201
17.9658,168
18.0029,158
18.0401,142
18.0772,151
18.1144,163
18.1515,170
18.1887,172
18.2258,147
18.2630,159
18.3001,169
18.3373,156
18.3744,174
18.4116,168
18.4487,159
18.4859,162
18.5230,157
18.5602,172
18.5973,163
18.6345,154
18.6716,177
18.7088,162
18.7459,171
18.7831,160
18.8202,169
18.8574,161
18.8945,175
18.9317,161
18.9689,188
19.0060,168
19.0432,160
19.0803,182
19.1175,184
19.1546,189
19.1918,172
19.2289,169
19.2661,197
19.3032,189
19.3404,174
19.3775,189
19.4147,171
19.4518,184
19.4890,182
19.5261,157
19.5633,163
19.6004,194
19.6376,183
19.6747,179
19.7119,148
19.7490,167
19.7862,195
19.8233,178
19.8605,216
19.8976,163
19.9348,160
19.9719,171
20.0091,170
20.0462,166
20.0834,179
20.1205,157
20.1577,173
20.1948,181
20.2320,203
20.2691,176
20.3063,171
20.3434,170
20.3806,210
20.4177,184
20.4549,182
20.4921,187
20.5292,205
20.5664,208
20.6035,197
20.6407,193
20.6778,204
20.7150,218
20.7521,193
20.7893,170
20.8264,211
20.8636,190
20.9007,177
20.9379,186
20.9750,189
21.0122,201
21.0493,199
21.0865,191
21.1236,220
21.1608,246
21.1979,284
21.2351,345
21.2722,294
21.3094,350
21.3465,518
21.3837,419
21.4208,350
21.4580,229
21.4951,208
21.5323,185
21.5694,192
21.6066,199
21.6437,204
21.6809,178
21.7180,193
21.7552,205
21.7923,207
21.8295,196
21.8666,194
21.9038,190
21.9409,177
21.9781,197
22.0152,179
22.0524,190
22.0896,164
22.1267,201
22.1639,202
22.2010,204
22.2382,205
22.2753,204
22.3125,163
22.3496,201
22.3868,198
22.4239,203
22.4611,191
22.4982,173
22.5354,190
22.5725,205
22.6097,200
22.6468,191
22.6840,209
22.7211,252
22.7583,219
22.7954,207
22.8326,205
22.8697,203
22.9069,182
22.9440,191
22.9812,199
23.0183,199
23.0555,199
23.0926,193
23.1298,216
23.1669,214
23.2041,194
23.2412,210
23.2784,203
23.3155,194
23.3527,188
23.3898,203
23.4270,211
23.4641,185
23.5013,197
23.5384,214
23.5756,192
23.6128,178
23.6499,182
23.6871,204
23.7242,211
23.7614,210
23.7985,222
23.8357,196
23.8728,193
23.9100,210
23.9471,213
23.9843,234
24.0214,208
24.0586,188
24.0957,211
24.1329,225
24.1700,226
24.2072,222
24.2443,210
24.2815,234
24.3186,247
24.3558,235
24.3929,198
24.4301,195
24.4672,176
24.5044,197
24.5415,218
24.5787,201
24.6158,241
24.6530,200
24.6901,186
24.7273,187
24.7644,204
24.8016,195
24.8387,186
24.8759,227
24.9130,195
24.9502,213
24.9873,199
25.0245,202
25.0616,203
25.0988,192
25.1360,219
25.1731,171
25.2103,219
25.2474,214
25.2846,209
25.3217,206
25.3589,187
25.3960,198
25.4332,190
25.4703,208
25.5075,188
25.5446,197
25.5818,190
25.6189,192
25.6561,194
25.6932,169
25.7304,191
25.7675,208
25.8047,197
25.8418,210
25.8790,191
25.9161,209
25.9533,199
25.9904,193
26.0276,184
26.0647,196
26.1019,219
26.1390,184
26.1762,198
26.2133,189
26.2505,216
26.2876,201
26.3248,184
26.3619,191
26.3991,173
26.4362,201
26.4734,181
26.5105,190
26.5477,189
26.5848,205
26.6220,187
26.6591,201
26.6963,170
26.7335,188
26.7706,168
26.8078,163
26.8449,190
26.8821,169
26.9192,213
26.9564,171
26.9935,172
27.0307,186
27.0678,191
27.1050,182
27.1421,204
27.1793,225
27.2164,253
27.2536,227
27.2907,220
27.3279,183
27.3650,199
27.4022,190
27.4393,183
27.4765,199
27.5136,170
27.5508,180
27.5879,193
27.6251,173
27.6622,179
27.6994,178
27.7365,176
27.7737,164
27.8108,169
27.8480,167
27.8851,190
27.9223,185
27.9594,164
27.9966,176
28.0337,174
28.0709,177
28.1080,180
28.1452,162
28.1823,176
28.2195,168
28.2567,179
28.2938,166
28.3310,167
28.3681,177
28.4053,183
28.4424,170
28.4796,179
28.5167,183
28.5539,155
28.5910,186
28.6282,184
28.6653,170
28.7025,186
28.7396,153
28.7768,161
28.8139,188
28.8511,167
28.8882,183
28.9254,154
28.9625,176
28.9997,167
29.0368,161
29.0740,173
29.1111,177
29.1483,168
29.1854,178
29.2226,158
29.2597,163
29.2969,179
29.3340,172
29.3712,147
29.4083,141
29.4455,155
29.4826,177
29.5198,170
29.5569,180
29.5941,150
29.6312,149
29.6684,182
29.7055,165
29.7427,139
29.7799,157
29.8170,138
29.8542,149
29.8913,138
29.9285,155
29.9656,155
30.0028,163
30.0399,176
30.0771,158
30.1142,161
30.1514,149
30.1885,163
30.2257,185
30.2628,183
30.3000,199
30.3371,193
30.3743,322
30.4114,279
30.4486,232
30.4857,208
30.5229,181
30.5600,155
30.5972,161
30.6343,156
30.6715,161
30.7086,153
30.7458,135
30.7829,150
30.8201,157
30.8572,137
30.8944,137
30.9315,160
30.9687,136
31.0058,143
31.0430,162
31.0801,132
31.1173,141
31.1544,160
31.1916,139
31.2287,143
31.2659,148
31.3030,143
31.3402,148
31.3774,140
31.4145,163
31.4517,147
31.4888,126
31.5260,136
31.5631,143
31.6003,134
31.6374,137
31.6746,126
31.7117,141
31.7489,116
31.7860,127
31.8232,116
31.8603,150
31.8975,134
31.9346,146
31.9718,116
32.0089,130
32.0461,129
32.0832,110
32.1204,124
32.1575,122
32.1947,127
32.2318,146
32.2690,132
32.3061,123
32.3433,129
32.3804,163
32.4176,158
32.4547,143
32.4919,151
32.5290,135
32.5662,144
32.6033,121
32.6405,151
32.6776,117
32.7148,156
32.7519,136
32.7891,143
32.8262,140
32.8634,123
32.9006,135
32.9377,132
32.9749,113
33.0120,129
33.0492,126
33.0863,125
33.1235,109
33.1606,121
33.1978,112
33.2349,125
33.2721,117
33.3092,146
33.3464,120
33.3835,118
33.4207,90
33.4578,110
33.4950,119
33.5321,119
33.5693,129
33.6064,126
33.6436,134
33.6807,130
33.7179,120
33.7550,118
33.7922,137
33.8293,123
33.8665,98
33.9036,133
33.9408,99
33.9779,126
34.0151,113
34.0522,96
34.0894,110
34.1265,102
34.1637,111
34.2008,112
34.2380,114
34.2751,114
34.3123,122
34.3494,124
34.3866,113
34.4238,115
34.4609,127
34.4981,111
34.5352,121
34.5724,122
34.6095,112
34.6467,116
34.6838,152
34.7210,133
34.7581,155
34.7953,160
34.8324,125
34.8696,125
34.9067,128
34.9439,135
34.9810,110
35.0182,95
35.0553,121
35.0925,123
35.1296,108
35.1668,98
35.2039,107
35.2411,101
35.2782,100
35.3154,104
35.3525,118
35.3897,117
35.4268,98
35.4640,101
35.5011,99
35.5383,96
35.5754,88
35.6126,87
35.6497,82
35.6869,102
35.7240,108
35.7612,109
35.7983,106
35.8355,81
35.8726,94
35.9098,98
35.9469,90
35.9841,105
36.0213,107
36.0584,104
36.0956,95
36.1327,84
36.1699,97
36.2070,103
36.2442,82
36.2813,123
36.3185,102
36.3556,106
36.3928,79
36.4299,114
36.4671,98
36.5042,96
36.5414,111
36.5785,88
36.6157,80
36.6528,87
36.6900,114
36.7271,96
36.7643,94
36.8014,92
36.8386,99
36.8757,88
36.9129,91
36.9500,100
36.9872,91
37.0243,95
37.0615,88
37.0986,97
37.1358,86
37.1729,87
37.2101,89
37.2472,91
37.2844,94
37.3215,89
37.3587,98
37.3958,105
37.4330,143
37.4701,129
37.5073,119
37.5445,132
37.5816,103
37.6188,74
37.6559,80
37.6931,77
37.7302,83
37.7674,95
37.8045,100
37.8417,82
37.8788,87
37.9160,81
37.9531,90
37.9903,77
38.0274,106
38.0646,73
38.1017,75
38.1389,83
38.1760,77
38.2132,95
38.2503,75
38.2875,95
38.3246,83
38.3618,77
38.3989,65
38.4361,91
38.4732,87
38.5104,91
38.5475,92
38.5847,74
38.6218,76
38.6590,75
38.6961,91
38.7333,87
38.7704,79
38.8076,93
38.8447,85
38.8819,90
38.9190,72
38.9562,84
38.9933,88
39.0305,87
39.0677,92
39.1048,64
39.1420,84
39.1791,83
39.2163,67
39.2534,66
39.2906,74
39.3277,88
39.3649,85
39.4020,82
39.4392,75
39.4763,94
39.5135,82
39.5506,74
39.5878,58
39.6249,73
39.6621,82
39.6992,77
39.7364,87
39.7735,77
39.8107,106
39.8478,74
39.8850,77
39.9221,84
39.9593,86
39.9964,89
40.0336,83
40.0707,85
40.1079,78
40.1450,53
40.1822,76
40.2193,65
40.2565,98
40.2936,80
40.3308,72
40.3679,81
40.4051,84
40.4422,79
40.4794,88
40.5165,84
40.5537,79
40.5908,80
40.6280,74
40.6652,89
40.7023,81
40.7395,73
40.7766,91
40.8138,60
40.8509,84
40.8881,91
40.9252,88
40.9624,80
40.9995,81
41.0367,62
41.0738,81
41.1110,90
41.1481,63
41.1853,77
41.2224,94
41.2596,65
41.2967,77
41.3339,82
41.3710,89
41.4082,71
41.4453,70
41.4825,78
41.5196,92
41.5568,77
41.5939,73
41.6311,67
41.6682,76
41.7054,76
41.7425,82
41.7797,75
41.8168,69
41.8540,74
41.8911,94
41.9283,58
41.9654,67
42.0026,68
42.0397,77
42.0769,84
42.1140,71
42.1512,77
42.1884,64
42.2255,69
42.2627,69
42.2998,77
42.3370,75
42.3741,82
42.4113,77
42.4484,52
42.4856,82
42.5227,86
42.5599,86
42.5970,79
42.6342,77
42.6713,80
42.7085,75
42.7456,59
42.7828,80
42.8199,63
42.8571,76
42.8942,61
42.9314,69
42.9685,82
43.0057,86
43.0428,81
43.0800,84
43.1171,79
43.1543,93
43.1914,100
43.2286,106
43.2657,87
43.3029,69
43.3400,79
43.3772,92
43.4143,85
43.4515,80
43.4886,124
43.5258,120
43.5629,90
43.6001,86
43.6372,100
43.6744,81
43.7116,75
43.7487,79
43.7859,70
43.8230,69
43.8602,77
43.8973,69
43.9345,79
43.9716,75
44.0088,72
44.0459,65
44.0831,60
44.1202,79
44.1574,78
44.1945,68
44.2317,69
44.2688,73
44.3060,85
44.3431,71
44.3803,89
44.4174,94
44.4546,72
44.4917,75
44.5289,77
44.5660,73
44.6032,81
44.6403,77
44.6775,94
44.7146,88
44.7518,76
44.7889,69
44.8261,81
44.8632,82
44.9004,85
44.9375,71
44.9747,65
45.0118,78
45.0490,90
45.0861,65
45.1233,60
45.1604,77
45.1976,63
45.2347,65
45.2719,75
45.3091,70
45.3462,78
45.3834,63
45.4205,58
45.4577,71
45.4948,72
45.5320,58
45.5691,62
45.6063,70
45.6434,66
45.6806,66
45.7177,66
45.7549,78
45.7920,88
45.8292,71
45.8663,70
45.9035,67
45.9406,67
45.9778,70
46.0149,69
46.0521,54
46.0892,53
46.1264,69
46.1635,59
46.2007,59
46.2378,87
46.2750,61
46.3121,57
46.3493,77
46.3864,68
46.4236,67
46.4607,65
46.4979,70
46.5350,64
46.5722,85
46.6093,72
46.6465,66
46.6836,95
46.7208,63
46.7579,71
46.7951,60
46.8323,67
46.8694,80
46.9066,72
46.9437,78
46.9809,61
47.0180,68
47.0552,57
47.0923,75
47.1295,65
47.1666,49
47.2038,51
47.2409,70
47.2781,65
47.3152,64
47.3524,72
47.3895,66
47.4267,67
47.4638,68
47.5010,69
47.5381,77
47.5753,64
47.6124,65
47.6496,80
47.6867,69
47.7239,57
47.7610,62
47.7982,69
47.8353,63
47.8725,55
47.9096,66
47.9468,66
47.9839,65
48.0211,63
48.0582,77
48.0954,67
48.1325,64
48.1697,74
48.2068,66
48.2440,70
48.2811,71
48.3183,68
48.3555,71
48.3926,61
48.4298,71
48.4669,75
48.5041,66
48.5412,59
48.5784,63
48.6155,54
48.6527,54
48.6898,62
48.7270,64
48.7641,68
48.8013,71
48.8384,70
48.8756,66
48.9127,74
48.9499,126
48.9870,107
49.0242,90
49.0613,86
49.0985,92
49.1356,79
49.1728,79
49.2099,61
49.2471,56
49.2842,48
49.3214,66
49.3585,66
49.3957,64
49.4328,70
49.4700,63
49.5071,64
49.5443,89
49.5814,63
49.6186,62
49.6557,58
49.6929,76
49.7300,47
49.7672,57
49.8043,59
49.8415,60
49.8786,62
49.9158,72
49.9530,67
49.9901,62
50.0273,61
50.0644,61
50.1016,59
50.1387,67
50.1759,63
50.2130,62
50.2502,60
50.2873,71
50.3245,57
50.3616,59
50.3988,70
50.4359,55
50.4731,64
50.5102,64
50.5474,76
50.5845,56
50.6217,63
50.6588,52
50.6960,68
50.7331,64
50.7703,65
50.8074,49
50.8446,62
50.8817,53
50.9189,53
50.9560,65
50.9932,66
51.0303,57
51.0675,41
51.1046,48
51.1418,66
51.1789,55
51.2161,57
51.2532,68
51.2904,62
51.3275,63
51.3647,75
51.4018,80
51.4390,71
51.4762,48
51.5133,81
51.5505,56
51.5876,64
51.6248,52
51.6619,52
51.6991,68
51.7362,68
51.7734,82
51.8105,66
51.8477,64
51.8848,60
51.9220,59
51.9591,73
51.9963,67
52.0334,73
52.0706,68
52.1077,57
52.1449,50
52.1820,69
52.2192,67
52.2563,54
52.2935,57
52.3306,58
52.3678,54
52.4049,41
52.4421,49
52.4792,63
52.5164,62
52.5535,52
52.5907,55
52.6278,51
52.6650,60
52.7021,53
52.7393,64
52.7764,56
52.8136,47
52.8507,74
52.8879,57
52.9250,54
52.9622,59
52.9994,68
53.0365,65
53.0737,69
53.1108,66
53.1480,59
53.1851,57
53.2223,69
53.2594,61
53.2966,48
53.3337,51
53.3709,62
53.4080,73
53.4452,58
53.4823,45
53.5195,51
53.5566,57
53.5938,42
53.6309,60
53.6681,48
53.7052,52
53.7424,48
53.7795,58
53.8167,61
53.8538,66
53.8910,59
53.9281,53
53.9653,81
54.0024,84
54.0396,68
54.0767,70
54.1139,73
54.1510,74
54.1882,53
54.2253,52
54.2625,64
54.2996,57
54.3368,61
54.3739,59
54.4111,53
54.4482,62
54.4854,64
54.5225,68
54.5597,57
54.5969,64
54.6340,57
54.6712,63
54.7083,63
54.7455,43
54.7826,54
54.8198,52
54.8569,52
54.8941,50
54.9312,56
54.9684,54
55.0055,67
55.0427,52
55.0798,45
55.1170,64
55.1541,59
55.1913,55
55.2284,62
55.2656,44
55.3027,59
55.3399,56
55.3770,58
55.4142,57
55.4513,53
55.4885,54
55.5256,52
55.5628,67
55.5999,60
55.6371,56
55.6742,63
55.7114,54
55.7485,59
55.7857,71
55.8228,51
55.8600,47
55.8971,50
55.9343,58
55.9714,64
56.0086,53
56.0457,59
56.0829,74
56.1201,58
56.1572,67
56.1944,72
56.2315,73
56.2687,57
56.3058,61
56.3430,56
56.3801,65
56.4173,62
56.4544,65
56.4916,47
56.5287,67
56.5659,49
56.6030,48
56.6402,60
56.6773,64
56.7145,52
56.7516,52
56.7888,46
56.8259,54
56.8631,52
56.9002,57
56.9374,57
56.9745,70
57.0117,57
57.0488,48
57.0860,55
57.1231,55
57.1603,64
57.1974,56
57.2346,64
57.2717,49
57.3089,53
57.3460,47
57.3832,61
57.4203,52
57.4575,50
57.4946,54
57.5318,44
57.5689,60
57.6061,67
57.6433,53
57.6804,40
57.7176,58
57.7547,54
57.7919,58
57.8290,55
57.8662,55
57.9033,56
57.9405,48
57.9776,47
58.0148,43
58.0519,75
58.0891,59
58.1262,57
58.1634,64
58.2005,47
58.2377,56
58.2748,54
58.3120,66
58.3491,59
58.3863,55
58.4234,62
58.4606,50
58.4977,47
58.5349,54
58.5720,49
58.6092,58
58.6463,53
58.6835,59
58.7206,63
58.7578,53
58.7949,56
58.8321,50
58.8692,57
58.9064,47
58.9435,41
58.9807,49
59.0178,38
59.0550,55
59.0921,50
59.1293,55
59.1664,67
59.2036,58
59.2408,57
59.2779,51
59.3151,57
59.3522,39
59.3894,57
59.4265,63
59.4637,46
59.5008,56
59.5380,49
59.5751,53
59.6123,60
59.6494,51
59.6866,56
59.7237,46
59.7609,53
59.7980,53
59.8352,48
59.8723,63
59.9095,50
59.9466,54
59.9838,55
60.0024,52