File: notebooks/data/xrd_data/ML_20220718_50_SJD_4_LaB6-4min.uxd
; (content of file Y:\Sam\Apurva-07-20-2022\puck4\ML_20220718_50_SJD_4_LaB6-4min.raw)
_FILEVERSION = 3
_SAMPLE = ML_20220718_50_SJD_4_LaB6-4min
_+SAMPLE =
_SITE = USA
_USER = Administrator
_GONIOMETER_CODE = 20
; Goniometer : D8 theta/2theta, stage : Unknown
_ATTACHMENTS_CODE = 0
_GONIOMETER_RADIUS = 200.5
_FIXED_DIVSLIT = 0.6
_FIXED_SAMPLESLIT = 0
_SOLLER_SLITS = 2
_FIXED_DETSLIT = 9.55
_MONOCHROMATOR = 0
; Incident beam monochromator : None
_SOLLER_SLITS_2 = N
_THIN_FILM = N
_BETA_FILTER = Y
_FIXED_ANTISLIT = 5.89
_ANALYZER_CODE = 0
; Received beam analyzer : None
_DATEMEASURED = "26-Jul-2022 14:00:47"
_WL_UNIT = A
_WL1 = 1.5406
_WL2 = 1.54439
_WL3 = 1.39222
_WLRATIO = 0.5
_ANODE = Cu
_V4_INF_CREATOR = XRDWizard
_V4_INF_CREATOR_VERSION = V2.9.0.22
_V4_INF_WIZARD_VERSION = V2.9.0.22
_V4_INF_WIZARD_ADDINS = V2.9.0.22
_V4_INF_WIZARD_DOCTYPE = XRD
_V4_INF_OSUSER = McQueenLab
_V4_INF_USER = Administrator
_V4_INF_SITE = USA
_V4_INF_SAMPLEID = ML_20220718_50_SJD_4_LaB6-4min

; Data for range 1
_DRIVE = COUPLED
_STEPTIME = 11.28
_STEPSIZE = 0.0185756
_STEPMODE = C
_START = 5
_THETA = 2.5
_2THETA = 5
_KHI = 0
_PHI = 0
_X = 0
_Y = 0
_Z = 0
_DETECTOR = 5
; Detector type : Unknown
_DETECTORSLIT = unkn
_AUX1 = 0
_AUX2 = 0
_AUX3 = 0
_TIMESTARTED = 15
_TEMP_RATE = -1
_TEMP_DELAY = -1
_KV = 40
_MA = 40
_RANGE_WL = 1.5406
_3DPLANE = 0
_V4_ADDITIONALDETECTOR = 257
_V4_PSD2THETA = 3.3663
_V4_PSDCHANNEL1 = 0
_V4_PSDAPERTURE = 12.68
_V4_PSDTYPE = 5
_V4_PSDFIXED = 0
_V4_COUNTERS_MASK = 4096
_V4_DRIVES_MASK = 0
_V4_ENCODERS_MASK = 0
_2THETACOUNTS = 1
; 2THETA  PSD
   5.0000        248
   5.0372        294
   5.0743        253
   5.1115        250
   5.1486        230
   5.1858        226
   5.2229        222
   5.2601        258
   5.2972        226
   5.3344        241
   5.3715        236
   5.4087        217
   5.4458        222
   5.4830        214
   5.5201        224
   5.5573        210
   5.5944        221
   5.6316        205
   5.6687        218
   5.7059        193
   5.7430        215
   5.7802        207
   5.8173        206
   5.8545        188
   5.8916        222
   5.9288        193
   5.9659        205
   6.0031        160
   6.0402        205
   6.0774        199
   6.1145        191
   6.1517        161
   6.1888        181
   6.2260        167
   6.2631        211
   6.3003        182
   6.3374        180
   6.3746        193
   6.4117        194
   6.4489        175
   6.4860        174
   6.5232        196
   6.5604        178
   6.5975        189
   6.6347        178
   6.6718        153
   6.7090        164
   6.7461        163
   6.7833        162
   6.8204        170
   6.8576        173
   6.8947        159
   6.9319        176
   6.9690        178
   7.0062        158
   7.0433        186
   7.0805        163
   7.1176        166
   7.1548        147
   7.1919        185
   7.2291        164
   7.2662        147
   7.3034        142
   7.3405        164
   7.3777        158
   7.4148        172
   7.4520        169
   7.4891        164
   7.5263        158
   7.5634        151
   7.6006        174
   7.6377        159
   7.6749        195
   7.7120        172
   7.7492        180
   7.7863        190
   7.8235        189
   7.8606        174
   7.8978        192
   7.9349        177
   7.9721        203
   8.0092        167
   8.0464        173
   8.0835        205
   8.1207        174
   8.1579        195
   8.1950        222
   8.2322        209
   8.2693        193
   8.3065        193
   8.3436        187
   8.3808        199
   8.4179        211
   8.4551        198
   8.4922        215
   8.5294        195
   8.5665        194
   8.6037        208
   8.6408        182
   8.6780        197
   8.7151        199
   8.7523        207
   8.7894        236
   8.8266        204
   8.8637        220
   8.9009        204
   8.9380        219
   8.9752        217
   9.0123        196
   9.0495        214
   9.0866        222
   9.1238        249
   9.1609        227
   9.1981        235
   9.2352        198
   9.2724        222
   9.3095        228
   9.3467        215
   9.3838        240
   9.4210        216
   9.4581        232
   9.4953        218
   9.5324        244
   9.5696        233
   9.6067        203
   9.6439        239
   9.6811        209
   9.7182        234
   9.7554        225
   9.7925        235
   9.8297        243
   9.8668        255
   9.9040        217
   9.9411        259
   9.9783        235
  10.0154        233
  10.0526        248
  10.0897        271
  10.1269        244
  10.1640        259
  10.2012        213
  10.2383        249
  10.2755        237
  10.3126        249
  10.3498        206
  10.3869        215
  10.4241        220
  10.4612        294
  10.4984        246
  10.5355        253
  10.5727        202
  10.6098        239
  10.6470        258
  10.6841        218
  10.7213        243
  10.7584        251
  10.7956        271
  10.8327        241
  10.8699        246
  10.9070        253
  10.9442        246
  10.9813        254
  11.0185        232
  11.0556        219
  11.0928        235
  11.1299        262
  11.1671        240
  11.2043        232
  11.2414        224
  11.2786        257
  11.3157        225
  11.3529        240
  11.3900        222
  11.4272        232
  11.4643        238
  11.5015        224
  11.5386        249
  11.5758        256
  11.6129        246
  11.6501        226
  11.6872        213
  11.7244        250
  11.7615        217
  11.7987        208
  11.8358        258
  11.8730        231
  11.9101        243
  11.9473        201
  11.9844        227
  12.0216        214
  12.0587        234
  12.0959        241
  12.1330        220
  12.1702        211
  12.2073        227
  12.2445        210
  12.2816        240
  12.3188        235
  12.3559        230
  12.3931        237
  12.4302        232
  12.4674        208
  12.5045        242
  12.5417        237
  12.5788        214
  12.6160        228
  12.6531        216
  12.6903        230
  12.7274        200
  12.7646        206
  12.8018        228
  12.8389        218
  12.8761        217
  12.9132        230
  12.9504        215
  12.9875        212
  13.0247        203
  13.0618        193
  13.0990        205
  13.1361        178
  13.1733        199
  13.2104        223
  13.2476        178
  13.2847        215
  13.3219        199
  13.3590        181
  13.3962        197
  13.4333        185
  13.4705        173
  13.5076        199
  13.5448        191
  13.5819        192
  13.6191        201
  13.6562        179
  13.6934        166
  13.7305        182
  13.7677        194
  13.8048        192
  13.8420        190
  13.8791        175
  13.9163        166
  13.9534        162
  13.9906        171
  14.0277        174
  14.0649        186
  14.1020        167
  14.1392        176
  14.1763        179
  14.2135        186
  14.2506        177
  14.2878        191
  14.3250        161
  14.3621        196
  14.3993        188
  14.4364        155
  14.4736        188
  14.5107        150
  14.5479        190
  14.5850        182
  14.6222        158
  14.6593        179
  14.6965        149
  14.7336        176
  14.7708        177
  14.8079        146
  14.8451        167
  14.8822        190
  14.9194        170
  14.9565        161
  14.9937        186
  15.0308        173
  15.0680        155
  15.1051        165
  15.1423        155
  15.1794        199
  15.2166        169
  15.2537        143
  15.2909        170
  15.3280        177
  15.3652        174
  15.4023        183
  15.4395        202
  15.4766        175
  15.5138        154
  15.5509        165
  15.5881        167
  15.6252        170
  15.6624        150
  15.6995        158
  15.7367        172
  15.7738        176
  15.8110        145
  15.8482        164
  15.8853        147
  15.9225        152
  15.9596        176
  15.9968        165
  16.0339        174
  16.0711        203
  16.1082        167
  16.1454        162
  16.1825        161
  16.2197        179
  16.2568        157
  16.2940        167
  16.3311        153
  16.3683        171
  16.4054        177
  16.4426        147
  16.4797        147
  16.5169        155
  16.5540        150
  16.5912        161
  16.6283        168
  16.6655        150
  16.7026        162
  16.7398        174
  16.7769        144
  16.8141        153
  16.8512        160
  16.8884        162
  16.9255        166
  16.9627        158
  16.9998        165
  17.0370        144
  17.0741        176
  17.1113        145
  17.1484        151
  17.1856        194
  17.2227        162
  17.2599        176
  17.2970        148
  17.3342        172
  17.3713        136
  17.4085        168
  17.4457        159
  17.4828        139
  17.5200        156
  17.5571        157
  17.5943        169
  17.6314        159
  17.6686        143
  17.7057        163
  17.7429        165
  17.7800        178
  17.8172        154
  17.8543        162
  17.8915        165
  17.9286        156
  17.9658        151
  18.0029        181
  18.0401        157
  18.0772        173
  18.1144        158
  18.1515        168
  18.1887        169
  18.2258        152
  18.2630        180
  18.3001        176
  18.3373        145
  18.3744        171
  18.4116        160
  18.4487        165
  18.4859        165
  18.5230        155
  18.5602        185
  18.5973        176
  18.6345        143
  18.6716        154
  18.7088        164
  18.7459        173
  18.7831        163
  18.8202        175
  18.8574        148
  18.8945        149
  18.9317        166
  18.9689        187
  19.0060        171
  19.0432        177
  19.0803        150
  19.1175        175
  19.1546        173
  19.1918        165
  19.2289        180
  19.2661        173
  19.3032        176
  19.3404        162
  19.3775        171
  19.4147        164
  19.4518        170
  19.4890        178
  19.5261        183
  19.5633        160
  19.6004        179
  19.6376        151
  19.6747        195
  19.7119        165
  19.7490        171
  19.7862        186
  19.8233        184
  19.8605        193
  19.8976        180
  19.9348        196
  19.9719        183
  20.0091        191
  20.0462        168
  20.0834        175
  20.1205        184
  20.1577        167
  20.1948        162
  20.2320        184
  20.2691        155
  20.3063        179
  20.3434        194
  20.3806        212
  20.4177        177
  20.4549        169
  20.4921        159
  20.5292        182
  20.5664        179
  20.6035        179
  20.6407        207
  20.6778        174
  20.7150        192
  20.7521        211
  20.7893        181
  20.8264        183
  20.8636        155
  20.9007        202
  20.9379        193
  20.9750        191
  21.0122        199
  21.0493        200
  21.0865        177
  21.1236        197
  21.1608        213
  21.1979        277
  21.2351        323
  21.2722        310
  21.3094        320
  21.3465        474
  21.3837        444
  21.4208        347
  21.4580        242
  21.4951        229
  21.5323        196
  21.5694        193
  21.6066        201
  21.6437        206
  21.6809        185
  21.7180        214
  21.7552        191
  21.7923        202
  21.8295        214
  21.8666        201
  21.9038        185
  21.9409        183
  21.9781        214
  22.0152        176
  22.0524        222
  22.0896        194
  22.1267        186
  22.1639        187
  22.2010        183
  22.2382        208
  22.2753        201
  22.3125        188
  22.3496        215
  22.3868        208
  22.4239        202
  22.4611        196
  22.4982        206
  22.5354        207
  22.5725        205
  22.6097        208
  22.6468        180
  22.6840        182
  22.7211        212
  22.7583        206
  22.7954        212
  22.8326        222
  22.8697        174
  22.9069        200
  22.9440        201
  22.9812        202
  23.0183        183
  23.0555        205
  23.0926        200
  23.1298        190
  23.1669        195
  23.2041        183
  23.2412        181
  23.2784        199
  23.3155        210
  23.3527        195
  23.3898        211
  23.4270        213
  23.4641        213
  23.5013        195
  23.5384        204
  23.5756        210
  23.6128        207
  23.6499        204
  23.6871        213
  23.7242        196
  23.7614        207
  23.7985        181
  23.8357        189
  23.8728        190
  23.9100        198
  23.9471        229
  23.9843        189
  24.0214        203
  24.0586        200
  24.0957        196
  24.1329        200
  24.1700        203
  24.2072        211
  24.2443        218
  24.2815        239
  24.3186        257
  24.3558        233
  24.3929        197
  24.4301        191
  24.4672        223
  24.5044        186
  24.5415        202
  24.5787        184
  24.6158        202
  24.6530        223
  24.6901        170
  24.7273        190
  24.7644        204
  24.8016        187
  24.8387        181
  24.8759        206
  24.9130        204
  24.9502        206
  24.9873        207
  25.0245        198
  25.0616        214
  25.0988        191
  25.1360        196
  25.1731        213
  25.2103        200
  25.2474        190
  25.2846        200
  25.3217        222
  25.3589        195
  25.3960        204
  25.4332        191
  25.4703        200
  25.5075        173
  25.5446        195
  25.5818        172
  25.6189        179
  25.6561        199
  25.6932        219
  25.7304        195
  25.7675        193
  25.8047        216
  25.8418        189
  25.8790        200
  25.9161        199
  25.9533        176
  25.9904        176
  26.0276        208
  26.0647        195
  26.1019        183
  26.1390        161
  26.1762        171
  26.2133        183
  26.2505        176
  26.2876        193
  26.3248        187
  26.3619        180
  26.3991        187
  26.4362        175
  26.4734        221
  26.5105        195
  26.5477        197
  26.5848        189
  26.6220        182
  26.6591        200
  26.6963        185
  26.7335        170
  26.7706        186
  26.8078        177
  26.8449        206
  26.8821        186
  26.9192        180
  26.9564        178
  26.9935        191
  27.0307        191
  27.0678        175
  27.1050        176
  27.1421        196
  27.1793        235
  27.2164        276
  27.2536        218
  27.2907        233
  27.3279        211
  27.3650        178
  27.4022        187
  27.4393        185
  27.4765        169
  27.5136        189
  27.5508        190
  27.5879        177
  27.6251        193
  27.6622        179
  27.6994        160
  27.7365        193
  27.7737        171
  27.8108        145
  27.8480        167
  27.8851        192
  27.9223        165
  27.9594        160
  27.9966        183
  28.0337        171
  28.0709        170
  28.1080        199
  28.1452        171
  28.1823        160
  28.2195        157
  28.2567        173
  28.2938        165
  28.3310        147
  28.3681        169
  28.4053        169
  28.4424        157
  28.4796        163
  28.5167        186
  28.5539        164
  28.5910        186
  28.6282        189
  28.6653        173
  28.7025        165
  28.7396        173
  28.7768        170
  28.8139        181
  28.8511        147
  28.8882        157
  28.9254        179
  28.9625        139
  28.9997        168
  29.0368        161
  29.0740        154
  29.1111        156
  29.1483        150
  29.1854        166
  29.2226        159
  29.2597        167
  29.2969        150
  29.3340        170
  29.3712        143
  29.4083        157
  29.4455        154
  29.4826        165
  29.5198        156
  29.5569        152
  29.5941        156
  29.6312        160
  29.6684        157
  29.7055        172
  29.7427        140
  29.7799        166
  29.8170        144
  29.8542        149
  29.8913        189
  29.9285        162
  29.9656        158
  30.0028        168
  30.0399        139
  30.0771        153
  30.1142        156
  30.1514        136
  30.1885        164
  30.2257        168
  30.2628        168
  30.3000        175
  30.3371        193
  30.3743        274
  30.4114        266
  30.4486        242
  30.4857        247
  30.5229        180
  30.5600        153
  30.5972        188
  30.6343        162
  30.6715        158
  30.7086        147
  30.7458        166
  30.7829        163
  30.8201        154
  30.8572        137
  30.8944        152
  30.9315        129
  30.9687        139
  31.0058        132
  31.0430        135
  31.0801        134
  31.1173        134
  31.1544        162
  31.1916        144
  31.2287        115
  31.2659        137
  31.3030        152
  31.3402        144
  31.3774        129
  31.4145        148
  31.4517        128
  31.4888        141
  31.5260        134
  31.5631        160
  31.6003        168
  31.6374        133
  31.6746        131
  31.7117        142
  31.7489        138
  31.7860        146
  31.8232        138
  31.8603        155
  31.8975        133
  31.9346        129
  31.9718        141
  32.0089        123
  32.0461        156
  32.0832        131
  32.1204        127
  32.1575        127
  32.1947        131
  32.2318        131
  32.2690        127
  32.3061        139
  32.3433        133
  32.3804        156
  32.4176        127
  32.4547        154
  32.4919        151
  32.5290        129
  32.5662        137
  32.6033        134
  32.6405        135
  32.6776        138
  32.7148        131
  32.7519        111
  32.7891        117
  32.8262        141
  32.8634        141
  32.9006        117
  32.9377        131
  32.9749        119
  33.0120        108
  33.0492        121
  33.0863        129
  33.1235        132
  33.1606        126
  33.1978        106
  33.2349        113
  33.2721        102
  33.3092        115
  33.3464        129
  33.3835        130
  33.4207        112
  33.4578        139
  33.4950        127
  33.5321        106
  33.5693         98
  33.6064        111
  33.6436        108
  33.6807        113
  33.7179        116
  33.7550        127
  33.7922        113
  33.8293        132
  33.8665        123
  33.9036        108
  33.9408        131
  33.9779        122
  34.0151        140
  34.0522        115
  34.0894        126
  34.1265        106
  34.1637        111
  34.2008        119
  34.2380        117
  34.2751        106
  34.3123        126
  34.3494        123
  34.3866        127
  34.4238        112
  34.4609         93
  34.4981        120
  34.5352        114
  34.5724        112
  34.6095        110
  34.6467        150
  34.6838        135
  34.7210        132
  34.7581        154
  34.7953        165
  34.8324        124
  34.8696        146
  34.9067        126
  34.9439        117
  34.9810        109
  35.0182        110
  35.0553        105
  35.0925        104
  35.1296        107
  35.1668        105
  35.2039         98
  35.2411        104
  35.2782        105
  35.3154         93
  35.3525        106
  35.3897        114
  35.4268        103
  35.4640        121
  35.5011        107
  35.5383        100
  35.5754        111
  35.6126        111
  35.6497         84
  35.6869        108
  35.7240         91
  35.7612         98
  35.7983        101
  35.8355        102
  35.8726         83
  35.9098         81
  35.9469         96
  35.9841         90
  36.0213        105
  36.0584        105
  36.0956         80
  36.1327         92
  36.1699         95
  36.2070         93
  36.2442        108
  36.2813         97
  36.3185         93
  36.3556         93
  36.3928        105
  36.4299         89
  36.4671         97
  36.5042         89
  36.5414        111
  36.5785         94
  36.6157        102
  36.6528         85
  36.6900         89
  36.7271         80
  36.7643         93
  36.8014        103
  36.8386         88
  36.8757        103
  36.9129        101
  36.9500         89
  36.9872         98
  37.0243         96
  37.0615         85
  37.0986         85
  37.1358         80
  37.1729         95
  37.2101         99
  37.2472        100
  37.2844        106
  37.3215         83
  37.3587        106
  37.3958        104
  37.4330        138
  37.4701        112
  37.5073        109
  37.5445        150
  37.5816         96
  37.6188        105
  37.6559        105
  37.6931        106
  37.7302         73
  37.7674         97
  37.8045         80
  37.8417         94
  37.8788         87
  37.9160         93
  37.9531         78
  37.9903         78
  38.0274         95
  38.0646         78
  38.1017         95
  38.1389         89
  38.1760         77
  38.2132         74
  38.2503         86
  38.2875         85
  38.3246         82
  38.3618        101
  38.3989         88
  38.4361         83
  38.4732         58
  38.5104         78
  38.5475         77
  38.5847         75
  38.6218         87
  38.6590         84
  38.6961         81
  38.7333         80
  38.7704         78
  38.8076         83
  38.8447         74
  38.8819         76
  38.9190         63
  38.9562         93
  38.9933         90
  39.0305         81
  39.0677         97
  39.1048         83
  39.1420         84
  39.1791         78
  39.2163         71
  39.2534         86
  39.2906         61
  39.3277         71
  39.3649         84
  39.4020         70
  39.4392         67
  39.4763         85
  39.5135         68
  39.5506         89
  39.5878         61
  39.6249         87
  39.6621         91
  39.6992         86
  39.7364         69
  39.7735         78
  39.8107         67
  39.8478         67
  39.8850         86
  39.9221         87
  39.9593         96
  39.9964         79
  40.0336         78
  40.0707         74
  40.1079         80
  40.1450         74
  40.1822         82
  40.2193         74
  40.2565         60
  40.2936         72
  40.3308         87
  40.3679         71
  40.4051         69
  40.4422         63
  40.4794         89
  40.5165         74
  40.5537         70
  40.5908         77
  40.6280         72
  40.6652         90
  40.7023         79
  40.7395         68
  40.7766         69
  40.8138         63
  40.8509         76
  40.8881         67
  40.9252         80
  40.9624         90
  40.9995         85
  41.0367         70
  41.0738         82
  41.1110         71
  41.1481         77
  41.1853         79
  41.2224         81
  41.2596         76
  41.2967         89
  41.3339         83
  41.3710         75
  41.4082         80
  41.4453         75
  41.4825         82
  41.5196         76
  41.5568         70
  41.5939         84
  41.6311         83
  41.6682         79
  41.7054         74
  41.7425         69
  41.7797         69
  41.8168         71
  41.8540         80
  41.8911         72
  41.9283         80
  41.9654         74
  42.0026         76
  42.0397         75
  42.0769         71
  42.1140         87
  42.1512         69
  42.1884         86
  42.2255         73
  42.2627         70
  42.2998         76
  42.3370         81
  42.3741         55
  42.4113         71
  42.4484         59
  42.4856         79
  42.5227         74
  42.5599         71
  42.5970         83
  42.6342         75
  42.6713         76
  42.7085         81
  42.7456         65
  42.7828         79
  42.8199         64
  42.8571         80
  42.8942         63
  42.9314         68
  42.9685         75
  43.0057         74
  43.0428         56
  43.0800         76
  43.1171         62
  43.1543         72
  43.1914         77
  43.2286         89
  43.2657         97
  43.3029         80
  43.3400         74
  43.3772         88
  43.4143         86
  43.4515         81
  43.4886        122
  43.5258        134
  43.5629         79
  43.6001         95
  43.6372         98
  43.6744         70
  43.7116         71
  43.7487         80
  43.7859         74
  43.8230         61
  43.8602         73
  43.8973         70
  43.9345         84
  43.9716         72
  44.0088         80
  44.0459         74
  44.0831         74
  44.1202         75
  44.1574         68
  44.1945         66
  44.2317         84
  44.2688         62
  44.3060         52
  44.3431         72
  44.3803         67
  44.4174         67
  44.4546         79
  44.4917         75
  44.5289         69
  44.5660         73
  44.6032         77
  44.6403         79
  44.6775         83
  44.7146         84
  44.7518         72
  44.7889         78
  44.8261         62
  44.8632         78
  44.9004         74
  44.9375         63
  44.9747         74
  45.0118        101
  45.0490         81
  45.0861         81
  45.1233         74
  45.1604         80
  45.1976         78
  45.2347         72
  45.2719         64
  45.3091         80
  45.3462         66
  45.3834         74
  45.4205         75
  45.4577         66
  45.4948         66
  45.5320         60
  45.5691         84
  45.6063         72
  45.6434         72
  45.6806         75
  45.7177         65
  45.7549         61
  45.7920         69
  45.8292         81
  45.8663         75
  45.9035         65
  45.9406         61
  45.9778         60
  46.0149         76
  46.0521         73
  46.0892         70
  46.1264         55
  46.1635         80
  46.2007         69
  46.2378         80
  46.2750         73
  46.3121         78
  46.3493         53
  46.3864         64
  46.4236         73
  46.4607         60
  46.4979         74
  46.5350         70
  46.5722         60
  46.6093         68
  46.6465         62
  46.6836         70
  46.7208         57
  46.7579         68
  46.7951         49
  46.8323         59
  46.8694         70
  46.9066         56
  46.9437         82
  46.9809         72
  47.0180         79
  47.0552         73
  47.0923         68
  47.1295         63
  47.1666         82
  47.2038         75
  47.2409         65
  47.2781         55
  47.3152         64
  47.3524         77
  47.3895         71
  47.4267         67
  47.4638         63
  47.5010         48
  47.5381         59
  47.5753         66
  47.6124         59
  47.6496         56
  47.6867         66
  47.7239         61
  47.7610         64
  47.7982         66
  47.8353         62
  47.8725         62
  47.9096         66
  47.9468         68
  47.9839         83
  48.0211         63
  48.0582         54
  48.0954         57
  48.1325         64
  48.1697         66
  48.2068         63
  48.2440         63
  48.2811         73
  48.3183         52
  48.3555         43
  48.3926         56
  48.4298         53
  48.4669         56
  48.5041         44
  48.5412         66
  48.5784         72
  48.6155         64
  48.6527         60
  48.6898         73
  48.7270         59
  48.7641         59
  48.8013         59
  48.8384         57
  48.8756         77
  48.9127         94
  48.9499        132
  48.9870        110
  49.0242         64
  49.0613         80
  49.0985         89
  49.1356         75
  49.1728         70
  49.2099         60
  49.2471         67
  49.2842         64
  49.3214         58
  49.3585         63
  49.3957         59
  49.4328         69
  49.4700         67
  49.5071         63
  49.5443         64
  49.5814         64
  49.6186         64
  49.6557         53
  49.6929         69
  49.7300         61
  49.7672         51
  49.8043         60
  49.8415         57
  49.8786         52
  49.9158         67
  49.9530         56
  49.9901         63
  50.0273         69
  50.0644         68
  50.1016         69
  50.1387         63
  50.1759         63
  50.2130         60
  50.2502         72
  50.2873         68
  50.3245         87
  50.3616         75
  50.3988         65
  50.4359         57
  50.4731         71
  50.5102         71
  50.5474         63
  50.5845         60
  50.6217         83
  50.6588         65
  50.6960         52
  50.7331         64
  50.7703         59
  50.8074         62
  50.8446         57
  50.8817         57
  50.9189         72
  50.9560         52
  50.9932         52
  51.0303         63
  51.0675         61
  51.1046         60
  51.1418         57
  51.1789         71
  51.2161         55
  51.2532         61
  51.2904         66
  51.3275         77
  51.3647         62
  51.4018         75
  51.4390         78
  51.4762         72
  51.5133         72
  51.5505         82
  51.5876         65
  51.6248         63
  51.6619         63
  51.6991         67
  51.7362         55
  51.7734         61
  51.8105         64
  51.8477         57
  51.8848         81
  51.9220         63
  51.9591         52
  51.9963         76
  52.0334         63
  52.0706         61
  52.1077         56
  52.1449         52
  52.1820         60
  52.2192         61
  52.2563         50
  52.2935         50
  52.3306         62
  52.3678         54
  52.4049         46
  52.4421         56
  52.4792         58
  52.5164         49
  52.5535         56
  52.5907         47
  52.6278         56
  52.6650         63
  52.7021         45
  52.7393         52
  52.7764         68
  52.8136         63
  52.8507         58
  52.8879         53
  52.9250         66
  52.9622         58
  52.9994         77
  53.0365         66
  53.0737         58
  53.1108         57
  53.1480         58
  53.1851         52
  53.2223         54
  53.2594         45
  53.2966         63
  53.3337         66
  53.3709         54
  53.4080         59
  53.4452         60
  53.4823         44
  53.5195         75
  53.5566         52
  53.5938         68
  53.6309         51
  53.6681         51
  53.7052         62
  53.7424         66
  53.7795         50
  53.8167         62
  53.8538         56
  53.8910         60
  53.9281         79
  53.9653         71
  54.0024         70
  54.0396         65
  54.0767         69
  54.1139         79
  54.1510         69
  54.1882         58
  54.2253         50
  54.2625         56
  54.2996         56
  54.3368         57
  54.3739         61
  54.4111         69
  54.4482         63
  54.4854         56
  54.5225         59
  54.5597         52
  54.5969         46
  54.6340         45
  54.6712         47
  54.7083         46
  54.7455         54
  54.7826         55
  54.8198         58
  54.8569         42
  54.8941         78
  54.9312         57
  54.9684         56
  55.0055         56
  55.0427         72
  55.0798         50
  55.1170         52
  55.1541         52
  55.1913         52
  55.2284         58
  55.2656         53
  55.3027         55
  55.3399         48
  55.3770         58
  55.4142         51
  55.4513         52
  55.4885         52
  55.5256         53
  55.5628         43
  55.5999         68
  55.6371         52
  55.6742         68
  55.7114         59
  55.7485         57
  55.7857         70
  55.8228         50
  55.8600         54
  55.8971         49
  55.9343         61
  55.9714         57
  56.0086         55
  56.0457         49
  56.0829         67
  56.1201         51
  56.1572         66
  56.1944         54
  56.2315         80
  56.2687         63
  56.3058         55
  56.3430         68
  56.3801         52
  56.4173         67
  56.4544         65
  56.4916         59
  56.5287         58
  56.5659         65
  56.6030         45
  56.6402         67
  56.6773         48
  56.7145         66
  56.7516         54
  56.7888         72
  56.8259         59
  56.8631         53
  56.9002         43
  56.9374         52
  56.9745         52
  57.0117         60
  57.0488         63
  57.0860         57
  57.1231         53
  57.1603         48
  57.1974         68
  57.2346         49
  57.2717         46
  57.3089         44
  57.3460         49
  57.3832         46
  57.4203         54
  57.4575         56
  57.4946         69
  57.5318         59
  57.5689         47
  57.6061         53
  57.6433         45
  57.6804         65
  57.7176         63
  57.7547         54
  57.7919         54
  57.8290         64
  57.8662         62
  57.9033         59
  57.9405         73
  57.9776         64
  58.0148         58
  58.0519         47
  58.0891         59
  58.1262         54
  58.1634         57
  58.2005         51
  58.2377         53
  58.2748         72
  58.3120         54
  58.3491         57
  58.3863         58
  58.4234         54
  58.4606         61
  58.4977         61
  58.5349         49
  58.5720         51
  58.6092         50
  58.6463         53
  58.6835         43
  58.7206         51
  58.7578         45
  58.7949         60
  58.8321         35
  58.8692         58
  58.9064         47
  58.9435         48
  58.9807         61
  59.0178         45
  59.0550         59
  59.0921         47
  59.1293         51
  59.1664         53
  59.2036         53
  59.2408         47
  59.2779         60
  59.3151         58
  59.3522         48
  59.3894         49
  59.4265         63
  59.4637         74
  59.5008         62
  59.5380         44
  59.5751         55
  59.6123         68
  59.6494         44
  59.6866         59
  59.7237         48
  59.7609         50
  59.7980         58
  59.8352         64
  59.8723         43
  59.9095         51
  59.9466         43
  59.9838         44
  60.0024         50