File: notebooks/data/xrd_data/ML_20220718_6_SJD_4_LaB6-2min.csv
;,2THETA,
5.0000,130
5.0372,138
5.0743,135
5.1115,126
5.1486,138
5.1858,117
5.2229,138
5.2601,124
5.2972,112
5.3344,105
5.3715,109
5.4087,119
5.4458,120
5.4830,104
5.5201,106
5.5573,108
5.5944,119
5.6316,108
5.6687,91
5.7059,97
5.7430,87
5.7802,117
5.8173,107
5.8545,103
5.8916,118
5.9288,98
5.9659,104
6.0031,108
6.0402,94
6.0774,108
6.1145,91
6.1517,107
6.1888,86
6.2260,108
6.2631,98
6.3003,97
6.3374,93
6.3746,100
6.4117,89
6.4489,74
6.4860,79
6.5232,86
6.5604,84
6.5975,95
6.6347,98
6.6718,94
6.7090,83
6.7461,93
6.7833,96
6.8204,84
6.8576,70
6.8947,75
6.9319,79
6.9690,73
7.0062,83
7.0433,87
7.0805,90
7.1176,69
7.1548,88
7.1919,80
7.2291,77
7.2662,78
7.3034,77
7.3405,77
7.3777,83
7.4148,72
7.4520,77
7.4891,67
7.5263,70
7.5634,81
7.6006,94
7.6377,92
7.6749,88
7.7120,75
7.7492,101
7.7863,97
7.8235,102
7.8606,104
7.8978,97
7.9349,88
7.9721,90
8.0092,115
8.0464,116
8.0835,101
8.1207,91
8.1579,94
8.1950,81
8.2322,112
8.2693,101
8.3065,102
8.3436,117
8.3808,100
8.4179,109
8.4551,93
8.4922,108
8.5294,98
8.5665,94
8.6037,99
8.6408,90
8.6780,93
8.7151,121
8.7523,105
8.7894,101
8.8266,113
8.8637,105
8.9009,101
8.9380,95
8.9752,114
9.0123,104
9.0495,113
9.0866,97
9.1238,118
9.1609,107
9.1981,111
9.2352,104
9.2724,98
9.3095,124
9.3467,109
9.3838,119
9.4210,100
9.4581,119
9.4953,101
9.5324,110
9.5696,116
9.6067,111
9.6439,101
9.6811,111
9.7182,102
9.7554,108
9.7925,118
9.8297,125
9.8668,122
9.9040,122
9.9411,116
9.9783,115
10.0154,104
10.0526,126
10.0897,133
10.1269,139
10.1640,119
10.2012,121
10.2383,119
10.2755,121
10.3126,139
10.3498,118
10.3869,120
10.4241,111
10.4612,125
10.4984,104
10.5355,115
10.5727,117
10.6098,105
10.6470,122
10.6841,108
10.7213,114
10.7584,119
10.7956,117
10.8327,118
10.8699,112
10.9070,129
10.9442,127
10.9813,106
11.0185,98
11.0556,141
11.0928,100
11.1299,127
11.1671,132
11.2043,104
11.2414,127
11.2786,124
11.3157,121
11.3529,105
11.3900,140
11.4272,132
11.4643,116
11.5015,137
11.5386,106
11.5758,112
11.6129,104
11.6501,123
11.6872,121
11.7244,109
11.7615,116
11.7987,119
11.8358,110
11.8730,141
11.9101,124
11.9473,121
11.9844,122
12.0216,90
12.0587,116
12.0959,130
12.1330,121
12.1702,121
12.2073,101
12.2445,115
12.2816,109
12.3188,93
12.3559,107
12.3931,112
12.4302,110
12.4674,125
12.5045,110
12.5417,115
12.5788,109
12.6160,107
12.6531,102
12.6903,90
12.7274,113
12.7646,100
12.8018,91
12.8389,104
12.8761,100
12.9132,87
12.9504,90
12.9875,106
13.0247,108
13.0618,102
13.0990,108
13.1361,106
13.1733,89
13.2104,92
13.2476,98
13.2847,93
13.3219,108
13.3590,86
13.3962,75
13.4333,89
13.4705,79
13.5076,87
13.5448,97
13.5819,88
13.6191,97
13.6562,87
13.6934,90
13.7305,89
13.7677,117
13.8048,85
13.8420,104
13.8791,114
13.9163,96
13.9534,94
13.9906,109
14.0277,91
14.0649,92
14.1020,108
14.1392,84
14.1763,89
14.2135,86
14.2506,94
14.2878,98
14.3250,98
14.3621,81
14.3993,86
14.4364,86
14.4736,82
14.5107,71
14.5479,92
14.5850,86
14.6222,83
14.6593,88
14.6965,98
14.7336,77
14.7708,90
14.8079,87
14.8451,99
14.8822,94
14.9194,75
14.9565,72
14.9937,80
15.0308,92
15.0680,88
15.1051,81
15.1423,84
15.1794,68
15.2166,86
15.2537,76
15.2909,80
15.3280,79
15.3652,97
15.4023,70
15.4395,96
15.4766,79
15.5138,91
15.5509,75
15.5881,64
15.6252,95
15.6624,81
15.6995,92
15.7367,84
15.7738,81
15.8110,72
15.8482,84
15.8853,70
15.9225,83
15.9596,78
15.9968,94
16.0339,88
16.0711,72
16.1082,74
16.1454,77
16.1825,80
16.2197,97
16.2568,80
16.2940,89
16.3311,90
16.3683,91
16.4054,85
16.4426,99
16.4797,70
16.5169,96
16.5540,88
16.5912,74
16.6283,82
16.6655,82
16.7026,78
16.7398,75
16.7769,91
16.8141,74
16.8512,91
16.8884,84
16.9255,87
16.9627,75
16.9998,71
17.0370,74
17.0741,88
17.1113,83
17.1484,75
17.1856,80
17.2227,88
17.2599,99
17.2970,69
17.3342,72
17.3713,99
17.4085,79
17.4457,73
17.4828,93
17.5200,94
17.5571,66
17.5943,64
17.6314,84
17.6686,78
17.7057,80
17.7429,72
17.7800,58
17.8172,86
17.8543,75
17.8915,88
17.9286,75
17.9658,82
18.0029,82
18.0401,97
18.0772,70
18.1144,80
18.1515,74
18.1887,82
18.2258,80
18.2630,82
18.3001,80
18.3373,71
18.3744,80
18.4116,77
18.4487,57
18.4859,85
18.5230,65
18.5602,83
18.5973,73
18.6345,88
18.6716,73
18.7088,92
18.7459,87
18.7831,73
18.8202,75
18.8574,82
18.8945,83
18.9317,83
18.9689,77
19.0060,83
19.0432,68
19.0803,90
19.1175,78
19.1546,69
19.1918,68
19.2289,77
19.2661,76
19.3032,88
19.3404,93
19.3775,81
19.4147,68
19.4518,81
19.4890,78
19.5261,92
19.5633,75
19.6004,94
19.6376,84
19.6747,111
19.7119,82
19.7490,84
19.7862,90
19.8233,88
19.8605,84
19.8976,90
19.9348,101
19.9719,101
20.0091,82
20.0462,94
20.0834,71
20.1205,87
20.1577,96
20.1948,78
20.2320,100
20.2691,82
20.3063,89
20.3434,91
20.3806,103
20.4177,87
20.4549,90
20.4921,79
20.5292,74
20.5664,99
20.6035,94
20.6407,92
20.6778,93
20.7150,90
20.7521,104
20.7893,78
20.8264,90
20.8636,94
20.9007,79
20.9379,98
20.9750,97
21.0122,92
21.0493,95
21.0865,99
21.1236,94
21.1608,126
21.1979,131
21.2351,162
21.2722,144
21.3094,143
21.3465,250
21.3837,197
21.4208,147
21.4580,130
21.4951,112
21.5323,98
21.5694,108
21.6066,94
21.6437,82
21.6809,100
21.7180,117
21.7552,95
21.7923,108
21.8295,84
21.8666,103
21.9038,91
21.9409,110
21.9781,109
22.0152,97
22.0524,124
22.0896,90
22.1267,84
22.1639,78
22.2010,95
22.2382,96
22.2753,96
22.3125,99
22.3496,87
22.3868,103
22.4239,99
22.4611,79
22.4982,80
22.5354,84
22.5725,89
22.6097,95
22.6468,107
22.6840,88
22.7211,109
22.7583,102
22.7954,94
22.8326,84
22.8697,98
22.9069,107
22.9440,102
22.9812,101
23.0183,76
23.0555,105
23.0926,95
23.1298,94
23.1669,100
23.2041,99
23.2412,93
23.2784,108
23.3155,91
23.3527,97
23.3898,104
23.4270,99
23.4641,106
23.5013,99
23.5384,84
23.5756,110
23.6128,90
23.6499,105
23.6871,109
23.7242,88
23.7614,106
23.7985,90
23.8357,97
23.8728,107
23.9100,114
23.9471,108
23.9843,103
24.0214,107
24.0586,107
24.0957,101
24.1329,76
24.1700,96
24.2072,88
24.2443,107
24.2815,125
24.3186,111
24.3558,110
24.3929,102
24.4301,93
24.4672,103
24.5044,77
24.5415,100
24.5787,123
24.6158,119
24.6530,108
24.6901,95
24.7273,88
24.7644,94
24.8016,84
24.8387,104
24.8759,97
24.9130,84
24.9502,91
24.9873,85
25.0245,85
25.0616,95
25.0988,93
25.1360,87
25.1731,98
25.2103,92
25.2474,98
25.2846,110
25.3217,97
25.3589,112
25.3960,119
25.4332,86
25.4703,89
25.5075,90
25.5446,76
25.5818,83
25.6189,106
25.6561,99
25.6932,89
25.7304,88
25.7675,90
25.8047,91
25.8418,84
25.8790,78
25.9161,95
25.9533,99
25.9904,85
26.0276,82
26.0647,85
26.1019,99
26.1390,87
26.1762,110
26.2133,80
26.2505,109
26.2876,83
26.3248,88
26.3619,99
26.3991,91
26.4362,93
26.4734,94
26.5105,88
26.5477,93
26.5848,99
26.6220,105
26.6591,90
26.6963,106
26.7335,69
26.7706,102
26.8078,97
26.8449,76
26.8821,96
26.9192,92
26.9564,97
26.9935,100
27.0307,94
27.0678,100
27.1050,101
27.1421,92
27.1793,103
27.2164,114
27.2536,128
27.2907,109
27.3279,96
27.3650,96
27.4022,96
27.4393,90
27.4765,97
27.5136,83
27.5508,92
27.5879,94
27.6251,82
27.6622,87
27.6994,96
27.7365,82
27.7737,92
27.8108,92
27.8480,69
27.8851,82
27.9223,88
27.9594,79
27.9966,94
28.0337,83
28.0709,97
28.1080,85
28.1452,96
28.1823,73
28.2195,88
28.2567,82
28.2938,86
28.3310,74
28.3681,88
28.4053,97
28.4424,85
28.4796,91
28.5167,102
28.5539,68
28.5910,90
28.6282,88
28.6653,85
28.7025,79
28.7396,68
28.7768,73
28.8139,74
28.8511,85
28.8882,96
28.9254,76
28.9625,76
28.9997,64
29.0368,91
29.0740,90
29.1111,75
29.1483,96
29.1854,85
29.2226,82
29.2597,86
29.2969,65
29.3340,73
29.3712,84
29.4083,73
29.4455,75
29.4826,72
29.5198,77
29.5569,87
29.5941,90
29.6312,79
29.6684,90
29.7055,81
29.7427,78
29.7799,93
29.8170,88
29.8542,86
29.8913,82
29.9285,76
29.9656,73
30.0028,78
30.0399,88
30.0771,94
30.1142,93
30.1514,73
30.1885,75
30.2257,95
30.2628,83
30.3000,105
30.3371,95
30.3743,130
30.4114,155
30.4486,98
30.4857,119
30.5229,76
30.5600,72
30.5972,80
30.6343,78
30.6715,70
30.7086,70
30.7458,71
30.7829,67
30.8201,64
30.8572,83
30.8944,81
30.9315,76
30.9687,63
31.0058,76
31.0430,67
31.0801,66
31.1173,80
31.1544,72
31.1916,61
31.2287,93
31.2659,75
31.3030,71
31.3402,60
31.3774,77
31.4145,80
31.4517,72
31.4888,73
31.5260,74
31.5631,61
31.6003,69
31.6374,75
31.6746,62
31.7117,56
31.7489,70
31.7860,67
31.8232,59
31.8603,69
31.8975,71
31.9346,72
31.9718,57
32.0089,62
32.0461,66
32.0832,80
32.1204,73
32.1575,59
32.1947,59
32.2318,60
32.2690,66
32.3061,69
32.3433,59
32.3804,60
32.4176,63
32.4547,82
32.4919,68
32.5290,67
32.5662,79
32.6033,65
32.6405,66
32.6776,53
32.7148,65
32.7519,64
32.7891,68
32.8262,64
32.8634,66
32.9006,61
32.9377,69
32.9749,56
33.0120,63
33.0492,52
33.0863,56
33.1235,67
33.1606,61
33.1978,62
33.2349,65
33.2721,46
33.3092,56
33.3464,64
33.3835,40
33.4207,52
33.4578,69
33.4950,69
33.5321,58
33.5693,53
33.6064,57
33.6436,58
33.6807,70
33.7179,47
33.7550,57
33.7922,42
33.8293,57
33.8665,63
33.9036,63
33.9408,66
33.9779,68
34.0151,52
34.0522,53
34.0894,51
34.1265,44
34.1637,43
34.2008,51
34.2380,60
34.2751,56
34.3123,47
34.3494,54
34.3866,56
34.4238,60
34.4609,48
34.4981,57
34.5352,63
34.5724,50
34.6095,52
34.6467,53
34.6838,56
34.7210,77
34.7581,71
34.7953,78
34.8324,55
34.8696,71
34.9067,50
34.9439,64
34.9810,62
35.0182,50
35.0553,50
35.0925,58
35.1296,66
35.1668,57
35.2039,55
35.2411,55
35.2782,64
35.3154,46
35.3525,46
35.3897,58
35.4268,57
35.4640,47
35.5011,55
35.5383,47
35.5754,40
35.6126,42
35.6497,43
35.6869,54
35.7240,51
35.7612,57
35.7983,50
35.8355,39
35.8726,46
35.9098,60
35.9469,49
35.9841,51
36.0213,51
36.0584,45
36.0956,37
36.1327,46
36.1699,46
36.2070,50
36.2442,42
36.2813,40
36.3185,37
36.3556,45
36.3928,35
36.4299,58
36.4671,49
36.5042,29
36.5414,48
36.5785,40
36.6157,62
36.6528,39
36.6900,57
36.7271,50
36.7643,46
36.8014,48
36.8386,45
36.8757,55
36.9129,47
36.9500,49
36.9872,44
37.0243,49
37.0615,49
37.0986,34
37.1358,35
37.1729,34
37.2101,39
37.2472,38
37.2844,41
37.3215,37
37.3587,63
37.3958,54
37.4330,66
37.4701,62
37.5073,47
37.5445,59
37.5816,41
37.6188,41
37.6559,37
37.6931,40
37.7302,39
37.7674,38
37.8045,52
37.8417,38
37.8788,43
37.9160,41
37.9531,39
37.9903,40
38.0274,43
38.0646,53
38.1017,45
38.1389,44
38.1760,42
38.2132,47
38.2503,35
38.2875,45
38.3246,52
38.3618,38
38.3989,52
38.4361,43
38.4732,37
38.5104,45
38.5475,39
38.5847,38
38.6218,43
38.6590,47
38.6961,50
38.7333,46
38.7704,41
38.8076,52
38.8447,44
38.8819,40
38.9190,43
38.9562,46
38.9933,36
39.0305,38
39.0677,43
39.1048,43
39.1420,41
39.1791,36
39.2163,35
39.2534,45
39.2906,28
39.3277,49
39.3649,41
39.4020,19
39.4392,43
39.4763,32
39.5135,27
39.5506,43
39.5878,44
39.6249,51
39.6621,39
39.6992,35
39.7364,46
39.7735,28
39.8107,49
39.8478,44
39.8850,33
39.9221,33
39.9593,33
39.9964,32
40.0336,39
40.0707,33
40.1079,41
40.1450,35
40.1822,38
40.2193,43
40.2565,37
40.2936,51
40.3308,34
40.3679,34
40.4051,43
40.4422,36
40.4794,34
40.5165,36
40.5537,33
40.5908,30
40.6280,30
40.6652,39
40.7023,43
40.7395,40
40.7766,35
40.8138,46
40.8509,31
40.8881,32
40.9252,45
40.9624,33
40.9995,39
41.0367,42
41.0738,39
41.1110,33
41.1481,27
41.1853,40
41.2224,44
41.2596,34
41.2967,44
41.3339,41
41.3710,34
41.4082,40
41.4453,36
41.4825,45
41.5196,45
41.5568,37
41.5939,43
41.6311,43
41.6682,41
41.7054,42
41.7425,42
41.7797,36
41.8168,36
41.8540,35
41.8911,33
41.9283,45
41.9654,36
42.0026,41
42.0397,39
42.0769,37
42.1140,37
42.1512,35
42.1884,46
42.2255,35
42.2627,40
42.2998,46
42.3370,50
42.3741,26
42.4113,30
42.4484,28
42.4856,32
42.5227,40
42.5599,30
42.5970,32
42.6342,35
42.6713,43
42.7085,39
42.7456,30
42.7828,31
42.8199,40
42.8571,26
42.8942,38
42.9314,34
42.9685,35
43.0057,34
43.0428,25
43.0800,27
43.1171,34
43.1543,31
43.1914,33
43.2286,39
43.2657,34
43.3029,41
43.3400,39
43.3772,43
43.4143,39
43.4515,59
43.4886,56
43.5258,63
43.5629,52
43.6001,41
43.6372,53
43.6744,50
43.7116,40
43.7487,37
43.7859,34
43.8230,43
43.8602,38
43.8973,38
43.9345,43
43.9716,40
44.0088,32
44.0459,43
44.0831,31
44.1202,29
44.1574,35
44.1945,37
44.2317,31
44.2688,29
44.3060,46
44.3431,44
44.3803,44
44.4174,33
44.4546,34
44.4917,33
44.5289,31
44.5660,29
44.6032,44
44.6403,43
44.6775,39
44.7146,43
44.7518,29
44.7889,42
44.8261,41
44.8632,36
44.9004,37
44.9375,24
44.9747,37
45.0118,47
45.0490,46
45.0861,40
45.1233,33
45.1604,24
45.1976,33
45.2347,31
45.2719,30
45.3091,41
45.3462,34
45.3834,34
45.4205,36
45.4577,34
45.4948,40
45.5320,31
45.5691,36
45.6063,29
45.6434,25
45.6806,29
45.7177,25
45.7549,28
45.7920,30
45.8292,28
45.8663,27
45.9035,27
45.9406,32
45.9778,34
46.0149,27
46.0521,29
46.0892,29
46.1264,37
46.1635,30
46.2007,32
46.2378,31
46.2750,26
46.3121,40
46.3493,43
46.3864,32
46.4236,37
46.4607,40
46.4979,37
46.5350,35
46.5722,34
46.6093,34
46.6465,32
46.6836,41
46.7208,29
46.7579,40
46.7951,47
46.8323,31
46.8694,37
46.9066,35
46.9437,25
46.9809,26
47.0180,31
47.0552,45
47.0923,33
47.1295,34
47.1666,31
47.2038,33
47.2409,30
47.2781,33
47.3152,39
47.3524,33
47.3895,42
47.4267,34
47.4638,34
47.5010,24
47.5381,35
47.5753,33
47.6124,26
47.6496,27
47.6867,37
47.7239,28
47.7610,28
47.7982,26
47.8353,29
47.8725,44
47.9096,29
47.9468,32
47.9839,40
48.0211,34
48.0582,27
48.0954,32
48.1325,32
48.1697,30
48.2068,27
48.2440,19
48.2811,21
48.3183,29
48.3555,28
48.3926,30
48.4298,36
48.4669,25
48.5041,32
48.5412,25
48.5784,37
48.6155,24
48.6527,36
48.6898,38
48.7270,38
48.7641,33
48.8013,24
48.8384,30
48.8756,43
48.9127,41
48.9499,44
48.9870,55
49.0242,34
49.0613,41
49.0985,54
49.1356,35
49.1728,32
49.2099,35
49.2471,27
49.2842,31
49.3214,27
49.3585,23
49.3957,28
49.4328,25
49.4700,37
49.5071,32
49.5443,29
49.5814,36
49.6186,38
49.6557,38
49.6929,25
49.7300,35
49.7672,27
49.8043,34
49.8415,26
49.8786,36
49.9158,31
49.9530,23
49.9901,33
50.0273,36
50.0644,32
50.1016,28
50.1387,39
50.1759,38
50.2130,29
50.2502,32
50.2873,34
50.3245,30
50.3616,28
50.3988,34
50.4359,29
50.4731,27
50.5102,33
50.5474,25
50.5845,27
50.6217,13
50.6588,33
50.6960,25
50.7331,34
50.7703,28
50.8074,35
50.8446,29
50.8817,36
50.9189,26
50.9560,28
50.9932,30
51.0303,21
51.0675,21
51.1046,30
51.1418,17
51.1789,26
51.2161,33
51.2532,25
51.2904,28
51.3275,24
51.3647,32
51.4018,25
51.4390,43
51.4762,33
51.5133,31
51.5505,36
51.5876,43
51.6248,26
51.6619,29
51.6991,27
51.7362,29
51.7734,36
51.8105,37
51.8477,19
51.8848,43
51.9220,27
51.9591,25
51.9963,34
52.0334,38
52.0706,31
52.1077,43
52.1449,31
52.1820,26
52.2192,35
52.2563,32
52.2935,24
52.3306,27
52.3678,30
52.4049,39
52.4421,34
52.4792,36
52.5164,29
52.5535,30
52.5907,29
52.6278,25
52.6650,29
52.7021,25
52.7393,24
52.7764,29
52.8136,28
52.8507,30
52.8879,39
52.9250,31
52.9622,21
52.9994,33
53.0365,26
53.0737,30
53.1108,27
53.1480,36
53.1851,35
53.2223,30
53.2594,19
53.2966,31
53.3337,26
53.3709,24
53.4080,29
53.4452,23
53.4823,16
53.5195,28
53.5566,38
53.5938,31
53.6309,28
53.6681,36
53.7052,31
53.7424,23
53.7795,25
53.8167,33
53.8538,27
53.8910,27
53.9281,27
53.9653,42
54.0024,46
54.0396,40
54.0767,33
54.1139,26
54.1510,29
54.1882,19
54.2253,38
54.2625,25
54.2996,36
54.3368,24
54.3739,27
54.4111,26
54.4482,29
54.4854,23
54.5225,20
54.5597,26
54.5969,19
54.6340,20
54.6712,26
54.7083,25
54.7455,25
54.7826,28
54.8198,36
54.8569,31
54.8941,43
54.9312,27
54.9684,25
55.0055,16
55.0427,35
55.0798,40
55.1170,36
55.1541,31
55.1913,31
55.2284,20
55.2656,33
55.3027,26
55.3399,26
55.3770,26
55.4142,23
55.4513,26
55.4885,26
55.5256,25
55.5628,31
55.5999,32
55.6371,19
55.6742,26
55.7114,27
55.7485,32
55.7857,25
55.8228,23
55.8600,27
55.8971,21
55.9343,39
55.9714,27
56.0086,23
56.0457,21
56.0829,22
56.1201,24
56.1572,28
56.1944,46
56.2315,49
56.2687,22
56.3058,37
56.3430,30
56.3801,37
56.4173,27
56.4544,36
56.4916,31
56.5287,28
56.5659,36
56.6030,30
56.6402,23
56.6773,30
56.7145,28
56.7516,28
56.7888,25
56.8259,29
56.8631,31
56.9002,25
56.9374,31
56.9745,31
57.0117,29
57.0488,23
57.0860,23
57.1231,18
57.1603,27
57.1974,42
57.2346,28
57.2717,36
57.3089,28
57.3460,17
57.3832,33
57.4203,28
57.4575,35
57.4946,28
57.5318,27
57.5689,17
57.6061,36
57.6433,17
57.6804,32
57.7176,30
57.7547,30
57.7919,31
57.8290,25
57.8662,39
57.9033,33
57.9405,33
57.9776,24
58.0148,30
58.0519,42
58.0891,24
58.1262,28
58.1634,26
58.2005,31
58.2377,21
58.2748,39
58.3120,26
58.3491,22
58.3863,37
58.4234,25
58.4606,25
58.4977,35
58.5349,23
58.5720,29
58.6092,24
58.6463,28
58.6835,25
58.7206,29
58.7578,23
58.7949,32
58.8321,27
58.8692,24
58.9064,35
58.9435,27
58.9807,23
59.0178,35
59.0550,44
59.0921,29
59.1293,29
59.1664,24
59.2036,23
59.2408,29
59.2779,30
59.3151,24
59.3522,22
59.3894,23
59.4265,20
59.4637,29
59.5008,25
59.5380,30
59.5751,16
59.6123,27
59.6494,23
59.6866,26
59.7237,32
59.7609,26
59.7980,25
59.8352,20
59.8723,22
59.9095,29
59.9466,34
59.9838,32
60.0024,29