File: notebooks/data/xrd_data/ML_20220718_50_SJD_4_LaB6-1min.csv
;,2THETA,
5.0000,120
5.0372,107
5.0743,92
5.1115,88
5.1486,70
5.1858,81
5.2229,71
5.2601,89
5.2972,75
5.3344,98
5.3715,106
5.4087,79
5.4458,92
5.4830,88
5.5201,64
5.5573,75
5.5944,79
5.6316,81
5.6687,64
5.7059,103
5.7430,80
5.7802,62
5.8173,80
5.8545,79
5.8916,73
5.9288,78
5.9659,79
6.0031,68
6.0402,74
6.0774,71
6.1145,78
6.1517,60
6.1888,56
6.2260,71
6.2631,68
6.3003,73
6.3374,62
6.3746,50
6.4117,71
6.4489,74
6.4860,52
6.5232,66
6.5604,48
6.5975,54
6.6347,73
6.6718,65
6.7090,64
6.7461,66
6.7833,66
6.8204,57
6.8576,62
6.8947,64
6.9319,69
6.9690,64
7.0062,63
7.0433,55
7.0805,64
7.1176,61
7.1548,49
7.1919,59
7.2291,49
7.2662,58
7.3034,63
7.3405,48
7.3777,53
7.4148,49
7.4520,55
7.4891,62
7.5263,58
7.5634,66
7.6006,63
7.6377,72
7.6749,59
7.7120,64
7.7492,66
7.7863,68
7.8235,62
7.8606,71
7.8978,79
7.9349,74
7.9721,81
8.0092,70
8.0464,65
8.0835,68
8.1207,63
8.1579,80
8.1950,85
8.2322,74
8.2693,66
8.3065,78
8.3436,80
8.3808,76
8.4179,58
8.4551,86
8.4922,77
8.5294,54
8.5665,60
8.6037,79
8.6408,81
8.6780,83
8.7151,70
8.7523,68
8.7894,65
8.8266,64
8.8637,69
8.9009,67
8.9380,79
8.9752,81
9.0123,83
9.0495,75
9.0866,76
9.1238,68
9.1609,68
9.1981,74
9.2352,76
9.2724,78
9.3095,80
9.3467,96
9.3838,78
9.4210,83
9.4581,79
9.4953,86
9.5324,68
9.5696,107
9.6067,71
9.6439,68
9.6811,82
9.7182,92
9.7554,68
9.7925,89
9.8297,97
9.8668,95
9.9040,75
9.9411,89
9.9783,93
10.0154,101
10.0526,107
10.0897,91
10.1269,93
10.1640,89
10.2012,85
10.2383,88
10.2755,100
10.3126,93
10.3498,98
10.3869,79
10.4241,82
10.4612,81
10.4984,89
10.5355,99
10.5727,100
10.6098,94
10.6470,83
10.6841,94
10.7213,84
10.7584,82
10.7956,92
10.8327,103
10.8699,72
10.9070,99
10.9442,90
10.9813,83
11.0185,72
11.0556,98
11.0928,64
11.1299,91
11.1671,93
11.2043,83
11.2414,68
11.2786,76
11.3157,92
11.3529,92
11.3900,86
11.4272,91
11.4643,98
11.5015,82
11.5386,100
11.5758,91
11.6129,78
11.6501,84
11.6872,81
11.7244,91
11.7615,77
11.7987,82
11.8358,79
11.8730,101
11.9101,74
11.9473,73
11.9844,96
12.0216,76
12.0587,78
12.0959,98
12.1330,72
12.1702,90
12.2073,79
12.2445,83
12.2816,84
12.3188,76
12.3559,85
12.3931,79
12.4302,94
12.4674,76
12.5045,70
12.5417,91
12.5788,78
12.6160,86
12.6531,70
12.6903,65
12.7274,73
12.7646,91
12.8018,66
12.8389,71
12.8761,70
12.9132,74
12.9504,77
12.9875,89
13.0247,68
13.0618,69
13.0990,76
13.1361,71
13.1733,78
13.2104,75
13.2476,79
13.2847,74
13.3219,81
13.3590,85
13.3962,70
13.4333,78
13.4705,71
13.5076,73
13.5448,62
13.5819,70
13.6191,72
13.6562,54
13.6934,62
13.7305,57
13.7677,88
13.8048,76
13.8420,69
13.8791,61
13.9163,68
13.9534,59
13.9906,60
14.0277,73
14.0649,52
14.1020,77
14.1392,72
14.1763,79
14.2135,73
14.2506,66
14.2878,68
14.3250,63
14.3621,62
14.3993,61
14.4364,68
14.4736,74
14.5107,71
14.5479,59
14.5850,70
14.6222,67
14.6593,67
14.6965,68
14.7336,49
14.7708,61
14.8079,56
14.8451,51
14.8822,72
14.9194,71
14.9565,62
14.9937,50
15.0308,52
15.0680,49
15.1051,68
15.1423,68
15.1794,49
15.2166,58
15.2537,52
15.2909,55
15.3280,59
15.3652,79
15.4023,72
15.4395,54
15.4766,50
15.5138,59
15.5509,60
15.5881,69
15.6252,52
15.6624,56
15.6995,60
15.7367,59
15.7738,62
15.8110,53
15.8482,59
15.8853,65
15.9225,59
15.9596,71
15.9968,50
16.0339,48
16.0711,59
16.1082,61
16.1454,36
16.1825,64
16.2197,51
16.2568,44
16.2940,48
16.3311,57
16.3683,60
16.4054,59
16.4426,54
16.4797,69
16.5169,50
16.5540,63
16.5912,58
16.6283,58
16.6655,71
16.7026,43
16.7398,67
16.7769,65
16.8141,52
16.8512,70
16.8884,58
16.9255,66
16.9627,58
16.9998,57
17.0370,57
17.0741,60
17.1113,63
17.1484,69
17.1856,60
17.2227,55
17.2599,56
17.2970,71
17.3342,55
17.3713,59
17.4085,57
17.4457,51
17.4828,47
17.5200,66
17.5571,56
17.5943,53
17.6314,64
17.6686,60
17.7057,41
17.7429,50
17.7800,64
17.8172,61
17.8543,54
17.8915,66
17.9286,61
17.9658,63
18.0029,73
18.0401,67
18.0772,66
18.1144,70
18.1515,59
18.1887,64
18.2258,47
18.2630,54
18.3001,59
18.3373,78
18.3744,78
18.4116,65
18.4487,53
18.4859,61
18.5230,63
18.5602,60
18.5973,74
18.6345,55
18.6716,70
18.7088,59
18.7459,66
18.7831,65
18.8202,55
18.8574,56
18.8945,61
18.9317,53
18.9689,66
19.0060,71
19.0432,59
19.0803,82
19.1175,61
19.1546,70
19.1918,65
19.2289,70
19.2661,65
19.3032,58
19.3404,67
19.3775,65
19.4147,55
19.4518,76
19.4890,73
19.5261,58
19.5633,59
19.6004,63
19.6376,52
19.6747,55
19.7119,47
19.7490,61
19.7862,68
19.8233,78
19.8605,68
19.8976,78
19.9348,53
19.9719,65
20.0091,73
20.0462,70
20.0834,64
20.1205,77
20.1577,61
20.1948,64
20.2320,54
20.2691,62
20.3063,68
20.3434,74
20.3806,73
20.4177,63
20.4549,48
20.4921,60
20.5292,58
20.5664,86
20.6035,56
20.6407,78
20.6778,65
20.7150,63
20.7521,77
20.7893,82
20.8264,62
20.8636,66
20.9007,62
20.9379,76
20.9750,72
21.0122,75
21.0493,82
21.0865,72
21.1236,69
21.1608,94
21.1979,104
21.2351,116
21.2722,104
21.3094,120
21.3465,193
21.3837,135
21.4208,118
21.4580,102
21.4951,80
21.5323,70
21.5694,82
21.6066,79
21.6437,74
21.6809,85
21.7180,50
21.7552,73
21.7923,76
21.8295,61
21.8666,67
21.9038,74
21.9409,76
21.9781,79
22.0152,74
22.0524,70
22.0896,73
22.1267,75
22.1639,65
22.2010,63
22.2382,71
22.2753,77
22.3125,66
22.3496,64
22.3868,69
22.4239,64
22.4611,68
22.4982,63
22.5354,88
22.5725,80
22.6097,76
22.6468,79
22.6840,72
22.7211,77
22.7583,74
22.7954,65
22.8326,94
22.8697,73
22.9069,79
22.9440,70
22.9812,79
23.0183,62
23.0555,71
23.0926,66
23.1298,80
23.1669,69
23.2041,60
23.2412,73
23.2784,70
23.3155,91
23.3527,80
23.3898,89
23.4270,69
23.4641,77
23.5013,77
23.5384,80
23.5756,75
23.6128,67
23.6499,71
23.6871,67
23.7242,82
23.7614,78
23.7985,77
23.8357,79
23.8728,89
23.9100,67
23.9471,79
23.9843,60
24.0214,68
24.0586,70
24.0957,69
24.1329,71
24.1700,75
24.2072,90
24.2443,96
24.2815,67
24.3186,85
24.3558,87
24.3929,74
24.4301,78
24.4672,66
24.5044,71
24.5415,73
24.5787,69
24.6158,67
24.6530,63
24.6901,72
24.7273,84
24.7644,75
24.8016,82
24.8387,67
24.8759,70
24.9130,69
24.9502,65
24.9873,63
25.0245,69
25.0616,71
25.0988,77
25.1360,84
25.1731,69
25.2103,58
25.2474,57
25.2846,70
25.3217,77
25.3589,68
25.3960,70
25.4332,72
25.4703,92
25.5075,70
25.5446,67
25.5818,67
25.6189,62
25.6561,71
25.6932,86
25.7304,60
25.7675,73
25.8047,65
25.8418,83
25.8790,62
25.9161,78
25.9533,71
25.9904,69
26.0276,73
26.0647,65
26.1019,80
26.1390,77
26.1762,66
26.2133,68
26.2505,92
26.2876,76
26.3248,70
26.3619,67
26.3991,66
26.4362,71
26.4734,65
26.5105,69
26.5477,71
26.5848,76
26.6220,67
26.6591,68
26.6963,65
26.7335,66
26.7706,78
26.8078,79
26.8449,66
26.8821,65
26.9192,52
26.9564,57
26.9935,69
27.0307,79
27.0678,69
27.1050,79
27.1421,82
27.1793,81
27.2164,96
27.2536,94
27.2907,69
27.3279,70
27.3650,78
27.4022,68
27.4393,67
27.4765,66
27.5136,65
27.5508,62
27.5879,64
27.6251,65
27.6622,76
27.6994,66
27.7365,63
27.7737,69
27.8108,59
27.8480,66
27.8851,65
27.9223,63
27.9594,64
27.9966,69
28.0337,67
28.0709,70
28.1080,58
28.1452,59
28.1823,56
28.2195,60
28.2567,51
28.2938,69
28.3310,62
28.3681,61
28.4053,61
28.4424,43
28.4796,59
28.5167,62
28.5539,52
28.5910,62
28.6282,73
28.6653,53
28.7025,52
28.7396,67
28.7768,53
28.8139,60
28.8511,72
28.8882,72
28.9254,68
28.9625,62
28.9997,58
29.0368,54
29.0740,60
29.1111,55
29.1483,50
29.1854,70
29.2226,72
29.2597,59
29.2969,72
29.3340,54
29.3712,65
29.4083,71
29.4455,70
29.4826,66
29.5198,49
29.5569,53
29.5941,56
29.6312,63
29.6684,46
29.7055,53
29.7427,69
29.7799,59
29.8170,67
29.8542,62
29.8913,70
29.9285,51
29.9656,58
30.0028,58
30.0399,51
30.0771,58
30.1142,64
30.1514,54
30.1885,62
30.2257,52
30.2628,70
30.3000,68
30.3371,62
30.3743,118
30.4114,120
30.4486,111
30.4857,78
30.5229,48
30.5600,48
30.5972,66
30.6343,58
30.6715,43
30.7086,41
30.7458,68
30.7829,58
30.8201,60
30.8572,53
30.8944,48
30.9315,56
30.9687,36
31.0058,50
31.0430,58
31.0801,63
31.1173,62
31.1544,52
31.1916,54
31.2287,58
31.2659,48
31.3030,48
31.3402,53
31.3774,50
31.4145,50
31.4517,53
31.4888,52
31.5260,55
31.5631,64
31.6003,53
31.6374,52
31.6746,46
31.7117,43
31.7489,46
31.7860,55
31.8232,39
31.8603,45
31.8975,52
31.9346,56
31.9718,47
32.0089,42
32.0461,49
32.0832,46
32.1204,48
32.1575,53
32.1947,40
32.2318,45
32.2690,58
32.3061,57
32.3433,54
32.3804,67
32.4176,46
32.4547,55
32.4919,65
32.5290,47
32.5662,50
32.6033,48
32.6405,51
32.6776,54
32.7148,48
32.7519,55
32.7891,37
32.8262,49
32.8634,43
32.9006,50
32.9377,57
32.9749,47
33.0120,45
33.0492,49
33.0863,44
33.1235,42
33.1606,44
33.1978,40
33.2349,57
33.2721,59
33.3092,37
33.3464,37
33.3835,40
33.4207,33
33.4578,40
33.4950,38
33.5321,35
33.5693,43
33.6064,35
33.6436,39
33.6807,50
33.7179,35
33.7550,44
33.7922,45
33.8293,26
33.8665,40
33.9036,34
33.9408,41
33.9779,43
34.0151,45
34.0522,52
34.0894,32
34.1265,38
34.1637,39
34.2008,38
34.2380,34
34.2751,44
34.3123,36
34.3494,41
34.3866,37
34.4238,33
34.4609,41
34.4981,40
34.5352,40
34.5724,44
34.6095,47
34.6467,51
34.6838,45
34.7210,34
34.7581,61
34.7953,69
34.8324,48
34.8696,51
34.9067,49
34.9439,41
34.9810,44
35.0182,39
35.0553,44
35.0925,42
35.1296,37
35.1668,35
35.2039,37
35.2411,30
35.2782,36
35.3154,34
35.3525,42
35.3897,44
35.4268,30
35.4640,49
35.5011,37
35.5383,47
35.5754,34
35.6126,34
35.6497,40
35.6869,33
35.7240,45
35.7612,45
35.7983,47
35.8355,37
35.8726,26
35.9098,43
35.9469,49
35.9841,34
36.0213,39
36.0584,31
36.0956,33
36.1327,38
36.1699,43
36.2070,37
36.2442,37
36.2813,31
36.3185,31
36.3556,42
36.3928,40
36.4299,32
36.4671,32
36.5042,39
36.5414,36
36.5785,26
36.6157,38
36.6528,31
36.6900,31
36.7271,31
36.7643,46
36.8014,38
36.8386,36
36.8757,34
36.9129,40
36.9500,28
36.9872,29
37.0243,33
37.0615,33
37.0986,34
37.1358,35
37.1729,37
37.2101,25
37.2472,31
37.2844,39
37.3215,40
37.3587,34
37.3958,34
37.4330,59
37.4701,42
37.5073,31
37.5445,40
37.5816,38
37.6188,32
37.6559,40
37.6931,47
37.7302,29
37.7674,45
37.8045,51
37.8417,33
37.8788,30
37.9160,44
37.9531,26
37.9903,24
38.0274,29
38.0646,41
38.1017,32
38.1389,31
38.1760,25
38.2132,36
38.2503,27
38.2875,32
38.3246,36
38.3618,38
38.3989,43
38.4361,31
38.4732,26
38.5104,29
38.5475,33
38.5847,28
38.6218,28
38.6590,31
38.6961,32
38.7333,27
38.7704,34
38.8076,42
38.8447,22
38.8819,29
38.9190,30
38.9562,19
38.9933,41
39.0305,31
39.0677,34
39.1048,30
39.1420,25
39.1791,19
39.2163,30
39.2534,23
39.2906,24
39.3277,30
39.3649,27
39.4020,42
39.4392,26
39.4763,34
39.5135,26
39.5506,33
39.5878,33
39.6249,38
39.6621,30
39.6992,28
39.7364,36
39.7735,31
39.8107,21
39.8478,32
39.8850,28
39.9221,31
39.9593,29
39.9964,24
40.0336,30
40.0707,30
40.1079,26
40.1450,37
40.1822,22
40.2193,32
40.2565,32
40.2936,34
40.3308,30
40.3679,26
40.4051,26
40.4422,18
40.4794,29
40.5165,22
40.5537,36
40.5908,28
40.6280,35
40.6652,20
40.7023,25
40.7395,31
40.7766,31
40.8138,30
40.8509,24
40.8881,30
40.9252,31
40.9624,37
40.9995,28
41.0367,31
41.0738,37
41.1110,30
41.1481,34
41.1853,34
41.2224,23
41.2596,35
41.2967,31
41.3339,18
41.3710,18
41.4082,27
41.4453,30
41.4825,28
41.5196,23
41.5568,25
41.5939,26
41.6311,30
41.6682,32
41.7054,22
41.7425,24
41.7797,29
41.8168,27
41.8540,33
41.8911,30
41.9283,22
41.9654,29
42.0026,31
42.0397,29
42.0769,21
42.1140,30
42.1512,29
42.1884,32
42.2255,30
42.2627,27
42.2998,33
42.3370,23
42.3741,15
42.4113,26
42.4484,20
42.4856,32
42.5227,16
42.5599,26
42.5970,26
42.6342,21
42.6713,31
42.7085,34
42.7456,26
42.7828,27
42.8199,30
42.8571,32
42.8942,33
42.9314,28
42.9685,33
43.0057,26
43.0428,22
43.0800,32
43.1171,24
43.1543,25
43.1914,30
43.2286,33
43.2657,35
43.3029,27
43.3400,28
43.3772,20
43.4143,37
43.4515,27
43.4886,41
43.5258,46
43.5629,38
43.6001,40
43.6372,47
43.6744,38
43.7116,25
43.7487,26
43.7859,23
43.8230,25
43.8602,23
43.8973,20
43.9345,26
43.9716,22
44.0088,28
44.0459,25
44.0831,20
44.1202,20
44.1574,27
44.1945,25
44.2317,33
44.2688,29
44.3060,25
44.3431,35
44.3803,32
44.4174,27
44.4546,13
44.4917,25
44.5289,20
44.5660,36
44.6032,29
44.6403,22
44.6775,31
44.7146,29
44.7518,24
44.7889,13
44.8261,22
44.8632,20
44.9004,36
44.9375,21
44.9747,28
45.0118,24
45.0490,16
45.0861,29
45.1233,19
45.1604,24
45.1976,30
45.2347,26
45.2719,24
45.3091,25
45.3462,20
45.3834,23
45.4205,24
45.4577,33
45.4948,32
45.5320,30
45.5691,22
45.6063,21
45.6434,23
45.6806,24
45.7177,25
45.7549,27
45.7920,25
45.8292,27
45.8663,21
45.9035,24
45.9406,23
45.9778,21
46.0149,24
46.0521,20
46.0892,21
46.1264,20
46.1635,25
46.2007,33
46.2378,19
46.2750,24
46.3121,24
46.3493,23
46.3864,21
46.4236,26
46.4607,22
46.4979,14
46.5350,28
46.5722,32
46.6093,24
46.6465,27
46.6836,22
46.7208,28
46.7579,25
46.7951,28
46.8323,25
46.8694,19
46.9066,27
46.9437,24
46.9809,27
47.0180,21
47.0552,21
47.0923,22
47.1295,22
47.1666,26
47.2038,22
47.2409,25
47.2781,25
47.3152,21
47.3524,16
47.3895,29
47.4267,28
47.4638,24
47.5010,22
47.5381,29
47.5753,23
47.6124,20
47.6496,19
47.6867,24
47.7239,29
47.7610,29
47.7982,25
47.8353,18
47.8725,26
47.9096,23
47.9468,22
47.9839,23
48.0211,18
48.0582,10
48.0954,25
48.1325,31
48.1697,18
48.2068,19
48.2440,27
48.2811,22
48.3183,29
48.3555,15
48.3926,21
48.4298,22
48.4669,25
48.5041,27
48.5412,28
48.5784,27
48.6155,20
48.6527,31
48.6898,25
48.7270,32
48.7641,21
48.8013,19
48.8384,18
48.8756,28
48.9127,26
48.9499,56
48.9870,33
49.0242,24
49.0613,32
49.0985,35
49.1356,21
49.1728,21
49.2099,26
49.2471,19
49.2842,18
49.3214,23
49.3585,28
49.3957,27
49.4328,24
49.4700,22
49.5071,30
49.5443,28
49.5814,22
49.6186,25
49.6557,24
49.6929,25
49.7300,17
49.7672,29
49.8043,24
49.8415,24
49.8786,20
49.9158,34
49.9530,33
49.9901,17
50.0273,20
50.0644,19
50.1016,28
50.1387,23
50.1759,19
50.2130,27
50.2502,19
50.2873,19
50.3245,23
50.3616,28
50.3988,27
50.4359,17
50.4731,29
50.5102,16
50.5474,23
50.5845,25
50.6217,19
50.6588,24
50.6960,23
50.7331,24
50.7703,28
50.8074,27
50.8446,24
50.8817,31
50.9189,22
50.9560,20
50.9932,16
51.0303,18
51.0675,21
51.1046,17
51.1418,20
51.1789,17
51.2161,28
51.2532,25
51.2904,21
51.3275,20
51.3647,25
51.4018,25
51.4390,34
51.4762,32
51.5133,27
51.5505,21
51.5876,22
51.6248,20
51.6619,19
51.6991,19
51.7362,18
51.7734,27
51.8105,18
51.8477,21
51.8848,21
51.9220,24
51.9591,15
51.9963,20
52.0334,31
52.0706,20
52.1077,23
52.1449,20
52.1820,22
52.2192,18
52.2563,29
52.2935,14
52.3306,26
52.3678,21
52.4049,15
52.4421,11
52.4792,20
52.5164,16
52.5535,36
52.5907,24
52.6278,24
52.6650,24
52.7021,23
52.7393,21
52.7764,19
52.8136,19
52.8507,17
52.8879,21
52.9250,17
52.9622,30
52.9994,31
53.0365,16
53.0737,27
53.1108,27
53.1480,24
53.1851,20
53.2223,28
53.2594,16
53.2966,26
53.3337,17
53.3709,20
53.4080,28
53.4452,19
53.4823,14
53.5195,19
53.5566,24
53.5938,13
53.6309,20
53.6681,25
53.7052,28
53.7424,24
53.7795,20
53.8167,22
53.8538,29
53.8910,21
53.9281,25
53.9653,29
54.0024,29
54.0396,24
54.0767,37
54.1139,30
54.1510,29
54.1882,25
54.2253,19
54.2625,19
54.2996,26
54.3368,22
54.3739,15
54.4111,20
54.4482,21
54.4854,23
54.5225,19
54.5597,30
54.5969,12
54.6340,14
54.6712,17
54.7083,19
54.7455,17
54.7826,25
54.8198,11
54.8569,19
54.8941,18
54.9312,24
54.9684,28
55.0055,23
55.0427,13
55.0798,16
55.1170,14
55.1541,23
55.1913,21
55.2284,28
55.2656,24
55.3027,16
55.3399,26
55.3770,28
55.4142,24
55.4513,26
55.4885,21
55.5256,23
55.5628,20
55.5999,17
55.6371,19
55.6742,23
55.7114,28
55.7485,23
55.7857,18
55.8228,23
55.8600,29
55.8971,19
55.9343,17
55.9714,17
56.0086,18
56.0457,27
56.0829,25
56.1201,32
56.1572,20
56.1944,28
56.2315,24
56.2687,21
56.3058,21
56.3430,18
56.3801,27
56.4173,20
56.4544,14
56.4916,19
56.5287,21
56.5659,31
56.6030,17
56.6402,12
56.6773,22
56.7145,19
56.7516,23
56.7888,20
56.8259,31
56.8631,21
56.9002,23
56.9374,22
56.9745,19
57.0117,17
57.0488,23
57.0860,17
57.1231,24
57.1603,14
57.1974,23
57.2346,20
57.2717,17
57.3089,22
57.3460,18
57.3832,30
57.4203,18
57.4575,23
57.4946,23
57.5318,16
57.5689,18
57.6061,18
57.6433,20
57.6804,21
57.7176,23
57.7547,17
57.7919,21
57.8290,18
57.8662,25
57.9033,19
57.9405,19
57.9776,20
58.0148,23
58.0519,14
58.0891,22
58.1262,17
58.1634,17
58.2005,29
58.2377,21
58.2748,18
58.3120,20
58.3491,27
58.3863,18
58.4234,30
58.4606,11
58.4977,20
58.5349,23
58.5720,19
58.6092,19
58.6463,20
58.6835,13
58.7206,20
58.7578,20
58.7949,19
58.8321,20
58.8692,18
58.9064,25
58.9435,20
58.9807,24
59.0178,29
59.0550,21
59.0921,21
59.1293,18
59.1664,17
59.2036,18
59.2408,20
59.2779,17
59.3151,19
59.3522,21
59.3894,20
59.4265,18
59.4637,28
59.5008,22
59.5380,17
59.5751,15
59.6123,24
59.6494,20
59.6866,13
59.7237,19
59.7609,21
59.7980,14
59.8352,17
59.8723,21
59.9095,16
59.9466,20
59.9838,15
60.0024,17