File: notebooks/data/xrd_data/ML_20220718_13_SJD_4_LaB6-2min.csv
;,2THETA,
5.0000,130
5.0372,119
5.0743,138
5.1115,122
5.1486,125
5.1858,107
5.2229,126
5.2601,115
5.2972,108
5.3344,143
5.3715,131
5.4087,112
5.4458,121
5.4830,106
5.5201,103
5.5573,113
5.5944,129
5.6316,112
5.6687,103
5.7059,99
5.7430,103
5.7802,91
5.8173,119
5.8545,90
5.8916,101
5.9288,118
5.9659,107
6.0031,96
6.0402,113
6.0774,86
6.1145,93
6.1517,87
6.1888,102
6.2260,90
6.2631,84
6.3003,79
6.3374,87
6.3746,98
6.4117,80
6.4489,95
6.4860,88
6.5232,81
6.5604,93
6.5975,88
6.6347,86
6.6718,84
6.7090,82
6.7461,84
6.7833,72
6.8204,80
6.8576,78
6.8947,82
6.9319,79
6.9690,92
7.0062,85
7.0433,83
7.0805,91
7.1176,84
7.1548,85
7.1919,71
7.2291,81
7.2662,93
7.3034,80
7.3405,71
7.3777,75
7.4148,92
7.4520,75
7.4891,88
7.5263,85
7.5634,81
7.6006,76
7.6377,83
7.6749,76
7.7120,81
7.7492,102
7.7863,84
7.8235,84
7.8606,79
7.8978,93
7.9349,94
7.9721,102
8.0092,93
8.0464,95
8.0835,99
8.1207,91
8.1579,84
8.1950,79
8.2322,101
8.2693,109
8.3065,120
8.3436,76
8.3808,98
8.4179,90
8.4551,97
8.4922,99
8.5294,106
8.5665,108
8.6037,110
8.6408,98
8.6780,100
8.7151,98
8.7523,100
8.7894,98
8.8266,94
8.8637,113
8.9009,101
8.9380,119
8.9752,95
9.0123,113
9.0495,99
9.0866,117
9.1238,82
9.1609,124
9.1981,104
9.2352,93
9.2724,108
9.3095,106
9.3467,107
9.3838,109
9.4210,108
9.4581,100
9.4953,122
9.5324,121
9.5696,132
9.6067,119
9.6439,115
9.6811,99
9.7182,100
9.7554,109
9.7925,119
9.8297,111
9.8668,115
9.9040,128
9.9411,103
9.9783,138
10.0154,121
10.0526,130
10.0897,105
10.1269,134
10.1640,110
10.2012,110
10.2383,120
10.2755,110
10.3126,101
10.3498,143
10.3869,131
10.4241,111
10.4612,104
10.4984,126
10.5355,124
10.5727,119
10.6098,128
10.6470,129
10.6841,122
10.7213,107
10.7584,120
10.7956,124
10.8327,115
10.8699,140
10.9070,120
10.9442,129
10.9813,122
11.0185,133
11.0556,119
11.0928,127
11.1299,135
11.1671,127
11.2043,111
11.2414,101
11.2786,121
11.3157,120
11.3529,123
11.3900,117
11.4272,107
11.4643,118
11.5015,113
11.5386,114
11.5758,110
11.6129,100
11.6501,93
11.6872,115
11.7244,138
11.7615,131
11.7987,111
11.8358,110
11.8730,113
11.9101,111
11.9473,108
11.9844,101
12.0216,127
12.0587,115
12.0959,124
12.1330,109
12.1702,110
12.2073,104
12.2445,126
12.2816,114
12.3188,105
12.3559,129
12.3931,102
12.4302,114
12.4674,127
12.5045,127
12.5417,108
12.5788,126
12.6160,118
12.6531,100
12.6903,107
12.7274,92
12.7646,113
12.8018,101
12.8389,123
12.8761,97
12.9132,99
12.9504,115
12.9875,103
13.0247,86
13.0618,81
13.0990,83
13.1361,102
13.1733,89
13.2104,101
13.2476,98
13.2847,72
13.3219,106
13.3590,104
13.3962,96
13.4333,89
13.4705,95
13.5076,97
13.5448,101
13.5819,110
13.6191,84
13.6562,111
13.6934,81
13.7305,90
13.7677,91
13.8048,94
13.8420,88
13.8791,103
13.9163,85
13.9534,102
13.9906,88
14.0277,75
14.0649,86
14.1020,84
14.1392,106
14.1763,93
14.2135,94
14.2506,94
14.2878,98
14.3250,91
14.3621,104
14.3993,90
14.4364,77
14.4736,96
14.5107,96
14.5479,70
14.5850,78
14.6222,71
14.6593,84
14.6965,89
14.7336,97
14.7708,77
14.8079,91
14.8451,77
14.8822,90
14.9194,90
14.9565,96
14.9937,82
15.0308,82
15.0680,69
15.1051,68
15.1423,84
15.1794,81
15.2166,91
15.2537,89
15.2909,88
15.3280,79
15.3652,73
15.4023,86
15.4395,75
15.4766,75
15.5138,85
15.5509,78
15.5881,88
15.6252,84
15.6624,102
15.6995,71
15.7367,87
15.7738,72
15.8110,94
15.8482,87
15.8853,82
15.9225,74
15.9596,78
15.9968,82
16.0339,81
16.0711,92
16.1082,86
16.1454,79
16.1825,97
16.2197,71
16.2568,89
16.2940,76
16.3311,85
16.3683,91
16.4054,87
16.4426,94
16.4797,93
16.5169,89
16.5540,67
16.5912,73
16.6283,82
16.6655,71
16.7026,74
16.7398,73
16.7769,76
16.8141,93
16.8512,78
16.8884,80
16.9255,76
16.9627,80
16.9998,87
17.0370,89
17.0741,101
17.1113,66
17.1484,73
17.1856,87
17.2227,68
17.2599,75
17.2970,82
17.3342,80
17.3713,75
17.4085,83
17.4457,69
17.4828,71
17.5200,95
17.5571,75
17.5943,71
17.6314,64
17.6686,89
17.7057,86
17.7429,73
17.7800,87
17.8172,74
17.8543,81
17.8915,79
17.9286,63
17.9658,80
18.0029,90
18.0401,83
18.0772,91
18.1144,83
18.1515,94
18.1887,90
18.2258,72
18.2630,82
18.3001,90
18.3373,76
18.3744,94
18.4116,82
18.4487,81
18.4859,78
18.5230,93
18.5602,83
18.5973,77
18.6345,96
18.6716,92
18.7088,90
18.7459,80
18.7831,88
18.8202,86
18.8574,85
18.8945,87
18.9317,81
18.9689,74
19.0060,88
19.0432,82
19.0803,91
19.1175,85
19.1546,71
19.1918,81
19.2289,89
19.2661,86
19.3032,96
19.3404,64
19.3775,73
19.4147,87
19.4518,85
19.4890,81
19.5261,82
19.5633,73
19.6004,96
19.6376,88
19.6747,82
19.7119,88
19.7490,87
19.7862,82
19.8233,99
19.8605,97
19.8976,97
19.9348,91
19.9719,86
20.0091,93
20.0462,89
20.0834,103
20.1205,78
20.1577,85
20.1948,96
20.2320,95
20.2691,99
20.3063,103
20.3434,79
20.3806,98
20.4177,93
20.4549,92
20.4921,75
20.5292,82
20.5664,97
20.6035,101
20.6407,75
20.6778,96
20.7150,84
20.7521,104
20.7893,90
20.8264,87
20.8636,103
20.9007,107
20.9379,100
20.9750,102
21.0122,93
21.0493,92
21.0865,105
21.1236,116
21.1608,117
21.1979,137
21.2351,164
21.2722,139
21.3094,155
21.3465,238
21.3837,233
21.4208,189
21.4580,123
21.4951,115
21.5323,93
21.5694,85
21.6066,114
21.6437,94
21.6809,91
21.7180,97
21.7552,97
21.7923,106
21.8295,98
21.8666,100
21.9038,97
21.9409,108
21.9781,104
22.0152,81
22.0524,94
22.0896,118
22.1267,88
22.1639,100
22.2010,91
22.2382,90
22.2753,107
22.3125,95
22.3496,98
22.3868,94
22.4239,89
22.4611,98
22.4982,101
22.5354,90
22.5725,94
22.6097,107
22.6468,83
22.6840,97
22.7211,97
22.7583,86
22.7954,99
22.8326,83
22.8697,96
22.9069,98
22.9440,102
22.9812,98
23.0183,84
23.0555,83
23.0926,96
23.1298,120
23.1669,117
23.2041,99
23.2412,115
23.2784,98
23.3155,107
23.3527,85
23.3898,123
23.4270,111
23.4641,102
23.5013,95
23.5384,107
23.5756,93
23.6128,108
23.6499,93
23.6871,100
23.7242,95
23.7614,106
23.7985,106
23.8357,110
23.8728,87
23.9100,95
23.9471,108
23.9843,96
24.0214,91
24.0586,111
24.0957,97
24.1329,106
24.1700,103
24.2072,88
24.2443,99
24.2815,115
24.3186,89
24.3558,100
24.3929,103
24.4301,100
24.4672,110
24.5044,110
24.5415,83
24.5787,82
24.6158,93
24.6530,86
24.6901,114
24.7273,100
24.7644,97
24.8016,84
24.8387,107
24.8759,113
24.9130,84
24.9502,82
24.9873,82
25.0245,87
25.0616,102
25.0988,99
25.1360,100
25.1731,104
25.2103,108
25.2474,99
25.2846,94
25.3217,106
25.3589,87
25.3960,69
25.4332,104
25.4703,91
25.5075,94
25.5446,104
25.5818,92
25.6189,82
25.6561,79
25.6932,89
25.7304,91
25.7675,103
25.8047,86
25.8418,108
25.8790,91
25.9161,105
25.9533,95
25.9904,101
26.0276,99
26.0647,89
26.1019,101
26.1390,80
26.1762,87
26.2133,106
26.2505,91
26.2876,106
26.3248,91
26.3619,100
26.3991,108
26.4362,89
26.4734,93
26.5105,86
26.5477,76
26.5848,93
26.6220,80
26.6591,93
26.6963,100
26.7335,85
26.7706,91
26.8078,85
26.8449,82
26.8821,88
26.9192,94
26.9564,95
26.9935,97
27.0307,87
27.0678,90
27.1050,88
27.1421,102
27.1793,110
27.2164,123
27.2536,128
27.2907,120
27.3279,75
27.3650,91
27.4022,106
27.4393,93
27.4765,81
27.5136,97
27.5508,82
27.5879,96
27.6251,100
27.6622,89
27.6994,91
27.7365,98
27.7737,85
27.8108,97
27.8480,87
27.8851,69
27.9223,74
27.9594,86
27.9966,87
28.0337,86
28.0709,63
28.1080,86
28.1452,85
28.1823,60
28.2195,70
28.2567,64
28.2938,82
28.3310,75
28.3681,78
28.4053,92
28.4424,74
28.4796,83
28.5167,79
28.5539,83
28.5910,69
28.6282,84
28.6653,73
28.7025,80
28.7396,71
28.7768,84
28.8139,80
28.8511,77
28.8882,78
28.9254,86
28.9625,68
28.9997,87
29.0368,62
29.0740,81
29.1111,80
29.1483,74
29.1854,90
29.2226,86
29.2597,76
29.2969,90
29.3340,70
29.3712,83
29.4083,80
29.4455,70
29.4826,79
29.5198,88
29.5569,67
29.5941,85
29.6312,89
29.6684,83
29.7055,83
29.7427,73
29.7799,73
29.8170,65
29.8542,93
29.8913,73
29.9285,64
29.9656,96
30.0028,69
30.0399,74
30.0771,74
30.1142,81
30.1514,69
30.1885,86
30.2257,97
30.2628,91
30.3000,81
30.3371,123
30.3743,173
30.4114,121
30.4486,110
30.4857,97
30.5229,90
30.5600,67
30.5972,84
30.6343,82
30.6715,69
30.7086,83
30.7458,84
30.7829,66
30.8201,72
30.8572,61
30.8944,70
30.9315,78
30.9687,83
31.0058,83
31.0430,67
31.0801,80
31.1173,55
31.1544,77
31.1916,63
31.2287,71
31.2659,73
31.3030,62
31.3402,58
31.3774,66
31.4145,70
31.4517,58
31.4888,64
31.5260,78
31.5631,62
31.6003,56
31.6374,84
31.6746,61
31.7117,61
31.7489,61
31.7860,65
31.8232,66
31.8603,76
31.8975,64
31.9346,70
31.9718,84
32.0089,68
32.0461,61
32.0832,72
32.1204,67
32.1575,59
32.1947,83
32.2318,58
32.2690,74
32.3061,74
32.3433,60
32.3804,74
32.4176,68
32.4547,70
32.4919,74
32.5290,85
32.5662,62
32.6033,63
32.6405,74
32.6776,65
32.7148,65
32.7519,65
32.7891,67
32.8262,55
32.8634,75
32.9006,53
32.9377,55
32.9749,51
33.0120,60
33.0492,59
33.0863,60
33.1235,66
33.1606,71
33.1978,80
33.2349,61
33.2721,60
33.3092,69
33.3464,41
33.3835,58
33.4207,58
33.4578,71
33.4950,53
33.5321,68
33.5693,63
33.6064,67
33.6436,57
33.6807,57
33.7179,56
33.7550,49
33.7922,43
33.8293,58
33.8665,55
33.9036,53
33.9408,70
33.9779,60
34.0151,69
34.0522,57
34.0894,56
34.1265,57
34.1637,61
34.2008,57
34.2380,60
34.2751,58
34.3123,55
34.3494,55
34.3866,71
34.4238,57
34.4609,50
34.4981,54
34.5352,61
34.5724,58
34.6095,55
34.6467,66
34.6838,60
34.7210,64
34.7581,75
34.7953,83
34.8324,65
34.8696,66
34.9067,57
34.9439,67
34.9810,52
35.0182,61
35.0553,66
35.0925,49
35.1296,47
35.1668,70
35.2039,54
35.2411,48
35.2782,46
35.3154,56
35.3525,49
35.3897,57
35.4268,55
35.4640,47
35.5011,43
35.5383,68
35.5754,34
35.6126,50
35.6497,52
35.6869,40
35.7240,61
35.7612,50
35.7983,53
35.8355,40
35.8726,46
35.9098,62
35.9469,37
35.9841,47
36.0213,60
36.0584,38
36.0956,61
36.1327,49
36.1699,55
36.2070,62
36.2442,44
36.2813,36
36.3185,63
36.3556,51
36.3928,48
36.4299,46
36.4671,64
36.5042,34
36.5414,42
36.5785,51
36.6157,37
36.6528,46
36.6900,54
36.7271,46
36.7643,54
36.8014,47
36.8386,50
36.8757,46
36.9129,54
36.9500,48
36.9872,45
37.0243,56
37.0615,35
37.0986,57
37.1358,45
37.1729,41
37.2101,39
37.2472,47
37.2844,46
37.3215,48
37.3587,54
37.3958,59
37.4330,79
37.4701,70
37.5073,39
37.5445,65
37.5816,54
37.6188,52
37.6559,40
37.6931,46
37.7302,45
37.7674,38
37.8045,35
37.8417,43
37.8788,37
37.9160,42
37.9531,34
37.9903,52
38.0274,52
38.0646,35
38.1017,33
38.1389,41
38.1760,51
38.2132,42
38.2503,47
38.2875,40
38.3246,39
38.3618,38
38.3989,48
38.4361,43
38.4732,32
38.5104,32
38.5475,47
38.5847,49
38.6218,41
38.6590,55
38.6961,35
38.7333,42
38.7704,32
38.8076,40
38.8447,46
38.8819,36
38.9190,44
38.9562,42
38.9933,37
39.0305,42
39.0677,35
39.1048,41
39.1420,39
39.1791,30
39.2163,62
39.2534,40
39.2906,46
39.3277,39
39.3649,43
39.4020,44
39.4392,35
39.4763,30
39.5135,37
39.5506,44
39.5878,42
39.6249,39
39.6621,31
39.6992,37
39.7364,41
39.7735,43
39.8107,38
39.8478,33
39.8850,36
39.9221,48
39.9593,47
39.9964,44
40.0336,37
40.0707,33
40.1079,35
40.1450,36
40.1822,47
40.2193,32
40.2565,35
40.2936,32
40.3308,30
40.3679,44
40.4051,34
40.4422,31
40.4794,39
40.5165,41
40.5537,34
40.5908,33
40.6280,31
40.6652,41
40.7023,60
40.7395,40
40.7766,40
40.8138,26
40.8509,39
40.8881,35
40.9252,31
40.9624,42
40.9995,34
41.0367,30
41.0738,39
41.1110,37
41.1481,37
41.1853,33
41.2224,33
41.2596,39
41.2967,51
41.3339,40
41.3710,41
41.4082,34
41.4453,41
41.4825,29
41.5196,34
41.5568,41
41.5939,43
41.6311,38
41.6682,36
41.7054,30
41.7425,40
41.7797,34
41.8168,28
41.8540,33
41.8911,28
41.9283,29
41.9654,44
42.0026,38
42.0397,39
42.0769,39
42.1140,37
42.1512,35
42.1884,29
42.2255,40
42.2627,30
42.2998,42
42.3370,39
42.3741,47
42.4113,30
42.4484,37
42.4856,34
42.5227,43
42.5599,31
42.5970,36
42.6342,31
42.6713,36
42.7085,27
42.7456,42
42.7828,41
42.8199,47
42.8571,37
42.8942,24
42.9314,43
42.9685,38
43.0057,46
43.0428,31
43.0800,41
43.1171,41
43.1543,49
43.1914,49
43.2286,47
43.2657,45
43.3029,49
43.3400,39
43.3772,40
43.4143,46
43.4515,46
43.4886,63
43.5258,48
43.5629,28
43.6001,40
43.6372,50
43.6744,37
43.7116,39
43.7487,40
43.7859,50
43.8230,41
43.8602,39
43.8973,30
43.9345,37
43.9716,36
44.0088,37
44.0459,27
44.0831,33
44.1202,44
44.1574,19
44.1945,53
44.2317,44
44.2688,41
44.3060,34
44.3431,38
44.3803,30
44.4174,46
44.4546,38
44.4917,44
44.5289,40
44.5660,44
44.6032,41
44.6403,39
44.6775,43
44.7146,41
44.7518,39
44.7889,27
44.8261,32
44.8632,42
44.9004,32
44.9375,34
44.9747,32
45.0118,37
45.0490,32
45.0861,37
45.1233,29
45.1604,28
45.1976,32
45.2347,31
45.2719,42
45.3091,32
45.3462,36
45.3834,49
45.4205,21
45.4577,32
45.4948,44
45.5320,21
45.5691,31
45.6063,38
45.6434,28
45.6806,37
45.7177,27
45.7549,37
45.7920,44
45.8292,34
45.8663,32
45.9035,23
45.9406,35
45.9778,41
46.0149,40
46.0521,38
46.0892,30
46.1264,22
46.1635,38
46.2007,27
46.2378,38
46.2750,19
46.3121,15
46.3493,34
46.3864,28
46.4236,37
46.4607,38
46.4979,24
46.5350,30
46.5722,24
46.6093,33
46.6465,28
46.6836,28
46.7208,32
46.7579,39
46.7951,33
46.8323,28
46.8694,40
46.9066,26
46.9437,37
46.9809,43
47.0180,41
47.0552,42
47.0923,33
47.1295,24
47.1666,34
47.2038,28
47.2409,27
47.2781,29
47.3152,37
47.3524,29
47.3895,24
47.4267,38
47.4638,30
47.5010,32
47.5381,34
47.5753,27
47.6124,35
47.6496,32
47.6867,30
47.7239,37
47.7610,38
47.7982,37
47.8353,38
47.8725,31
47.9096,33
47.9468,30
47.9839,27
48.0211,43
48.0582,22
48.0954,31
48.1325,28
48.1697,34
48.2068,31
48.2440,24
48.2811,40
48.3183,32
48.3555,34
48.3926,27
48.4298,37
48.4669,39
48.5041,28
48.5412,34
48.5784,31
48.6155,28
48.6527,28
48.6898,31
48.7270,32
48.7641,30
48.8013,29
48.8384,37
48.8756,30
48.9127,46
48.9499,53
48.9870,55
49.0242,39
49.0613,40
49.0985,45
49.1356,39
49.1728,36
49.2099,27
49.2471,44
49.2842,36
49.3214,33
49.3585,36
49.3957,40
49.4328,32
49.4700,23
49.5071,38
49.5443,36
49.5814,35
49.6186,24
49.6557,29
49.6929,24
49.7300,28
49.7672,32
49.8043,25
49.8415,36
49.8786,31
49.9158,39
49.9530,32
49.9901,30
50.0273,31
50.0644,32
50.1016,34
50.1387,35
50.1759,31
50.2130,34
50.2502,30
50.2873,27
50.3245,33
50.3616,25
50.3988,32
50.4359,33
50.4731,37
50.5102,28
50.5474,27
50.5845,31
50.6217,28
50.6588,29
50.6960,24
50.7331,31
50.7703,42
50.8074,21
50.8446,30
50.8817,26
50.9189,34
50.9560,36
50.9932,24
51.0303,34
51.0675,28
51.1046,44
51.1418,34
51.1789,31
51.2161,34
51.2532,31
51.2904,31
51.3275,28
51.3647,40
51.4018,25
51.4390,37
51.4762,33
51.5133,39
51.5505,27
51.5876,33
51.6248,25
51.6619,31
51.6991,29
51.7362,29
51.7734,27
51.8105,31
51.8477,42
51.8848,32
51.9220,41
51.9591,28
51.9963,38
52.0334,37
52.0706,27
52.1077,36
52.1449,21
52.1820,36
52.2192,29
52.2563,27
52.2935,34
52.3306,25
52.3678,25
52.4049,28
52.4421,23
52.4792,32
52.5164,23
52.5535,26
52.5907,25
52.6278,30
52.6650,31
52.7021,26
52.7393,38
52.7764,18
52.8136,25
52.8507,27
52.8879,24
52.9250,26
52.9622,34
52.9994,35
53.0365,23
53.0737,28
53.1108,24
53.1480,27
53.1851,40
53.2223,30
53.2594,29
53.2966,23
53.3337,34
53.3709,28
53.4080,28
53.4452,23
53.4823,36
53.5195,38
53.5566,25
53.5938,24
53.6309,24
53.6681,21
53.7052,22
53.7424,27
53.7795,29
53.8167,28
53.8538,33
53.8910,28
53.9281,35
53.9653,46
54.0024,44
54.0396,42
54.0767,38
54.1139,30
54.1510,29
54.1882,40
54.2253,34
54.2625,21
54.2996,26
54.3368,29
54.3739,31
54.4111,31
54.4482,26
54.4854,36
54.5225,35
54.5597,22
54.5969,33
54.6340,36
54.6712,28
54.7083,23
54.7455,32
54.7826,28
54.8198,27
54.8569,31
54.8941,27
54.9312,34
54.9684,23
55.0055,27
55.0427,38
55.0798,29
55.1170,31
55.1541,36
55.1913,32
55.2284,32
55.2656,18
55.3027,30
55.3399,32
55.3770,20
55.4142,34
55.4513,36
55.4885,25
55.5256,26
55.5628,27
55.5999,26
55.6371,23
55.6742,33
55.7114,31
55.7485,25
55.7857,21
55.8228,24
55.8600,24
55.8971,27
55.9343,36
55.9714,27
56.0086,31
56.0457,33
56.0829,29
56.1201,30
56.1572,35
56.1944,36
56.2315,34
56.2687,25
56.3058,30
56.3430,30
56.3801,32
56.4173,27
56.4544,29
56.4916,35
56.5287,23
56.5659,37
56.6030,27
56.6402,21
56.6773,20
56.7145,30
56.7516,29
56.7888,34
56.8259,34
56.8631,24
56.9002,30
56.9374,26
56.9745,29
57.0117,20
57.0488,28
57.0860,35
57.1231,26
57.1603,36
57.1974,30
57.2346,22
57.2717,22
57.3089,22
57.3460,32
57.3832,29
57.4203,32
57.4575,25
57.4946,17
57.5318,32
57.5689,17
57.6061,27
57.6433,27
57.6804,32
57.7176,31
57.7547,23
57.7919,29
57.8290,29
57.8662,30
57.9033,28
57.9405,30
57.9776,31
58.0148,23
58.0519,23
58.0891,19
58.1262,29
58.1634,26
58.2005,41
58.2377,29
58.2748,22
58.3120,28
58.3491,30
58.3863,26
58.4234,25
58.4606,21
58.4977,36
58.5349,20
58.5720,30
58.6092,23
58.6463,22
58.6835,31
58.7206,31
58.7578,21
58.7949,23
58.8321,23
58.8692,28
58.9064,29
58.9435,24
58.9807,25
59.0178,27
59.0550,23
59.0921,23
59.1293,30
59.1664,22
59.2036,23
59.2408,31
59.2779,20
59.3151,36
59.3522,32
59.3894,26
59.4265,29
59.4637,29
59.5008,32
59.5380,30
59.5751,33
59.6123,24
59.6494,27
59.6866,18
59.7237,33
59.7609,21
59.7980,22
59.8352,34
59.8723,20
59.9095,20
59.9466,32
59.9838,30
60.0024,28