File: notebooks/data/xrd_data/ML_20220720_5_SJD_4_LaB6-1min.uxd
; (content of file Y:\Sam\Apurva-07-20-2022\puck4\ML_20220718_5_SJD_0_LaB6-1min.raw)
_FILEVERSION = 3
_SAMPLE = ML_20220718_5_SJD_0_LaB6-1mi
_+SAMPLE =
_SITE = USA
_USER = Administrator
_GONIOMETER_CODE = 20
; Goniometer : D8 theta/2theta, stage : Unknown
_ATTACHMENTS_CODE = 0
_GONIOMETER_RADIUS = 200.5
_FIXED_DIVSLIT = 0.6
_FIXED_SAMPLESLIT = 0
_SOLLER_SLITS = 2
_FIXED_DETSLIT = 9.55
_MONOCHROMATOR = 0
; Incident beam monochromator : None
_SOLLER_SLITS_2 = N
_THIN_FILM = N
_BETA_FILTER = Y
_FIXED_ANTISLIT = 5.89
_ANALYZER_CODE = 0
; Received beam analyzer : None
_DATEMEASURED = "21-Jul-2022 03:08:03"
_WL_UNIT = A
_WL1 = 1.5406
_WL2 = 1.54439
_WL3 = 1.39222
_WLRATIO = 0.5
_ANODE = Cu
_V4_INF_CREATOR = XRDWizard
_V4_INF_CREATOR_VERSION = V2.9.0.22
_V4_INF_WIZARD_VERSION = V2.9.0.22
_V4_INF_WIZARD_ADDINS = V2.9.0.22
_V4_INF_WIZARD_DOCTYPE = XRD
_V4_INF_OSUSER = McQueenLab
_V4_INF_USER = Administrator
_V4_INF_SITE = USA
_V4_INF_SAMPLEID = ML_20220718_5_SJD_0_LaB6-1mi

; Data for range 1
_DRIVE = COUPLED
_STEPTIME = 4.23
_STEPSIZE = 0.0185756
_STEPMODE = C
_START = 5
_THETA = 2.5
_2THETA = 5
_KHI = 0
_PHI = 0
_X = 0
_Y = 0
_Z = 0
_DETECTOR = 5
; Detector type : Unknown
_DETECTORSLIT = unkn
_AUX1 = 0
_AUX2 = 0
_AUX3 = 0
_TIMESTARTED = 15
_TEMP_RATE = -1
_TEMP_DELAY = -1
_KV = 40
_MA = 40
_RANGE_WL = 1.5406
_3DPLANE = 0
_V4_ADDITIONALDETECTOR = 257
_V4_PSD2THETA = 3.3736
_V4_PSDCHANNEL1 = 0
_V4_PSDAPERTURE = 12.68
_V4_PSDTYPE = 5
_V4_PSDFIXED = 0
_V4_COUNTERS_MASK = 4096
_V4_DRIVES_MASK = 0
_V4_ENCODERS_MASK = 0
_2THETACOUNTS = 1
; 2THETA  PSD
   5.0000         88
   5.0372        104
   5.0743         89
   5.1115         84
   5.1486         88
   5.1858         99
   5.2229        101
   5.2601         87
   5.2972         75
   5.3344         76
   5.3715         77
   5.4087         74
   5.4458         97
   5.4830         73
   5.5201         71
   5.5573         79
   5.5944         83
   5.6316         69
   5.6687         88
   5.7059         80
   5.7430         80
   5.7802         57
   5.8173         75
   5.8545         77
   5.8916         75
   5.9288         75
   5.9659         60
   6.0031         75
   6.0402         69
   6.0774         68
   6.1145         60
   6.1517         70
   6.1888         64
   6.2260         67
   6.2631         75
   6.3003         68
   6.3374         50
   6.3746         73
   6.4117         75
   6.4489         69
   6.4860         62
   6.5232         50
   6.5604         62
   6.5975         68
   6.6347         61
   6.6718         55
   6.7090         62
   6.7461         69
   6.7833         65
   6.8204         77
   6.8576         57
   6.8947         67
   6.9319         59
   6.9690         69
   7.0062         56
   7.0433         70
   7.0805         56
   7.1176         58
   7.1548         60
   7.1919         53
   7.2291         48
   7.2662         52
   7.3034         59
   7.3405         56
   7.3777         57
   7.4148         62
   7.4520         68
   7.4891         69
   7.5263         69
   7.5634         56
   7.6006         69
   7.6377         60
   7.6749         59
   7.7120         65
   7.7492         53
   7.7863         65
   7.8235         62
   7.8606         67
   7.8978         39
   7.9349         67
   7.9721         64
   8.0092         66
   8.0464         79
   8.0835         73
   8.1207         49
   8.1579         69
   8.1950         74
   8.2322         67
   8.2693         67
   8.3065         64
   8.3436         70
   8.3808         82
   8.4179         73
   8.4551         69
   8.4922         72
   8.5294         67
   8.5665         66
   8.6037         76
   8.6408         64
   8.6780         64
   8.7151         65
   8.7523         71
   8.7894         77
   8.8266         77
   8.8637         66
   8.9009         74
   8.9380         68
   8.9752         74
   9.0123         60
   9.0495         88
   9.0866         81
   9.1238         89
   9.1609         86
   9.1981         79
   9.2352         85
   9.2724         83
   9.3095         72
   9.3467         79
   9.3838         75
   9.4210         64
   9.4581         64
   9.4953         73
   9.5324         78
   9.5696         70
   9.6067         85
   9.6439         97
   9.6811         83
   9.7182         79
   9.7554         90
   9.7925         70
   9.8297         85
   9.8668         90
   9.9040        111
   9.9411         69
   9.9783         69
  10.0154         76
  10.0526         86
  10.0897         81
  10.1269         87
  10.1640         81
  10.2012         83
  10.2383         85
  10.2755         86
  10.3126         87
  10.3498         70
  10.3869        100
  10.4241         90
  10.4612         85
  10.4984         79
  10.5355         60
  10.5727         91
  10.6098         85
  10.6470         99
  10.6841         96
  10.7213         98
  10.7584         89
  10.7956         78
  10.8327         91
  10.8699         73
  10.9070         78
  10.9442         90
  10.9813         80
  11.0185         85
  11.0556         94
  11.0928         82
  11.1299         81
  11.1671         74
  11.2043         82
  11.2414         89
  11.2786         73
  11.3157         83
  11.3529         70
  11.3900         74
  11.4272         73
  11.4643         77
  11.5015         85
  11.5386         92
  11.5758         88
  11.6129         93
  11.6501         87
  11.6872         76
  11.7244         79
  11.7615         77
  11.7987         88
  11.8358         74
  11.8730         96
  11.9101         82
  11.9473         85
  11.9844         76
  12.0216         87
  12.0587         83
  12.0959         68
  12.1330         76
  12.1702         72
  12.2073         79
  12.2445         73
  12.2816         70
  12.3188         78
  12.3559         69
  12.3931         79
  12.4302         72
  12.4674         74
  12.5045         72
  12.5417         62
  12.5788         77
  12.6160         80
  12.6531         79
  12.6903         81
  12.7274         62
  12.7646         66
  12.8018         71
  12.8389         78
  12.8761         61
  12.9132         75
  12.9504         75
  12.9875         72
  13.0247         66
  13.0618         74
  13.0990         67
  13.1361         65
  13.1733         74
  13.2104         72
  13.2476         57
  13.2847         78
  13.3219         65
  13.3590         64
  13.3962         68
  13.4333         73
  13.4705         56
  13.5076         79
  13.5448         65
  13.5819         73
  13.6191         60
  13.6562         73
  13.6934         70
  13.7305         72
  13.7677         69
  13.8048         65
  13.8420         65
  13.8791         72
  13.9163         57
  13.9534         59
  13.9906         60
  14.0277         66
  14.0649         71
  14.1020         69
  14.1392         60
  14.1763         63
  14.2135         59
  14.2506         58
  14.2878         61
  14.3250         52
  14.3621         52
  14.3993         65
  14.4364         77
  14.4736         63
  14.5107         53
  14.5479         47
  14.5850         69
  14.6222         54
  14.6593         56
  14.6965         70
  14.7336         65
  14.7708         61
  14.8079         52
  14.8451         68
  14.8822         62
  14.9194         64
  14.9565         86
  14.9937         55
  15.0308         59
  15.0680         56
  15.1051         62
  15.1423         67
  15.1794         69
  15.2166         65
  15.2537         68
  15.2909         66
  15.3280         62
  15.3652         49
  15.4023         65
  15.4395         58
  15.4766         51
  15.5138         50
  15.5509         66
  15.5881         51
  15.6252         59
  15.6624         68
  15.6995         58
  15.7367         70
  15.7738         62
  15.8110         47
  15.8482         58
  15.8853         54
  15.9225         56
  15.9596         65
  15.9968         58
  16.0339         61
  16.0711         61
  16.1082         66
  16.1454         68
  16.1825         67
  16.2197         55
  16.2568         79
  16.2940         68
  16.3311         62
  16.3683         73
  16.4054         61
  16.4426         63
  16.4797         73
  16.5169         58
  16.5540         46
  16.5912         64
  16.6283         49
  16.6655         58
  16.7026         59
  16.7398         56
  16.7769         59
  16.8141         63
  16.8512         58
  16.8884         67
  16.9255         61
  16.9627         60
  16.9998         60
  17.0370         46
  17.0741         70
  17.1113         69
  17.1484         72
  17.1856         58
  17.2227         55
  17.2599         66
  17.2970         56
  17.3342         55
  17.3713         61
  17.4085         53
  17.4457         54
  17.4828         66
  17.5200         65
  17.5571         55
  17.5943         55
  17.6314         60
  17.6686         53
  17.7057         54
  17.7429         60
  17.7800         43
  17.8172         59
  17.8543         59
  17.8915         71
  17.9286         52
  17.9658         62
  18.0029         57
  18.0401         52
  18.0772         62
  18.1144         64
  18.1515         61
  18.1887         57
  18.2258         59
  18.2630         61
  18.3001         60
  18.3373         59
  18.3744         52
  18.4116         56
  18.4487         68
  18.4859         72
  18.5230         72
  18.5602         57
  18.5973         57
  18.6345         48
  18.6716         55
  18.7088         73
  18.7459         55
  18.7831         67
  18.8202         48
  18.8574         53
  18.8945         70
  18.9317         70
  18.9689         68
  19.0060         60
  19.0432         52
  19.0803         57
  19.1175         65
  19.1546         62
  19.1918         68
  19.2289         76
  19.2661         60
  19.3032         66
  19.3404         59
  19.3775         67
  19.4147         56
  19.4518         49
  19.4890         73
  19.5261         58
  19.5633         61
  19.6004         66
  19.6376         67
  19.6747         71
  19.7119         71
  19.7490         58
  19.7862         70
  19.8233         61
  19.8605         56
  19.8976         55
  19.9348         73
  19.9719         55
  20.0091         53
  20.0462         55
  20.0834         79
  20.1205         63
  20.1577         68
  20.1948         73
  20.2320         52
  20.2691         72
  20.3063         56
  20.3434         63
  20.3806         62
  20.4177         62
  20.4549         78
  20.4921         64
  20.5292         66
  20.5664         72
  20.6035         64
  20.6407         77
  20.6778         63
  20.7150         67
  20.7521         71
  20.7893         76
  20.8264         69
  20.8636         82
  20.9007         76
  20.9379         65
  20.9750         58
  21.0122         68
  21.0493         73
  21.0865         77
  21.1236         76
  21.1608         92
  21.1979        129
  21.2351        121
  21.2722         97
  21.3094        127
  21.3465        198
  21.3837        124
  21.4208        103
  21.4580         83
  21.4951         73
  21.5323         79
  21.5694         60
  21.6066         79
  21.6437         61
  21.6809         65
  21.7180         81
  21.7552         68
  21.7923         82
  21.8295         78
  21.8666         77
  21.9038         65
  21.9409         76
  21.9781         71
  22.0152         64
  22.0524         70
  22.0896         70
  22.1267         67
  22.1639         63
  22.2010         55
  22.2382         60
  22.2753         61
  22.3125         84
  22.3496         79
  22.3868         76
  22.4239         64
  22.4611         72
  22.4982         66
  22.5354         62
  22.5725         79
  22.6097         62
  22.6468         60
  22.6840         66
  22.7211         70
  22.7583         63
  22.7954         71
  22.8326         69
  22.8697         74
  22.9069         84
  22.9440         78
  22.9812         57
  23.0183         82
  23.0555         77
  23.0926         70
  23.1298         80
  23.1669         73
  23.2041         79
  23.2412         73
  23.2784         80
  23.3155         79
  23.3527         72
  23.3898         73
  23.4270         71
  23.4641         72
  23.5013         88
  23.5384         90
  23.5756         74
  23.6128         63
  23.6499         64
  23.6871         83
  23.7242         78
  23.7614         72
  23.7985         79
  23.8357         89
  23.8728         76
  23.9100         78
  23.9471         68
  23.9843         69
  24.0214         80
  24.0586         79
  24.0957         61
  24.1329         77
  24.1700         69
  24.2072         96
  24.2443         75
  24.2815         87
  24.3186         72
  24.3558         83
  24.3929         72
  24.4301         91
  24.4672         85
  24.5044         79
  24.5415         92
  24.5787         61
  24.6158         65
  24.6530         64
  24.6901         71
  24.7273         80
  24.7644         82
  24.8016         69
  24.8387         66
  24.8759         78
  24.9130         73
  24.9502         88
  24.9873         75
  25.0245         61
  25.0616         68
  25.0988         56
  25.1360         73
  25.1731         72
  25.2103         83
  25.2474         82
  25.2846         72
  25.3217         74
  25.3589         65
  25.3960         73
  25.4332         72
  25.4703         67
  25.5075         70
  25.5446         79
  25.5818         77
  25.6189         68
  25.6561         72
  25.6932         82
  25.7304         59
  25.7675         81
  25.8047         80
  25.8418         69
  25.8790         68
  25.9161         78
  25.9533         77
  25.9904         46
  26.0276         55
  26.0647         64
  26.1019         69
  26.1390         68
  26.1762         80
  26.2133         75
  26.2505         65
  26.2876         66
  26.3248         66
  26.3619         71
  26.3991         49
  26.4362         50
  26.4734         66
  26.5105         67
  26.5477         69
  26.5848         57
  26.6220         58
  26.6591         80
  26.6963         82
  26.7335         63
  26.7706         70
  26.8078         59
  26.8449         85
  26.8821         68
  26.9192         79
  26.9564         65
  26.9935         81
  27.0307         71
  27.0678         58
  27.1050         77
  27.1421         79
  27.1793         94
  27.2164         95
  27.2536        102
  27.2907         75
  27.3279         62
  27.3650         66
  27.4022         60
  27.4393         59
  27.4765         72
  27.5136         61
  27.5508         61
  27.5879         51
  27.6251         74
  27.6622         62
  27.6994         49
  27.7365         54
  27.7737         63
  27.8108         65
  27.8480         60
  27.8851         64
  27.9223         62
  27.9594         76
  27.9966         55
  28.0337         64
  28.0709         56
  28.1080         58
  28.1452         56
  28.1823         63
  28.2195         54
  28.2567         64
  28.2938         72
  28.3310         72
  28.3681         42
  28.4053         67
  28.4424         88
  28.4796         65
  28.5167         64
  28.5539         53
  28.5910         62
  28.6282         63
  28.6653         42
  28.7025         54
  28.7396         51
  28.7768         52
  28.8139         58
  28.8511         49
  28.8882         65
  28.9254         52
  28.9625         54
  28.9997         52
  29.0368         59
  29.0740         70
  29.1111         51
  29.1483         61
  29.1854         51
  29.2226         55
  29.2597         48
  29.2969         51
  29.3340         57
  29.3712         48
  29.4083         45
  29.4455         55
  29.4826         59
  29.5198         42
  29.5569         47
  29.5941         67
  29.6312         56
  29.6684         59
  29.7055         51
  29.7427         43
  29.7799         54
  29.8170         64
  29.8542         48
  29.8913         54
  29.9285         48
  29.9656         62
  30.0028         58
  30.0399         61
  30.0771         55
  30.1142         46
  30.1514         70
  30.1885         51
  30.2257         60
  30.2628         60
  30.3000         68
  30.3371         88
  30.3743        123
  30.4114         70
  30.4486         77
  30.4857         70
  30.5229         73
  30.5600         53
  30.5972         54
  30.6343         61
  30.6715         56
  30.7086         65
  30.7458         56
  30.7829         50
  30.8201         64
  30.8572         53
  30.8944         47
  30.9315         49
  30.9687         50
  31.0058         56
  31.0430         54
  31.0801         49
  31.1173         49
  31.1544         63
  31.1916         39
  31.2287         56
  31.2659         60
  31.3030         48
  31.3402         50
  31.3774         37
  31.4145         54
  31.4517         48
  31.4888         48
  31.5260         58
  31.5631         50
  31.6003         49
  31.6374         49
  31.6746         51
  31.7117         47
  31.7489         55
  31.7860         68
  31.8232         54
  31.8603         50
  31.8975         56
  31.9346         52
  31.9718         41
  32.0089         54
  32.0461         40
  32.0832         52
  32.1204         45
  32.1575         51
  32.1947         52
  32.2318         53
  32.2690         42
  32.3061         44
  32.3433         41
  32.3804         63
  32.4176         56
  32.4547         50
  32.4919         63
  32.5290         66
  32.5662         52
  32.6033         45
  32.6405         46
  32.6776         54
  32.7148         49
  32.7519         39
  32.7891         49
  32.8262         38
  32.8634         49
  32.9006         34
  32.9377         37
  32.9749         47
  33.0120         52
  33.0492         53
  33.0863         45
  33.1235         42
  33.1606         41
  33.1978         55
  33.2349         49
  33.2721         42
  33.3092         52
  33.3464         40
  33.3835         39
  33.4207         50
  33.4578         41
  33.4950         49
  33.5321         44
  33.5693         47
  33.6064         50
  33.6436         29
  33.6807         39
  33.7179         43
  33.7550         52
  33.7922         39
  33.8293         35
  33.8665         52
  33.9036         50
  33.9408         54
  33.9779         34
  34.0151         42
  34.0522         39
  34.0894         36
  34.1265         36
  34.1637         35
  34.2008         44
  34.2380         45
  34.2751         42
  34.3123         51
  34.3494         35
  34.3866         33
  34.4238         38
  34.4609         50
  34.4981         39
  34.5352         37
  34.5724         40
  34.6095         49
  34.6467         39
  34.6838         57
  34.7210         54
  34.7581         76
  34.7953         54
  34.8324         39
  34.8696         46
  34.9067         49
  34.9439         39
  34.9810         47
  35.0182         36
  35.0553         31
  35.0925         41
  35.1296         38
  35.1668         35
  35.2039         35
  35.2411         43
  35.2782         46
  35.3154         41
  35.3525         26
  35.3897         39
  35.4268         42
  35.4640         27
  35.5011         35
  35.5383         36
  35.5754         35
  35.6126         36
  35.6497         36
  35.6869         35
  35.7240         44
  35.7612         30
  35.7983         32
  35.8355         35
  35.8726         34
  35.9098         37
  35.9469         34
  35.9841         33
  36.0213         37
  36.0584         44
  36.0956         28
  36.1327         31
  36.1699         34
  36.2070         32
  36.2442         43
  36.2813         28
  36.3185         26
  36.3556         34
  36.3928         40
  36.4299         29
  36.4671         47
  36.5042         28
  36.5414         39
  36.5785         36
  36.6157         34
  36.6528         33
  36.6900         30
  36.7271         28
  36.7643         41
  36.8014         28
  36.8386         29
  36.8757         32
  36.9129         35
  36.9500         34
  36.9872         33
  37.0243         33
  37.0615         50
  37.0986         36
  37.1358         34
  37.1729         52
  37.2101         26
  37.2472         36
  37.2844         52
  37.3215         46
  37.3587         27
  37.3958         45
  37.4330         62
  37.4701         34
  37.5073         49
  37.5445         44
  37.5816         45
  37.6188         34
  37.6559         35
  37.6931         21
  37.7302         31
  37.7674         30
  37.8045         32
  37.8417         26
  37.8788         27
  37.9160         30
  37.9531         25
  37.9903         33
  38.0274         25
  38.0646         34
  38.1017         29
  38.1389         22
  38.1760         22
  38.2132         30
  38.2503         38
  38.2875         32
  38.3246         30
  38.3618         35
  38.3989         33
  38.4361         40
  38.4732         29
  38.5104         33
  38.5475         24
  38.5847         34
  38.6218         27
  38.6590         33
  38.6961         28
  38.7333         34
  38.7704         30
  38.8076         38
  38.8447         36
  38.8819         31
  38.9190         35
  38.9562         20
  38.9933         34
  39.0305         35
  39.0677         26
  39.1048         29
  39.1420         27
  39.1791         28
  39.2163         23
  39.2534         36
  39.2906         17
  39.3277         38
  39.3649         31
  39.4020         38
  39.4392         24
  39.4763         33
  39.5135         35
  39.5506         26
  39.5878         37
  39.6249         26
  39.6621         27
  39.6992         24
  39.7364         37
  39.7735         19
  39.8107         29
  39.8478         30
  39.8850         23
  39.9221         35
  39.9593         27
  39.9964         29
  40.0336         35
  40.0707         26
  40.1079         23
  40.1450         26
  40.1822         26
  40.2193         31
  40.2565         25
  40.2936         38
  40.3308         23
  40.3679         24
  40.4051         31
  40.4422         17
  40.4794         37
  40.5165         34
  40.5537         35
  40.5908         34
  40.6280         26
  40.6652         23
  40.7023         24
  40.7395         38
  40.7766         21
  40.8138         27
  40.8509         24
  40.8881         33
  40.9252         32
  40.9624         21
  40.9995         23
  41.0367         29
  41.0738         27
  41.1110         26
  41.1481         29
  41.1853         17
  41.2224         19
  41.2596         20
  41.2967         23
  41.3339         29
  41.3710         29
  41.4082         26
  41.4453         30
  41.4825         27
  41.5196         24
  41.5568         35
  41.5939         29
  41.6311         26
  41.6682         25
  41.7054         25
  41.7425         38
  41.7797         27
  41.8168         23
  41.8540         20
  41.8911         23
  41.9283         32
  41.9654         27
  42.0026         24
  42.0397         23
  42.0769         32
  42.1140         28
  42.1512         32
  42.1884         25
  42.2255         20
  42.2627         25
  42.2998         23
  42.3370         19
  42.3741         28
  42.4113         24
  42.4484         29
  42.4856         36
  42.5227         21
  42.5599         20
  42.5970         21
  42.6342         25
  42.6713         31
  42.7085         21
  42.7456         36
  42.7828         25
  42.8199         24
  42.8571         23
  42.8942         25
  42.9314         26
  42.9685         27
  43.0057         26
  43.0428         32
  43.0800         18
  43.1171         29
  43.1543         31
  43.1914         25
  43.2286         42
  43.2657         34
  43.3029         27
  43.3400         27
  43.3772         22
  43.4143         28
  43.4515         47
  43.4886         54
  43.5258         34
  43.5629         34
  43.6001         42
  43.6372         30
  43.6744         27
  43.7116         23
  43.7487         29
  43.7859         33
  43.8230         24
  43.8602         24
  43.8973         34
  43.9345         18
  43.9716         37
  44.0088         26
  44.0459         41
  44.0831         24
  44.1202         20
  44.1574         31
  44.1945         31
  44.2317         27
  44.2688         34
  44.3060         33
  44.3431         29
  44.3803         38
  44.4174         14
  44.4546         33
  44.4917         30
  44.5289         30
  44.5660         34
  44.6032         27
  44.6403         19
  44.6775         26
  44.7146         27
  44.7518         28
  44.7889         26
  44.8261         32
  44.8632         27
  44.9004         28
  44.9375         34
  44.9747         34
  45.0118         36
  45.0490         27
  45.0861         24
  45.1233         31
  45.1604         15
  45.1976         26
  45.2347         23
  45.2719         25
  45.3091         29
  45.3462         16
  45.3834         25
  45.4205         19
  45.4577         26
  45.4948         26
  45.5320         39
  45.5691         23
  45.6063         25
  45.6434         20
  45.6806         21
  45.7177         25
  45.7549         24
  45.7920         18
  45.8292         22
  45.8663         23
  45.9035         22
  45.9406         19
  45.9778         19
  46.0149         23
  46.0521         31
  46.0892         21
  46.1264         31
  46.1635         41
  46.2007         27
  46.2378         27
  46.2750         22
  46.3121         21
  46.3493         33
  46.3864         32
  46.4236         31
  46.4607         27
  46.4979         26
  46.5350         25
  46.5722         26
  46.6093         25
  46.6465         37
  46.6836         25
  46.7208         23
  46.7579         23
  46.7951         20
  46.8323         30
  46.8694         19
  46.9066         22
  46.9437         29
  46.9809         31
  47.0180         29
  47.0552         26
  47.0923         23
  47.1295         21
  47.1666         20
  47.2038         20
  47.2409         26
  47.2781         19
  47.3152         14
  47.3524         16
  47.3895         30
  47.4267         21
  47.4638         18
  47.5010         21
  47.5381         17
  47.5753         25
  47.6124         24
  47.6496         12
  47.6867         26
  47.7239         32
  47.7610         24
  47.7982         27
  47.8353         21
  47.8725         21
  47.9096         19
  47.9468         17
  47.9839         27
  48.0211         28
  48.0582         22
  48.0954         19
  48.1325         21
  48.1697         24
  48.2068         30
  48.2440         23
  48.2811         21
  48.3183         30
  48.3555         16
  48.3926         28
  48.4298         33
  48.4669         17
  48.5041         18
  48.5412         20
  48.5784         19
  48.6155         30
  48.6527         30
  48.6898         29
  48.7270         30
  48.7641         19
  48.8013         14
  48.8384         21
  48.8756         29
  48.9127         45
  48.9499         42
  48.9870         24
  49.0242         30
  49.0613         29
  49.0985         28
  49.1356         28
  49.1728         28
  49.2099         28
  49.2471         20
  49.2842         31
  49.3214         23
  49.3585         22
  49.3957         28
  49.4328         20
  49.4700         26
  49.5071         19
  49.5443         19
  49.5814         16
  49.6186         18
  49.6557         26
  49.6929         20
  49.7300         16
  49.7672         23
  49.8043         20
  49.8415         19
  49.8786         22
  49.9158         26
  49.9530         25
  49.9901         21
  50.0273         18
  50.0644         31
  50.1016         13
  50.1387         43
  50.1759         21
  50.2130         25
  50.2502         19
  50.2873         20
  50.3245         20
  50.3616         16
  50.3988         21
  50.4359         26
  50.4731         17
  50.5102         20
  50.5474         14
  50.5845         24
  50.6217         18
  50.6588         31
  50.6960         27
  50.7331         21
  50.7703         26
  50.8074         22
  50.8446         22
  50.8817         20
  50.9189         22
  50.9560         17
  50.9932         27
  51.0303         17
  51.0675         24
  51.1046         19
  51.1418         25
  51.1789         16
  51.2161         14
  51.2532         16
  51.2904         25
  51.3275         25
  51.3647         42
  51.4018         27
  51.4390         28
  51.4762         26
  51.5133         23
  51.5505         22
  51.5876         14
  51.6248         22
  51.6619         18
  51.6991         29
  51.7362         23
  51.7734         33
  51.8105         28
  51.8477         25
  51.8848         18
  51.9220         27
  51.9591         14
  51.9963         24
  52.0334         28
  52.0706         16
  52.1077         22
  52.1449         20
  52.1820         33
  52.2192         22
  52.2563         22
  52.2935         14
  52.3306         21
  52.3678         19
  52.4049         28
  52.4421         17
  52.4792         17
  52.5164         28
  52.5535         35
  52.5907         16
  52.6278         26
  52.6650         23
  52.7021         20
  52.7393         25
  52.7764         26
  52.8136         18
  52.8507         26
  52.8879         21
  52.9250         18
  52.9622         19
  52.9994         17
  53.0365         24
  53.0737         28
  53.1108         30
  53.1480         24
  53.1851         15
  53.2223         33
  53.2594         21
  53.2966         20
  53.3337         19
  53.3709         19
  53.4080         22
  53.4452         12
  53.4823         20
  53.5195         18
  53.5566         23
  53.5938         21
  53.6309         18
  53.6681         17
  53.7052         23
  53.7424         17
  53.7795         27
  53.8167         25
  53.8538         15
  53.8910         22
  53.9281         20
  53.9653         27
  54.0024         30
  54.0396         25
  54.0767         23
  54.1139         26
  54.1510         21
  54.1882         24
  54.2253         18
  54.2625         24
  54.2996         23
  54.3368         27
  54.3739         15
  54.4111         27
  54.4482         25
  54.4854         24
  54.5225         19
  54.5597         22
  54.5969         20
  54.6340         26
  54.6712         12
  54.7083         16
  54.7455         26
  54.7826         23
  54.8198         20
  54.8569         21
  54.8941         18
  54.9312         24
  54.9684         24
  55.0055         24
  55.0427         16
  55.0798         16
  55.1170         28
  55.1541         18
  55.1913         19
  55.2284         22
  55.2656         29
  55.3027         15
  55.3399         25
  55.3770         25
  55.4142         16
  55.4513         21
  55.4885         24
  55.5256         17
  55.5628         24
  55.5999         12
  55.6371         16
  55.6742         19
  55.7114         21
  55.7485         19
  55.7857         19
  55.8228         11
  55.8600         21
  55.8971         26
  55.9343         19
  55.9714         15
  56.0086         26
  56.0457         24
  56.0829         22
  56.1201         27
  56.1572         27
  56.1944         34
  56.2315         24
  56.2687         32
  56.3058         17
  56.3430         18
  56.3801         25
  56.4173         29
  56.4544         19
  56.4916         14
  56.5287         27
  56.5659         20
  56.6030         23
  56.6402         18
  56.6773         22
  56.7145         22
  56.7516         18
  56.7888         24
  56.8259         18
  56.8631         25
  56.9002         19
  56.9374         20
  56.9745         16
  57.0117         18
  57.0488         23
  57.0860         29
  57.1231         20
  57.1603         18
  57.1974         24
  57.2346         22
  57.2717         28
  57.3089         17
  57.3460         14
  57.3832         11
  57.4203         15
  57.4575         19
  57.4946         20
  57.5318         19
  57.5689         11
  57.6061         22
  57.6433         17
  57.6804         22
  57.7176         20
  57.7547         23
  57.7919         13
  57.8290         20
  57.8662         23
  57.9033         24
  57.9405         24
  57.9776         25
  58.0148         24
  58.0519         15
  58.0891         32
  58.1262         24
  58.1634         18
  58.2005         20
  58.2377         24
  58.2748         14
  58.3120         15
  58.3491         17
  58.3863         12
  58.4234         25
  58.4606         25
  58.4977         22
  58.5349         20
  58.5720         17
  58.6092         19
  58.6463         25
  58.6835         17
  58.7206         18
  58.7578         19
  58.7949         18
  58.8321         16
  58.8692         21
  58.9064         17
  58.9435         25
  58.9807         15
  59.0178         18
  59.0550         19
  59.0921         21
  59.1293         22
  59.1664         21
  59.2036         17
  59.2408         22
  59.2779         20
  59.3151         12
  59.3522         16
  59.3894         24
  59.4265         17
  59.4637         22
  59.5008         18
  59.5380         21
  59.5751          9
  59.6123         18
  59.6494         29
  59.6866         22
  59.7237         22
  59.7609         17
  59.7980         16
  59.8352         20
  59.8723         20
  59.9095         24
  59.9466         20
  59.9838         21
  60.0024         29