File: notebooks/data/xrd_data/ML_20220720_32_SJD_4_LaB6-1min.csv
;,2THETA,
5.0000,105
5.0372,107
5.0743,95
5.1115,91
5.1486,95
5.1858,89
5.2229,70
5.2601,72
5.2972,81
5.3344,88
5.3715,97
5.4087,92
5.4458,77
5.4830,80
5.5201,75
5.5573,93
5.5944,70
5.6316,75
5.6687,92
5.7059,82
5.7430,68
5.7802,83
5.8173,83
5.8545,74
5.8916,58
5.9288,77
5.9659,65
6.0031,65
6.0402,64
6.0774,63
6.1145,58
6.1517,67
6.1888,68
6.2260,62
6.2631,64
6.3003,60
6.3374,72
6.3746,63
6.4117,56
6.4489,68
6.4860,72
6.5232,66
6.5604,73
6.5975,73
6.6347,62
6.6718,55
6.7090,64
6.7461,62
6.7833,67
6.8204,58
6.8576,68
6.8947,53
6.9319,59
6.9690,56
7.0062,57
7.0433,52
7.0805,62
7.1176,52
7.1548,63
7.1919,63
7.2291,57
7.2662,58
7.3034,66
7.3405,74
7.3777,56
7.4148,74
7.4520,58
7.4891,62
7.5263,53
7.5634,72
7.6006,58
7.6377,63
7.6749,74
7.7120,72
7.7492,65
7.7863,58
7.8235,52
7.8606,78
7.8978,64
7.9349,73
7.9721,64
8.0092,66
8.0464,60
8.0835,66
8.1207,71
8.1579,83
8.1950,67
8.2322,65
8.2693,86
8.3065,83
8.3436,60
8.3808,67
8.4179,91
8.4551,74
8.4922,79
8.5294,76
8.5665,81
8.6037,65
8.6408,70
8.6780,78
8.7151,62
8.7523,89
8.7894,86
8.8266,78
8.8637,83
8.9009,79
8.9380,90
8.9752,89
9.0123,79
9.0495,89
9.0866,78
9.1238,88
9.1609,86
9.1981,84
9.2352,79
9.2724,63
9.3095,72
9.3467,69
9.3838,95
9.4210,72
9.4581,67
9.4953,91
9.5324,88
9.5696,71
9.6067,76
9.6439,74
9.6811,78
9.7182,76
9.7554,93
9.7925,93
9.8297,101
9.8668,80
9.9040,90
9.9411,104
9.9783,84
10.0154,86
10.0526,79
10.0897,95
10.1269,92
10.1640,97
10.2012,84
10.2383,81
10.2755,91
10.3126,80
10.3498,91
10.3869,88
10.4241,84
10.4612,87
10.4984,76
10.5355,73
10.5727,109
10.6098,83
10.6470,79
10.6841,103
10.7213,85
10.7584,81
10.7956,86
10.8327,93
10.8699,80
10.9070,78
10.9442,91
10.9813,79
11.0185,88
11.0556,72
11.0928,83
11.1299,80
11.1671,86
11.2043,80
11.2414,97
11.2786,83
11.3157,96
11.3529,90
11.3900,96
11.4272,83
11.4643,85
11.5015,73
11.5386,105
11.5758,62
11.6129,95
11.6501,80
11.6872,105
11.7244,82
11.7615,83
11.7987,96
11.8358,88
11.8730,78
11.9101,73
11.9473,86
11.9844,87
12.0216,97
12.0587,72
12.0959,75
12.1330,70
12.1702,95
12.2073,91
12.2445,88
12.2816,100
12.3188,84
12.3559,85
12.3931,77
12.4302,82
12.4674,86
12.5045,83
12.5417,82
12.5788,83
12.6160,88
12.6531,75
12.6903,60
12.7274,68
12.7646,78
12.8018,70
12.8389,74
12.8761,73
12.9132,59
12.9504,95
12.9875,63
13.0247,82
13.0618,70
13.0990,77
13.1361,81
13.1733,79
13.2104,65
13.2476,71
13.2847,68
13.3219,78
13.3590,62
13.3962,91
13.4333,72
13.4705,82
13.5076,68
13.5448,76
13.5819,76
13.6191,81
13.6562,56
13.6934,77
13.7305,79
13.7677,62
13.8048,80
13.8420,72
13.8791,62
13.9163,68
13.9534,65
13.9906,73
14.0277,60
14.0649,78
14.1020,54
14.1392,76
14.1763,67
14.2135,73
14.2506,42
14.2878,75
14.3250,69
14.3621,58
14.3993,55
14.4364,75
14.4736,58
14.5107,69
14.5479,56
14.5850,55
14.6222,65
14.6593,57
14.6965,60
14.7336,51
14.7708,67
14.8079,64
14.8451,70
14.8822,62
14.9194,61
14.9565,47
14.9937,73
15.0308,60
15.0680,77
15.1051,65
15.1423,60
15.1794,69
15.2166,63
15.2537,58
15.2909,66
15.3280,57
15.3652,59
15.4023,58
15.4395,62
15.4766,61
15.5138,54
15.5509,45
15.5881,59
15.6252,58
15.6624,71
15.6995,53
15.7367,60
15.7738,66
15.8110,54
15.8482,59
15.8853,66
15.9225,62
15.9596,61
15.9968,62
16.0339,70
16.0711,57
16.1082,59
16.1454,56
16.1825,57
16.2197,54
16.2568,60
16.2940,64
16.3311,58
16.3683,59
16.4054,46
16.4426,54
16.4797,74
16.5169,46
16.5540,51
16.5912,65
16.6283,67
16.6655,52
16.7026,67
16.7398,53
16.7769,62
16.8141,87
16.8512,68
16.8884,45
16.9255,59
16.9627,53
16.9998,61
17.0370,61
17.0741,65
17.1113,64
17.1484,69
17.1856,57
17.2227,55
17.2599,44
17.2970,73
17.3342,59
17.3713,61
17.4085,46
17.4457,69
17.4828,51
17.5200,50
17.5571,73
17.5943,61
17.6314,54
17.6686,46
17.7057,46
17.7429,67
17.7800,58
17.8172,54
17.8543,53
17.8915,52
17.9286,52
17.9658,60
18.0029,72
18.0401,60
18.0772,72
18.1144,66
18.1515,59
18.1887,49
18.2258,77
18.2630,35
18.3001,50
18.3373,60
18.3744,56
18.4116,51
18.4487,61
18.4859,65
18.5230,58
18.5602,63
18.5973,50
18.6345,73
18.6716,69
18.7088,61
18.7459,61
18.7831,52
18.8202,81
18.8574,62
18.8945,67
18.9317,64
18.9689,60
19.0060,59
19.0432,77
19.0803,66
19.1175,59
19.1546,61
19.1918,64
19.2289,63
19.2661,60
19.3032,66
19.3404,57
19.3775,70
19.4147,68
19.4518,54
19.4890,72
19.5261,53
19.5633,69
19.6004,54
19.6376,47
19.6747,75
19.7119,58
19.7490,68
19.7862,49
19.8233,73
19.8605,73
19.8976,78
19.9348,76
19.9719,80
20.0091,59
20.0462,62
20.0834,58
20.1205,60
20.1577,70
20.1948,67
20.2320,65
20.2691,72
20.3063,80
20.3434,61
20.3806,75
20.4177,68
20.4549,72
20.4921,69
20.5292,77
20.5664,66
20.6035,77
20.6407,61
20.6778,62
20.7150,76
20.7521,64
20.7893,63
20.8264,63
20.8636,84
20.9007,82
20.9379,91
20.9750,79
21.0122,72
21.0493,76
21.0865,73
21.1236,69
21.1608,95
21.1979,108
21.2351,140
21.2722,93
21.3094,118
21.3465,188
21.3837,150
21.4208,119
21.4580,102
21.4951,76
21.5323,93
21.5694,81
21.6066,71
21.6437,77
21.6809,74
21.7180,78
21.7552,73
21.7923,57
21.8295,86
21.8666,77
21.9038,80
21.9409,68
21.9781,79
22.0152,59
22.0524,65
22.0896,82
22.1267,64
22.1639,78
22.2010,76
22.2382,58
22.2753,78
22.3125,60
22.3496,66
22.3868,59
22.4239,69
22.4611,88
22.4982,61
22.5354,64
22.5725,90
22.6097,65
22.6468,70
22.6840,62
22.7211,76
22.7583,95
22.7954,60
22.8326,81
22.8697,78
22.9069,66
22.9440,67
22.9812,82
23.0183,67
23.0555,83
23.0926,71
23.1298,64
23.1669,74
23.2041,77
23.2412,57
23.2784,82
23.3155,66
23.3527,83
23.3898,91
23.4270,76
23.4641,85
23.5013,73
23.5384,60
23.5756,75
23.6128,74
23.6499,81
23.6871,65
23.7242,85
23.7614,59
23.7985,89
23.8357,59
23.8728,91
23.9100,67
23.9471,77
23.9843,76
24.0214,82
24.0586,91
24.0957,68
24.1329,75
24.1700,78
24.2072,75
24.2443,84
24.2815,100
24.3186,73
24.3558,68
24.3929,67
24.4301,80
24.4672,58
24.5044,82
24.5415,70
24.5787,69
24.6158,72
24.6530,68
24.6901,78
24.7273,74
24.7644,68
24.8016,79
24.8387,81
24.8759,82
24.9130,73
24.9502,66
24.9873,71
25.0245,70
25.0616,71
25.0988,57
25.1360,72
25.1731,64
25.2103,59
25.2474,79
25.2846,90
25.3217,53
25.3589,76
25.3960,73
25.4332,56
25.4703,78
25.5075,68
25.5446,77
25.5818,69
25.6189,67
25.6561,66
25.6932,64
25.7304,79
25.7675,71
25.8047,79
25.8418,69
25.8790,71
25.9161,80
25.9533,71
25.9904,50
26.0276,53
26.0647,62
26.1019,77
26.1390,64
26.1762,55
26.2133,70
26.2505,79
26.2876,63
26.3248,69
26.3619,61
26.3991,68
26.4362,76
26.4734,77
26.5105,66
26.5477,73
26.5848,76
26.6220,73
26.6591,80
26.6963,56
26.7335,62
26.7706,73
26.8078,67
26.8449,66
26.8821,53
26.9192,76
26.9564,61
26.9935,70
27.0307,67
27.0678,66
27.1050,77
27.1421,85
27.1793,89
27.2164,79
27.2536,78
27.2907,85
27.3279,66
27.3650,78
27.4022,66
27.4393,62
27.4765,59
27.5136,68
27.5508,56
27.5879,59
27.6251,72
27.6622,59
27.6994,78
27.7365,55
27.7737,79
27.8108,68
27.8480,65
27.8851,59
27.9223,76
27.9594,57
27.9966,80
28.0337,58
28.0709,54
28.1080,68
28.1452,62
28.1823,61
28.2195,63
28.2567,73
28.2938,61
28.3310,69
28.3681,63
28.4053,67
28.4424,56
28.4796,62
28.5167,53
28.5539,50
28.5910,64
28.6282,71
28.6653,72
28.7025,61
28.7396,58
28.7768,60
28.8139,58
28.8511,68
28.8882,62
28.9254,44
28.9625,64
28.9997,66
29.0368,57
29.0740,74
29.1111,49
29.1483,51
29.1854,47
29.2226,69
29.2597,61
29.2969,75
29.3340,61
29.3712,54
29.4083,72
29.4455,62
29.4826,46
29.5198,61
29.5569,65
29.5941,65
29.6312,52
29.6684,69
29.7055,56
29.7427,51
29.7799,61
29.8170,59
29.8542,53
29.8913,61
29.9285,62
29.9656,58
30.0028,54
30.0399,67
30.0771,57
30.1142,66
30.1514,51
30.1885,64
30.2257,56
30.2628,82
30.3000,62
30.3371,59
30.3743,113
30.4114,136
30.4486,110
30.4857,92
30.5229,49
30.5600,52
30.5972,56
30.6343,52
30.6715,61
30.7086,60
30.7458,54
30.7829,59
30.8201,53
30.8572,61
30.8944,52
30.9315,53
30.9687,50
31.0058,50
31.0430,58
31.0801,43
31.1173,42
31.1544,47
31.1916,50
31.2287,49
31.2659,47
31.3030,58
31.3402,53
31.3774,59
31.4145,46
31.4517,53
31.4888,66
31.5260,46
31.5631,44
31.6003,50
31.6374,51
31.6746,51
31.7117,50
31.7489,48
31.7860,70
31.8232,47
31.8603,49
31.8975,49
31.9346,61
31.9718,57
32.0089,35
32.0461,57
32.0832,32
32.1204,38
32.1575,49
32.1947,43
32.2318,41
32.2690,46
32.3061,43
32.3433,54
32.3804,51
32.4176,48
32.4547,44
32.4919,45
32.5290,63
32.5662,57
32.6033,44
32.6405,50
32.6776,43
32.7148,42
32.7519,54
32.7891,40
32.8262,50
32.8634,40
32.9006,48
32.9377,63
32.9749,33
33.0120,59
33.0492,53
33.0863,47
33.1235,42
33.1606,35
33.1978,29
33.2349,42
33.2721,44
33.3092,44
33.3464,35
33.3835,43
33.4207,37
33.4578,40
33.4950,43
33.5321,46
33.5693,53
33.6064,40
33.6436,37
33.6807,56
33.7179,32
33.7550,38
33.7922,45
33.8293,44
33.8665,62
33.9036,35
33.9408,41
33.9779,32
34.0151,56
34.0522,54
34.0894,48
34.1265,43
34.1637,40
34.2008,33
34.2380,47
34.2751,34
34.3123,43
34.3494,45
34.3866,49
34.4238,42
34.4609,36
34.4981,55
34.5352,40
34.5724,52
34.6095,53
34.6467,46
34.6838,39
34.7210,53
34.7581,66
34.7953,70
34.8324,59
34.8696,51
34.9067,41
34.9439,50
34.9810,49
35.0182,47
35.0553,41
35.0925,41
35.1296,37
35.1668,50
35.2039,34
35.2411,44
35.2782,33
35.3154,38
35.3525,36
35.3897,31
35.4268,42
35.4640,40
35.5011,39
35.5383,31
35.5754,37
35.6126,33
35.6497,33
35.6869,32
35.7240,49
35.7612,27
35.7983,27
35.8355,28
35.8726,53
35.9098,45
35.9469,35
35.9841,42
36.0213,34
36.0584,36
36.0956,38
36.1327,28
36.1699,28
36.2070,29
36.2442,36
36.2813,34
36.3185,36
36.3556,29
36.3928,43
36.4299,31
36.4671,31
36.5042,30
36.5414,30
36.5785,33
36.6157,44
36.6528,32
36.6900,32
36.7271,35
36.7643,40
36.8014,28
36.8386,29
36.8757,30
36.9129,24
36.9500,33
36.9872,32
37.0243,35
37.0615,16
37.0986,40
37.1358,29
37.1729,31
37.2101,32
37.2472,28
37.2844,32
37.3215,41
37.3587,30
37.3958,36
37.4330,58
37.4701,44
37.5073,35
37.5445,53
37.5816,28
37.6188,31
37.6559,30
37.6931,29
37.7302,26
37.7674,33
37.8045,30
37.8417,37
37.8788,42
37.9160,31
37.9531,46
37.9903,32
38.0274,24
38.0646,30
38.1017,39
38.1389,33
38.1760,22
38.2132,32
38.2503,31
38.2875,42
38.3246,31
38.3618,36
38.3989,31
38.4361,31
38.4732,37
38.5104,23
38.5475,31
38.5847,28
38.6218,41
38.6590,37
38.6961,36
38.7333,31
38.7704,38
38.8076,40
38.8447,39
38.8819,35
38.9190,32
38.9562,33
38.9933,23
39.0305,29
39.0677,36
39.1048,30
39.1420,36
39.1791,29
39.2163,22
39.2534,30
39.2906,25
39.3277,24
39.3649,37
39.4020,25
39.4392,37
39.4763,32
39.5135,24
39.5506,25
39.5878,26
39.6249,29
39.6621,37
39.6992,29
39.7364,30
39.7735,35
39.8107,19
39.8478,38
39.8850,31
39.9221,25
39.9593,22
39.9964,32
40.0336,26
40.0707,22
40.1079,17
40.1450,25
40.1822,20
40.2193,39
40.2565,30
40.2936,32
40.3308,35
40.3679,22
40.4051,34
40.4422,25
40.4794,25
40.5165,34
40.5537,25
40.5908,26
40.6280,29
40.6652,33
40.7023,30
40.7395,24
40.7766,21
40.8138,31
40.8509,19
40.8881,23
40.9252,25
40.9624,32
40.9995,32
41.0367,29
41.0738,31
41.1110,26
41.1481,31
41.1853,32
41.2224,31
41.2596,29
41.2967,24
41.3339,36
41.3710,30
41.4082,26
41.4453,21
41.4825,30
41.5196,30
41.5568,23
41.5939,27
41.6311,22
41.6682,26
41.7054,25
41.7425,19
41.7797,29
41.8168,30
41.8540,26
41.8911,26
41.9283,32
41.9654,35
42.0026,31
42.0397,36
42.0769,27
42.1140,25
42.1512,23
42.1884,30
42.2255,24
42.2627,25
42.2998,23
42.3370,35
42.3741,28
42.4113,29
42.4484,28
42.4856,26
42.5227,27
42.5599,36
42.5970,34
42.6342,28
42.6713,27
42.7085,30
42.7456,21
42.7828,31
42.8199,23
42.8571,19
42.8942,33
42.9314,33
42.9685,26
43.0057,25
43.0428,19
43.0800,26
43.1171,28
43.1543,25
43.1914,34
43.2286,36
43.2657,32
43.3029,37
43.3400,44
43.3772,30
43.4143,28
43.4515,32
43.4886,47
43.5258,59
43.5629,31
43.6001,29
43.6372,36
43.6744,33
43.7116,32
43.7487,30
43.7859,27
43.8230,27
43.8602,29
43.8973,21
43.9345,32
43.9716,34
44.0088,25
44.0459,25
44.0831,34
44.1202,36
44.1574,33
44.1945,38
44.2317,28
44.2688,32
44.3060,21
44.3431,23
44.3803,24
44.4174,21
44.4546,31
44.4917,20
44.5289,32
44.5660,33
44.6032,32
44.6403,37
44.6775,27
44.7146,28
44.7518,28
44.7889,23
44.8261,31
44.8632,28
44.9004,25
44.9375,34
44.9747,23
45.0118,19
45.0490,32
45.0861,26
45.1233,28
45.1604,29
45.1976,27
45.2347,40
45.2719,23
45.3091,21
45.3462,27
45.3834,17
45.4205,27
45.4577,11
45.4948,23
45.5320,25
45.5691,22
45.6063,27
45.6434,27
45.6806,24
45.7177,34
45.7549,28
45.7920,17
45.8292,19
45.8663,16
45.9035,34
45.9406,18
45.9778,21
46.0149,17
46.0521,19
46.0892,20
46.1264,19
46.1635,23
46.2007,31
46.2378,22
46.2750,27
46.3121,20
46.3493,26
46.3864,21
46.4236,28
46.4607,21
46.4979,25
46.5350,17
46.5722,28
46.6093,23
46.6465,23
46.6836,24
46.7208,27
46.7579,29
46.7951,25
46.8323,26
46.8694,26
46.9066,32
46.9437,18
46.9809,22
47.0180,36
47.0552,21
47.0923,22
47.1295,32
47.1666,27
47.2038,34
47.2409,24
47.2781,22
47.3152,22
47.3524,19
47.3895,26
47.4267,22
47.4638,36
47.5010,24
47.5381,31
47.5753,25
47.6124,13
47.6496,27
47.6867,26
47.7239,19
47.7610,23
47.7982,24
47.8353,24
47.8725,23
47.9096,21
47.9468,28
47.9839,22
48.0211,17
48.0582,32
48.0954,19
48.1325,17
48.1697,16
48.2068,25
48.2440,28
48.2811,27
48.3183,20
48.3555,21
48.3926,23
48.4298,23
48.4669,26
48.5041,17
48.5412,21
48.5784,39
48.6155,15
48.6527,24
48.6898,23
48.7270,26
48.7641,18
48.8013,27
48.8384,24
48.8756,24
48.9127,37
48.9499,37
48.9870,39
49.0242,35
49.0613,38
49.0985,31
49.1356,28
49.1728,22
49.2099,16
49.2471,27
49.2842,31
49.3214,17
49.3585,18
49.3957,26
49.4328,32
49.4700,33
49.5071,21
49.5443,23
49.5814,19
49.6186,19
49.6557,28
49.6929,21
49.7300,27
49.7672,19
49.8043,26
49.8415,30
49.8786,25
49.9158,27
49.9530,22
49.9901,24
50.0273,23
50.0644,29
50.1016,27
50.1387,22
50.1759,24
50.2130,19
50.2502,34
50.2873,27
50.3245,27
50.3616,27
50.3988,14
50.4359,25
50.4731,22
50.5102,27
50.5474,15
50.5845,28
50.6217,19
50.6588,29
50.6960,23
50.7331,21
50.7703,18
50.8074,21
50.8446,18
50.8817,17
50.9189,22
50.9560,18
50.9932,22
51.0303,23
51.0675,31
51.1046,25
51.1418,22
51.1789,21
51.2161,22
51.2532,22
51.2904,17
51.3275,23
51.3647,34
51.4018,22
51.4390,14
51.4762,19
51.5133,27
51.5505,31
51.5876,16
51.6248,15
51.6619,16
51.6991,27
51.7362,22
51.7734,22
51.8105,23
51.8477,32
51.8848,24
51.9220,27
51.9591,21
51.9963,23
52.0334,21
52.0706,27
52.1077,27
52.1449,23
52.1820,28
52.2192,21
52.2563,23
52.2935,15
52.3306,17
52.3678,26
52.4049,16
52.4421,24
52.4792,21
52.5164,18
52.5535,27
52.5907,23
52.6278,23
52.6650,25
52.7021,16
52.7393,21
52.7764,27
52.8136,23
52.8507,17
52.8879,18
52.9250,26
52.9622,15
52.9994,21
53.0365,24
53.0737,18
53.1108,18
53.1480,12
53.1851,20
53.2223,27
53.2594,13
53.2966,16
53.3337,21
53.3709,27
53.4080,14
53.4452,19
53.4823,22
53.5195,21
53.5566,20
53.5938,15
53.6309,19
53.6681,22
53.7052,19
53.7424,32
53.7795,23
53.8167,17
53.8538,14
53.8910,21
53.9281,17
53.9653,19
54.0024,37
54.0396,15
54.0767,19
54.1139,22
54.1510,25
54.1882,24
54.2253,12
54.2625,26
54.2996,19
54.3368,23
54.3739,14
54.4111,23
54.4482,21
54.4854,20
54.5225,22
54.5597,21
54.5969,19
54.6340,21
54.6712,16
54.7083,18
54.7455,21
54.7826,12
54.8198,21
54.8569,24
54.8941,27
54.9312,21
54.9684,17
55.0055,19
55.0427,27
55.0798,23
55.1170,21
55.1541,17
55.1913,22
55.2284,20
55.2656,29
55.3027,24
55.3399,17
55.3770,29
55.4142,21
55.4513,32
55.4885,19
55.5256,26
55.5628,15
55.5999,20
55.6371,22
55.6742,15
55.7114,19
55.7485,20
55.7857,27
55.8228,17
55.8600,20
55.8971,16
55.9343,19
55.9714,19
56.0086,27
56.0457,25
56.0829,22
56.1201,22
56.1572,18
56.1944,26
56.2315,31
56.2687,25
56.3058,25
56.3430,20
56.3801,27
56.4173,21
56.4544,28
56.4916,22
56.5287,23
56.5659,12
56.6030,24
56.6402,21
56.6773,29
56.7145,21
56.7516,14
56.7888,21
56.8259,15
56.8631,25
56.9002,14
56.9374,15
56.9745,18
57.0117,23
57.0488,11
57.0860,19
57.1231,18
57.1603,20
57.1974,25
57.2346,18
57.2717,14
57.3089,19
57.3460,9
57.3832,26
57.4203,25
57.4575,17
57.4946,23
57.5318,19
57.5689,14
57.6061,16
57.6433,11
57.6804,22
57.7176,21
57.7547,25
57.7919,20
57.8290,17
57.8662,20
57.9033,22
57.9405,22
57.9776,25
58.0148,19
58.0519,25
58.0891,23
58.1262,26
58.1634,18
58.2005,24
58.2377,19
58.2748,24
58.3120,17
58.3491,20
58.3863,21
58.4234,26
58.4606,20
58.4977,22
58.5349,20
58.5720,16
58.6092,17
58.6463,22
58.6835,19
58.7206,21
58.7578,21
58.7949,19
58.8321,25
58.8692,22
58.9064,24
58.9435,19
58.9807,22
59.0178,17
59.0550,22
59.0921,19
59.1293,22
59.1664,24
59.2036,27
59.2408,24
59.2779,26
59.3151,16
59.3522,18
59.3894,16
59.4265,21
59.4637,26
59.5008,19
59.5380,19
59.5751,20
59.6123,22
59.6494,14
59.6866,20
59.7237,27
59.7609,12
59.7980,23
59.8352,33
59.8723,16
59.9095,18
59.9466,19
59.9838,31
60.0024,29