File: notebooks/data/xrd_data/ML_20220720_22_SJD_4_LaB6-1min.csv
;,2THETA,
5.0000,104
5.0372,93
5.0743,89
5.1115,81
5.1486,88
5.1858,77
5.2229,75
5.2601,84
5.2972,87
5.3344,109
5.3715,83
5.4087,90
5.4458,91
5.4830,84
5.5201,105
5.5573,84
5.5944,87
5.6316,84
5.6687,79
5.7059,67
5.7430,82
5.7802,78
5.8173,88
5.8545,80
5.8916,69
5.9288,84
5.9659,73
6.0031,80
6.0402,58
6.0774,71
6.1145,80
6.1517,72
6.1888,66
6.2260,72
6.2631,63
6.3003,62
6.3374,68
6.3746,74
6.4117,63
6.4489,63
6.4860,68
6.5232,63
6.5604,72
6.5975,62
6.6347,61
6.6718,76
6.7090,68
6.7461,66
6.7833,71
6.8204,48
6.8576,57
6.8947,59
6.9319,56
6.9690,60
7.0062,65
7.0433,59
7.0805,58
7.1176,56
7.1548,50
7.1919,58
7.2291,62
7.2662,68
7.3034,50
7.3405,63
7.3777,74
7.4148,62
7.4520,57
7.4891,58
7.5263,61
7.5634,45
7.6006,60
7.6377,64
7.6749,55
7.7120,66
7.7492,60
7.7863,80
7.8235,69
7.8606,66
7.8978,63
7.9349,63
7.9721,52
8.0092,64
8.0464,66
8.0835,65
8.1207,59
8.1579,50
8.1950,64
8.2322,58
8.2693,65
8.3065,68
8.3436,79
8.3808,69
8.4179,71
8.4551,78
8.4922,71
8.5294,61
8.5665,57
8.6037,75
8.6408,64
8.6780,90
8.7151,75
8.7523,85
8.7894,91
8.8266,91
8.8637,86
8.9009,77
8.9380,90
8.9752,75
9.0123,93
9.0495,88
9.0866,88
9.1238,87
9.1609,92
9.1981,85
9.2352,76
9.2724,88
9.3095,68
9.3467,96
9.3838,77
9.4210,78
9.4581,73
9.4953,83
9.5324,76
9.5696,82
9.6067,79
9.6439,85
9.6811,89
9.7182,86
9.7554,82
9.7925,68
9.8297,81
9.8668,87
9.9040,98
9.9411,88
9.9783,88
10.0154,81
10.0526,74
10.0897,84
10.1269,85
10.1640,81
10.2012,83
10.2383,82
10.2755,89
10.3126,88
10.3498,101
10.3869,96
10.4241,85
10.4612,104
10.4984,105
10.5355,87
10.5727,101
10.6098,77
10.6470,91
10.6841,92
10.7213,102
10.7584,86
10.7956,91
10.8327,94
10.8699,85
10.9070,77
10.9442,89
10.9813,101
11.0185,76
11.0556,89
11.0928,76
11.1299,78
11.1671,85
11.2043,72
11.2414,81
11.2786,79
11.3157,89
11.3529,95
11.3900,80
11.4272,93
11.4643,84
11.5015,89
11.5386,92
11.5758,93
11.6129,89
11.6501,92
11.6872,86
11.7244,91
11.7615,99
11.7987,74
11.8358,79
11.8730,77
11.9101,88
11.9473,96
11.9844,81
12.0216,94
12.0587,81
12.0959,83
12.1330,83
12.1702,65
12.2073,80
12.2445,85
12.2816,79
12.3188,84
12.3559,78
12.3931,65
12.4302,84
12.4674,63
12.5045,85
12.5417,87
12.5788,77
12.6160,93
12.6531,82
12.6903,80
12.7274,81
12.7646,95
12.8018,89
12.8389,67
12.8761,60
12.9132,78
12.9504,78
12.9875,68
13.0247,78
13.0618,59
13.0990,88
13.1361,62
13.1733,77
13.2104,69
13.2476,65
13.2847,60
13.3219,72
13.3590,71
13.3962,83
13.4333,59
13.4705,86
13.5076,61
13.5448,77
13.5819,67
13.6191,71
13.6562,71
13.6934,68
13.7305,79
13.7677,64
13.8048,63
13.8420,69
13.8791,78
13.9163,60
13.9534,60
13.9906,61
14.0277,78
14.0649,60
14.1020,67
14.1392,63
14.1763,67
14.2135,82
14.2506,68
14.2878,55
14.3250,51
14.3621,57
14.3993,65
14.4364,57
14.4736,57
14.5107,62
14.5479,60
14.5850,49
14.6222,57
14.6593,75
14.6965,84
14.7336,55
14.7708,62
14.8079,67
14.8451,64
14.8822,66
14.9194,71
14.9565,63
14.9937,58
15.0308,53
15.0680,67
15.1051,67
15.1423,85
15.1794,60
15.2166,67
15.2537,57
15.2909,69
15.3280,50
15.3652,56
15.4023,73
15.4395,60
15.4766,43
15.5138,59
15.5509,60
15.5881,59
15.6252,66
15.6624,48
15.6995,70
15.7367,64
15.7738,64
15.8110,80
15.8482,55
15.8853,53
15.9225,69
15.9596,55
15.9968,51
16.0339,58
16.0711,51
16.1082,69
16.1454,55
16.1825,55
16.2197,54
16.2568,53
16.2940,65
16.3311,50
16.3683,65
16.4054,44
16.4426,62
16.4797,70
16.5169,62
16.5540,58
16.5912,60
16.6283,71
16.6655,65
16.7026,63
16.7398,49
16.7769,48
16.8141,50
16.8512,72
16.8884,94
16.9255,62
16.9627,72
16.9998,58
17.0370,67
17.0741,57
17.1113,47
17.1484,57
17.1856,72
17.2227,64
17.2599,65
17.2970,65
17.3342,46
17.3713,61
17.4085,78
17.4457,59
17.4828,54
17.5200,47
17.5571,50
17.5943,45
17.6314,55
17.6686,68
17.7057,55
17.7429,55
17.7800,73
17.8172,64
17.8543,63
17.8915,80
17.9286,55
17.9658,70
18.0029,60
18.0401,55
18.0772,60
18.1144,73
18.1515,67
18.1887,69
18.2258,75
18.2630,63
18.3001,81
18.3373,67
18.3744,67
18.4116,55
18.4487,52
18.4859,75
18.5230,63
18.5602,52
18.5973,62
18.6345,73
18.6716,54
18.7088,63
18.7459,66
18.7831,49
18.8202,79
18.8574,60
18.8945,65
18.9317,66
18.9689,68
19.0060,72
19.0432,67
19.0803,64
19.1175,62
19.1546,59
19.1918,67
19.2289,62
19.2661,59
19.3032,69
19.3404,64
19.3775,67
19.4147,62
19.4518,56
19.4890,72
19.5261,73
19.5633,80
19.6004,69
19.6376,59
19.6747,88
19.7119,62
19.7490,64
19.7862,60
19.8233,72
19.8605,63
19.8976,61
19.9348,69
19.9719,71
20.0091,76
20.0462,65
20.0834,68
20.1205,68
20.1577,72
20.1948,61
20.2320,71
20.2691,61
20.3063,77
20.3434,59
20.3806,69
20.4177,77
20.4549,65
20.4921,81
20.5292,64
20.5664,61
20.6035,65
20.6407,66
20.6778,77
20.7150,73
20.7521,76
20.7893,73
20.8264,61
20.8636,74
20.9007,75
20.9379,78
20.9750,64
21.0122,87
21.0493,83
21.0865,73
21.1236,83
21.1608,102
21.1979,107
21.2351,136
21.2722,109
21.3094,114
21.3465,174
21.3837,158
21.4208,154
21.4580,68
21.4951,98
21.5323,71
21.5694,95
21.6066,64
21.6437,62
21.6809,71
21.7180,56
21.7552,74
21.7923,76
21.8295,67
21.8666,63
21.9038,85
21.9409,72
21.9781,70
22.0152,66
22.0524,69
22.0896,76
22.1267,63
22.1639,85
22.2010,82
22.2382,73
22.2753,76
22.3125,66
22.3496,62
22.3868,67
22.4239,66
22.4611,94
22.4982,56
22.5354,70
22.5725,73
22.6097,73
22.6468,79
22.6840,83
22.7211,67
22.7583,65
22.7954,81
22.8326,76
22.8697,63
22.9069,67
22.9440,69
22.9812,68
23.0183,75
23.0555,68
23.0926,80
23.1298,84
23.1669,83
23.2041,67
23.2412,71
23.2784,67
23.3155,71
23.3527,88
23.3898,84
23.4270,78
23.4641,67
23.5013,69
23.5384,69
23.5756,70
23.6128,65
23.6499,77
23.6871,66
23.7242,70
23.7614,79
23.7985,66
23.8357,81
23.8728,80
23.9100,78
23.9471,82
23.9843,63
24.0214,65
24.0586,75
24.0957,70
24.1329,78
24.1700,101
24.2072,83
24.2443,85
24.2815,85
24.3186,91
24.3558,79
24.3929,65
24.4301,68
24.4672,66
24.5044,60
24.5415,80
24.5787,75
24.6158,63
24.6530,66
24.6901,88
24.7273,85
24.7644,69
24.8016,61
24.8387,90
24.8759,84
24.9130,81
24.9502,75
24.9873,101
25.0245,69
25.0616,80
25.0988,80
25.1360,68
25.1731,67
25.2103,87
25.2474,61
25.2846,75
25.3217,70
25.3589,68
25.3960,73
25.4332,74
25.4703,66
25.5075,78
25.5446,59
25.5818,59
25.6189,71
25.6561,69
25.6932,78
25.7304,68
25.7675,66
25.8047,64
25.8418,73
25.8790,65
25.9161,82
25.9533,59
25.9904,65
26.0276,73
26.0647,64
26.1019,63
26.1390,65
26.1762,60
26.2133,73
26.2505,66
26.2876,77
26.3248,72
26.3619,59
26.3991,56
26.4362,70
26.4734,63
26.5105,62
26.5477,76
26.5848,83
26.6220,73
26.6591,76
26.6963,81
26.7335,77
26.7706,72
26.8078,65
26.8449,84
26.8821,76
26.9192,71
26.9564,68
26.9935,67
27.0307,62
27.0678,91
27.1050,71
27.1421,73
27.1793,79
27.2164,96
27.2536,77
27.2907,80
27.3279,50
27.3650,73
27.4022,74
27.4393,56
27.4765,64
27.5136,78
27.5508,81
27.5879,77
27.6251,75
27.6622,70
27.6994,56
27.7365,69
27.7737,76
27.8108,68
27.8480,69
27.8851,67
27.9223,69
27.9594,65
27.9966,73
28.0337,71
28.0709,51
28.1080,57
28.1452,73
28.1823,58
28.2195,78
28.2567,54
28.2938,77
28.3310,55
28.3681,62
28.4053,57
28.4424,80
28.4796,84
28.5167,60
28.5539,72
28.5910,61
28.6282,50
28.6653,64
28.7025,64
28.7396,55
28.7768,61
28.8139,67
28.8511,57
28.8882,61
28.9254,58
28.9625,66
28.9997,69
29.0368,57
29.0740,62
29.1111,63
29.1483,55
29.1854,63
29.2226,71
29.2597,50
29.2969,60
29.3340,61
29.3712,76
29.4083,50
29.4455,50
29.4826,51
29.5198,55
29.5569,62
29.5941,66
29.6312,56
29.6684,59
29.7055,60
29.7427,55
29.7799,50
29.8170,50
29.8542,43
29.8913,69
29.9285,57
29.9656,69
30.0028,55
30.0399,58
30.0771,58
30.1142,62
30.1514,54
30.1885,61
30.2257,50
30.2628,49
30.3000,85
30.3371,64
30.3743,128
30.4114,85
30.4486,95
30.4857,60
30.5229,61
30.5600,58
30.5972,63
30.6343,53
30.6715,59
30.7086,45
30.7458,64
30.7829,52
30.8201,52
30.8572,60
30.8944,54
30.9315,54
30.9687,53
31.0058,49
31.0430,70
31.0801,61
31.1173,59
31.1544,54
31.1916,60
31.2287,57
31.2659,41
31.3030,55
31.3402,48
31.3774,60
31.4145,57
31.4517,51
31.4888,45
31.5260,68
31.5631,37
31.6003,58
31.6374,70
31.6746,54
31.7117,46
31.7489,48
31.7860,63
31.8232,49
31.8603,53
31.8975,41
31.9346,55
31.9718,45
32.0089,65
32.0461,51
32.0832,45
32.1204,40
32.1575,40
32.1947,43
32.2318,54
32.2690,40
32.3061,48
32.3433,55
32.3804,56
32.4176,63
32.4547,49
32.4919,59
32.5290,52
32.5662,60
32.6033,52
32.6405,56
32.6776,35
32.7148,46
32.7519,55
32.7891,61
32.8262,48
32.8634,44
32.9006,45
32.9377,46
32.9749,39
33.0120,41
33.0492,52
33.0863,43
33.1235,43
33.1606,38
33.1978,41
33.2349,53
33.2721,54
33.3092,41
33.3464,39
33.3835,37
33.4207,41
33.4578,56
33.4950,40
33.5321,49
33.5693,46
33.6064,42
33.6436,31
33.6807,57
33.7179,42
33.7550,53
33.7922,44
33.8293,44
33.8665,39
33.9036,42
33.9408,38
33.9779,53
34.0151,43
34.0522,38
34.0894,43
34.1265,39
34.1637,38
34.2008,41
34.2380,45
34.2751,46
34.3123,36
34.3494,36
34.3866,44
34.4238,47
34.4609,35
34.4981,48
34.5352,41
34.5724,55
34.6095,63
34.6467,47
34.6838,40
34.7210,70
34.7581,56
34.7953,56
34.8324,49
34.8696,57
34.9067,45
34.9439,57
34.9810,45
35.0182,49
35.0553,32
35.0925,34
35.1296,36
35.1668,43
35.2039,46
35.2411,44
35.2782,30
35.3154,42
35.3525,48
35.3897,44
35.4268,47
35.4640,40
35.5011,44
35.5383,30
35.5754,28
35.6126,50
35.6497,29
35.6869,33
35.7240,51
35.7612,30
35.7983,41
35.8355,45
35.8726,44
35.9098,42
35.9469,37
35.9841,36
36.0213,40
36.0584,27
36.0956,40
36.1327,32
36.1699,33
36.2070,39
36.2442,39
36.2813,43
36.3185,41
36.3556,38
36.3928,46
36.4299,39
36.4671,33
36.5042,54
36.5414,41
36.5785,33
36.6157,31
36.6528,34
36.6900,33
36.7271,35
36.7643,38
36.8014,35
36.8386,29
36.8757,30
36.9129,32
36.9500,43
36.9872,36
37.0243,38
37.0615,31
37.0986,32
37.1358,40
37.1729,36
37.2101,38
37.2472,35
37.2844,40
37.3215,38
37.3587,47
37.3958,42
37.4330,53
37.4701,41
37.5073,43
37.5445,49
37.5816,35
37.6188,45
37.6559,34
37.6931,38
37.7302,36
37.7674,35
37.8045,29
37.8417,34
37.8788,33
37.9160,26
37.9531,30
37.9903,32
38.0274,31
38.0646,31
38.1017,23
38.1389,30
38.1760,29
38.2132,37
38.2503,35
38.2875,25
38.3246,35
38.3618,21
38.3989,38
38.4361,32
38.4732,35
38.5104,24
38.5475,33
38.5847,26
38.6218,35
38.6590,31
38.6961,49
38.7333,27
38.7704,27
38.8076,23
38.8447,18
38.8819,32
38.9190,35
38.9562,26
38.9933,28
39.0305,37
39.0677,37
39.1048,32
39.1420,25
39.1791,38
39.2163,22
39.2534,26
39.2906,41
39.3277,28
39.3649,33
39.4020,41
39.4392,24
39.4763,35
39.5135,25
39.5506,27
39.5878,31
39.6249,34
39.6621,33
39.6992,32
39.7364,25
39.7735,25
39.8107,30
39.8478,23
39.8850,22
39.9221,28
39.9593,35
39.9964,40
40.0336,26
40.0707,28
40.1079,33
40.1450,21
40.1822,26
40.2193,23
40.2565,43
40.2936,33
40.3308,23
40.3679,33
40.4051,34
40.4422,20
40.4794,24
40.5165,26
40.5537,27
40.5908,19
40.6280,29
40.6652,29
40.7023,24
40.7395,24
40.7766,20
40.8138,28
40.8509,24
40.8881,25
40.9252,25
40.9624,19
40.9995,33
41.0367,30
41.0738,25
41.1110,20
41.1481,25
41.1853,33
41.2224,30
41.2596,31
41.2967,22
41.3339,37
41.3710,28
41.4082,18
41.4453,25
41.4825,30
41.5196,23
41.5568,26
41.5939,30
41.6311,19
41.6682,36
41.7054,29
41.7425,41
41.7797,23
41.8168,27
41.8540,24
41.8911,28
41.9283,11
41.9654,31
42.0026,34
42.0397,37
42.0769,30
42.1140,35
42.1512,27
42.1884,23
42.2255,37
42.2627,28
42.2998,25
42.3370,29
42.3741,26
42.4113,26
42.4484,21
42.4856,22
42.5227,28
42.5599,30
42.5970,25
42.6342,23
42.6713,30
42.7085,37
42.7456,30
42.7828,23
42.8199,25
42.8571,32
42.8942,20
42.9314,27
42.9685,38
43.0057,28
43.0428,33
43.0800,24
43.1171,31
43.1543,27
43.1914,34
43.2286,41
43.2657,28
43.3029,29
43.3400,35
43.3772,24
43.4143,27
43.4515,37
43.4886,51
43.5258,45
43.5629,34
43.6001,49
43.6372,36
43.6744,38
43.7116,13
43.7487,28
43.7859,30
43.8230,25
43.8602,24
43.8973,32
43.9345,36
43.9716,29
44.0088,29
44.0459,23
44.0831,32
44.1202,28
44.1574,23
44.1945,28
44.2317,32
44.2688,33
44.3060,21
44.3431,24
44.3803,40
44.4174,27
44.4546,27
44.4917,32
44.5289,36
44.5660,31
44.6032,36
44.6403,28
44.6775,29
44.7146,24
44.7518,46
44.7889,24
44.8261,18
44.8632,30
44.9004,26
44.9375,22
44.9747,21
45.0118,19
45.0490,28
45.0861,30
45.1233,18
45.1604,26
45.1976,23
45.2347,26
45.2719,26
45.3091,33
45.3462,22
45.3834,30
45.4205,29
45.4577,33
45.4948,20
45.5320,22
45.5691,18
45.6063,24
45.6434,24
45.6806,20
45.7177,25
45.7549,29
45.7920,21
45.8292,15
45.8663,26
45.9035,26
45.9406,21
45.9778,19
46.0149,27
46.0521,22
46.0892,24
46.1264,23
46.1635,23
46.2007,34
46.2378,26
46.2750,28
46.3121,23
46.3493,30
46.3864,28
46.4236,15
46.4607,32
46.4979,37
46.5350,25
46.5722,28
46.6093,30
46.6465,20
46.6836,19
46.7208,29
46.7579,19
46.7951,19
46.8323,25
46.8694,27
46.9066,27
46.9437,17
46.9809,21
47.0180,23
47.0552,20
47.0923,23
47.1295,28
47.1666,19
47.2038,24
47.2409,21
47.2781,19
47.3152,18
47.3524,30
47.3895,25
47.4267,26
47.4638,27
47.5010,26
47.5381,25
47.5753,28
47.6124,14
47.6496,26
47.6867,21
47.7239,24
47.7610,28
47.7982,19
47.8353,26
47.8725,21
47.9096,11
47.9468,22
47.9839,21
48.0211,19
48.0582,17
48.0954,24
48.1325,22
48.1697,30
48.2068,19
48.2440,29
48.2811,25
48.3183,20
48.3555,24
48.3926,23
48.4298,26
48.4669,22
48.5041,27
48.5412,27
48.5784,20
48.6155,28
48.6527,20
48.6898,29
48.7270,29
48.7641,27
48.8013,26
48.8384,29
48.8756,21
48.9127,17
48.9499,39
48.9870,45
49.0242,24
49.0613,29
49.0985,30
49.1356,32
49.1728,30
49.2099,22
49.2471,24
49.2842,18
49.3214,22
49.3585,19
49.3957,20
49.4328,21
49.4700,23
49.5071,19
49.5443,22
49.5814,20
49.6186,19
49.6557,27
49.6929,20
49.7300,30
49.7672,17
49.8043,27
49.8415,20
49.8786,21
49.9158,22
49.9530,28
49.9901,17
50.0273,19
50.0644,27
50.1016,19
50.1387,21
50.1759,30
50.2130,24
50.2502,13
50.2873,28
50.3245,23
50.3616,26
50.3988,18
50.4359,24
50.4731,15
50.5102,26
50.5474,23
50.5845,24
50.6217,25
50.6588,19
50.6960,28
50.7331,16
50.7703,20
50.8074,21
50.8446,27
50.8817,26
50.9189,20
50.9560,22
50.9932,36
51.0303,15
51.0675,19
51.1046,21
51.1418,26
51.1789,21
51.2161,14
51.2532,20
51.2904,17
51.3275,27
51.3647,26
51.4018,28
51.4390,26
51.4762,26
51.5133,25
51.5505,25
51.5876,30
51.6248,22
51.6619,19
51.6991,25
51.7362,22
51.7734,23
51.8105,20
51.8477,20
51.8848,30
51.9220,16
51.9591,22
51.9963,28
52.0334,24
52.0706,18
52.1077,24
52.1449,14
52.1820,21
52.2192,28
52.2563,19
52.2935,23
52.3306,25
52.3678,16
52.4049,20
52.4421,20
52.4792,19
52.5164,27
52.5535,22
52.5907,22
52.6278,26
52.6650,14
52.7021,15
52.7393,31
52.7764,27
52.8136,21
52.8507,11
52.8879,25
52.9250,23
52.9622,23
52.9994,30
53.0365,24
53.0737,25
53.1108,19
53.1480,21
53.1851,13
53.2223,24
53.2594,14
53.2966,31
53.3337,21
53.3709,17
53.4080,22
53.4452,15
53.4823,20
53.5195,13
53.5566,21
53.5938,21
53.6309,20
53.6681,20
53.7052,26
53.7424,21
53.7795,17
53.8167,23
53.8538,30
53.8910,21
53.9281,16
53.9653,24
54.0024,31
54.0396,24
54.0767,23
54.1139,24
54.1510,27
54.1882,24
54.2253,15
54.2625,24
54.2996,20
54.3368,24
54.3739,28
54.4111,28
54.4482,18
54.4854,19
54.5225,23
54.5597,22
54.5969,18
54.6340,18
54.6712,22
54.7083,18
54.7455,17
54.7826,14
54.8198,16
54.8569,21
54.8941,14
54.9312,19
54.9684,20
55.0055,25
55.0427,32
55.0798,22
55.1170,20
55.1541,22
55.1913,20
55.2284,22
55.2656,19
55.3027,24
55.3399,16
55.3770,16
55.4142,13
55.4513,22
55.4885,21
55.5256,19
55.5628,19
55.5999,18
55.6371,22
55.6742,19
55.7114,22
55.7485,20
55.7857,25
55.8228,16
55.8600,17
55.8971,24
55.9343,17
55.9714,32
56.0086,17
56.0457,24
56.0829,20
56.1201,22
56.1572,20
56.1944,29
56.2315,24
56.2687,22
56.3058,30
56.3430,17
56.3801,21
56.4173,14
56.4544,18
56.4916,25
56.5287,28
56.5659,24
56.6030,24
56.6402,22
56.6773,23
56.7145,25
56.7516,12
56.7888,24
56.8259,22
56.8631,19
56.9002,23
56.9374,22
56.9745,16
57.0117,23
57.0488,15
57.0860,23
57.1231,22
57.1603,20
57.1974,18
57.2346,29
57.2717,10
57.3089,20
57.3460,19
57.3832,22
57.4203,19
57.4575,17
57.4946,24
57.5318,16
57.5689,24
57.6061,19
57.6433,19
57.6804,30
57.7176,26
57.7547,29
57.7919,16
57.8290,25
57.8662,23
57.9033,19
57.9405,16
57.9776,21
58.0148,27
58.0519,24
58.0891,18
58.1262,26
58.1634,23
58.2005,21
58.2377,19
58.2748,27
58.3120,17
58.3491,13
58.3863,20
58.4234,16
58.4606,19
58.4977,21
58.5349,32
58.5720,20
58.6092,26
58.6463,14
58.6835,26
58.7206,18
58.7578,26
58.7949,20
58.8321,15
58.8692,18
58.9064,22
58.9435,25
58.9807,24
59.0178,18
59.0550,20
59.0921,23
59.1293,18
59.1664,20
59.2036,28
59.2408,21
59.2779,20
59.3151,21
59.3522,25
59.3894,29
59.4265,24
59.4637,19
59.5008,24
59.5380,18
59.5751,12
59.6123,15
59.6494,15
59.6866,24
59.7237,26
59.7609,31
59.7980,21
59.8352,22
59.8723,25
59.9095,15
59.9466,27
59.9838,20
60.0024,28