File: notebooks/data/xrd_data/ML_20220720_14_SJD_4_LaB6-1min.csv
;,2THETA,
5.0000,107
5.0372,99
5.0743,89
5.1115,91
5.1486,110
5.1858,87
5.2229,92
5.2601,80
5.2972,90
5.3344,87
5.3715,97
5.4087,103
5.4458,80
5.4830,81
5.5201,68
5.5573,99
5.5944,79
5.6316,82
5.6687,79
5.7059,79
5.7430,69
5.7802,84
5.8173,73
5.8545,80
5.8916,71
5.9288,83
5.9659,87
6.0031,65
6.0402,67
6.0774,69
6.1145,81
6.1517,63
6.1888,70
6.2260,58
6.2631,76
6.3003,85
6.3374,69
6.3746,81
6.4117,63
6.4489,65
6.4860,87
6.5232,76
6.5604,79
6.5975,60
6.6347,62
6.6718,55
6.7090,55
6.7461,52
6.7833,66
6.8204,50
6.8576,52
6.8947,67
6.9319,66
6.9690,73
7.0062,52
7.0433,66
7.0805,63
7.1176,49
7.1548,65
7.1919,61
7.2291,49
7.2662,66
7.3034,68
7.3405,59
7.3777,50
7.4148,52
7.4520,49
7.4891,57
7.5263,53
7.5634,51
7.6006,56
7.6377,65
7.6749,70
7.7120,69
7.7492,71
7.7863,59
7.8235,48
7.8606,77
7.8978,69
7.9349,82
7.9721,79
8.0092,82
8.0464,55
8.0835,67
8.1207,75
8.1579,88
8.1950,58
8.2322,71
8.2693,87
8.3065,76
8.3436,68
8.3808,64
8.4179,70
8.4551,75
8.4922,57
8.5294,69
8.5665,71
8.6037,67
8.6408,75
8.6780,63
8.7151,75
8.7523,76
8.7894,81
8.8266,63
8.8637,73
8.9009,82
8.9380,63
8.9752,78
9.0123,74
9.0495,88
9.0866,98
9.1238,88
9.1609,83
9.1981,80
9.2352,68
9.2724,80
9.3095,69
9.3467,78
9.3838,93
9.4210,74
9.4581,80
9.4953,75
9.5324,84
9.5696,96
9.6067,80
9.6439,91
9.6811,73
9.7182,91
9.7554,79
9.7925,106
9.8297,71
9.8668,100
9.9040,71
9.9411,86
9.9783,89
10.0154,86
10.0526,91
10.0897,87
10.1269,89
10.1640,80
10.2012,85
10.2383,84
10.2755,79
10.3126,91
10.3498,80
10.3869,84
10.4241,85
10.4612,92
10.4984,82
10.5355,98
10.5727,101
10.6098,84
10.6470,71
10.6841,84
10.7213,86
10.7584,80
10.7956,94
10.8327,82
10.8699,79
10.9070,78
10.9442,74
10.9813,97
11.0185,77
11.0556,87
11.0928,87
11.1299,83
11.1671,80
11.2043,71
11.2414,97
11.2786,89
11.3157,89
11.3529,83
11.3900,108
11.4272,92
11.4643,80
11.5015,79
11.5386,76
11.5758,92
11.6129,88
11.6501,81
11.6872,79
11.7244,86
11.7615,72
11.7987,91
11.8358,75
11.8730,74
11.9101,71
11.9473,90
11.9844,86
12.0216,90
12.0587,79
12.0959,89
12.1330,67
12.1702,68
12.2073,81
12.2445,94
12.2816,88
12.3188,79
12.3559,93
12.3931,76
12.4302,69
12.4674,77
12.5045,84
12.5417,81
12.5788,87
12.6160,78
12.6531,76
12.6903,79
12.7274,78
12.7646,78
12.8018,73
12.8389,71
12.8761,63
12.9132,79
12.9504,68
12.9875,93
13.0247,64
13.0618,80
13.0990,82
13.1361,84
13.1733,87
13.2104,67
13.2476,68
13.2847,67
13.3219,73
13.3590,90
13.3962,52
13.4333,98
13.4705,85
13.5076,69
13.5448,68
13.5819,68
13.6191,77
13.6562,49
13.6934,60
13.7305,59
13.7677,63
13.8048,64
13.8420,76
13.8791,76
13.9163,77
13.9534,61
13.9906,56
14.0277,66
14.0649,69
14.1020,73
14.1392,48
14.1763,74
14.2135,58
14.2506,56
14.2878,83
14.3250,70
14.3621,68
14.3993,70
14.4364,60
14.4736,65
14.5107,72
14.5479,66
14.5850,56
14.6222,66
14.6593,62
14.6965,62
14.7336,69
14.7708,55
14.8079,58
14.8451,59
14.8822,69
14.9194,66
14.9565,69
14.9937,62
15.0308,62
15.0680,60
15.1051,62
15.1423,47
15.1794,62
15.2166,62
15.2537,56
15.2909,59
15.3280,60
15.3652,68
15.4023,49
15.4395,47
15.4766,60
15.5138,57
15.5509,71
15.5881,63
15.6252,58
15.6624,48
15.6995,67
15.7367,54
15.7738,61
15.8110,48
15.8482,57
15.8853,68
15.9225,64
15.9596,72
15.9968,39
16.0339,66
16.0711,59
16.1082,61
16.1454,57
16.1825,67
16.2197,69
16.2568,65
16.2940,78
16.3311,64
16.3683,47
16.4054,57
16.4426,66
16.4797,56
16.5169,60
16.5540,65
16.5912,62
16.6283,50
16.6655,63
16.7026,51
16.7398,56
16.7769,44
16.8141,65
16.8512,75
16.8884,56
16.9255,46
16.9627,57
16.9998,67
17.0370,59
17.0741,56
17.1113,81
17.1484,52
17.1856,64
17.2227,53
17.2599,69
17.2970,56
17.3342,67
17.3713,49
17.4085,65
17.4457,63
17.4828,76
17.5200,53
17.5571,59
17.5943,48
17.6314,55
17.6686,57
17.7057,62
17.7429,57
17.7800,52
17.8172,62
17.8543,59
17.8915,63
17.9286,61
17.9658,64
18.0029,61
18.0401,66
18.0772,74
18.1144,50
18.1515,58
18.1887,48
18.2258,64
18.2630,80
18.3001,69
18.3373,68
18.3744,62
18.4116,58
18.4487,66
18.4859,75
18.5230,68
18.5602,80
18.5973,46
18.6345,56
18.6716,67
18.7088,54
18.7459,73
18.7831,62
18.8202,55
18.8574,77
18.8945,54
18.9317,57
18.9689,54
19.0060,61
19.0432,51
19.0803,70
19.1175,59
19.1546,79
19.1918,55
19.2289,53
19.2661,64
19.3032,59
19.3404,41
19.3775,64
19.4147,67
19.4518,63
19.4890,85
19.5261,70
19.5633,69
19.6004,47
19.6376,64
19.6747,70
19.7119,75
19.7490,65
19.7862,64
19.8233,68
19.8605,63
19.8976,65
19.9348,59
19.9719,66
20.0091,62
20.0462,71
20.0834,65
20.1205,61
20.1577,62
20.1948,63
20.2320,56
20.2691,65
20.3063,65
20.3434,68
20.3806,60
20.4177,64
20.4549,59
20.4921,66
20.5292,80
20.5664,76
20.6035,62
20.6407,56
20.6778,73
20.7150,66
20.7521,68
20.7893,65
20.8264,68
20.8636,66
20.9007,61
20.9379,89
20.9750,65
21.0122,73
21.0493,68
21.0865,90
21.1236,90
21.1608,78
21.1979,110
21.2351,128
21.2722,113
21.3094,118
21.3465,157
21.3837,158
21.4208,134
21.4580,74
21.4951,80
21.5323,68
21.5694,64
21.6066,86
21.6437,58
21.6809,92
21.7180,77
21.7552,80
21.7923,64
21.8295,87
21.8666,67
21.9038,83
21.9409,76
21.9781,73
22.0152,81
22.0524,60
22.0896,73
22.1267,63
22.1639,89
22.2010,74
22.2382,64
22.2753,70
22.3125,81
22.3496,68
22.3868,83
22.4239,75
22.4611,65
22.4982,67
22.5354,53
22.5725,69
22.6097,61
22.6468,75
22.6840,76
22.7211,58
22.7583,70
22.7954,64
22.8326,81
22.8697,74
22.9069,75
22.9440,79
22.9812,74
23.0183,70
23.0555,69
23.0926,79
23.1298,90
23.1669,79
23.2041,63
23.2412,60
23.2784,72
23.3155,58
23.3527,71
23.3898,77
23.4270,87
23.4641,81
23.5013,78
23.5384,82
23.5756,75
23.6128,80
23.6499,60
23.6871,71
23.7242,77
23.7614,68
23.7985,62
23.8357,74
23.8728,60
23.9100,66
23.9471,71
23.9843,71
24.0214,71
24.0586,63
24.0957,72
24.1329,87
24.1700,69
24.2072,68
24.2443,74
24.2815,111
24.3186,83
24.3558,74
24.3929,63
24.4301,71
24.4672,75
24.5044,68
24.5415,79
24.5787,73
24.6158,78
24.6530,67
24.6901,64
24.7273,60
24.7644,90
24.8016,73
24.8387,71
24.8759,59
24.9130,72
24.9502,79
24.9873,67
25.0245,62
25.0616,75
25.0988,85
25.1360,85
25.1731,66
25.2103,54
25.2474,70
25.2846,67
25.3217,68
25.3589,71
25.3960,64
25.4332,81
25.4703,74
25.5075,64
25.5446,71
25.5818,78
25.6189,74
25.6561,69
25.6932,70
25.7304,85
25.7675,71
25.8047,60
25.8418,63
25.8790,74
25.9161,62
25.9533,75
25.9904,68
26.0276,67
26.0647,77
26.1019,68
26.1390,70
26.1762,68
26.2133,74
26.2505,75
26.2876,60
26.3248,76
26.3619,78
26.3991,51
26.4362,72
26.4734,80
26.5105,63
26.5477,86
26.5848,55
26.6220,71
26.6591,63
26.6963,78
26.7335,64
26.7706,87
26.8078,82
26.8449,63
26.8821,76
26.9192,73
26.9564,67
26.9935,61
27.0307,77
27.0678,76
27.1050,63
27.1421,68
27.1793,91
27.2164,79
27.2536,99
27.2907,86
27.3279,78
27.3650,79
27.4022,65
27.4393,89
27.4765,71
27.5136,57
27.5508,77
27.5879,68
27.6251,61
27.6622,77
27.6994,72
27.7365,69
27.7737,51
27.8108,64
27.8480,65
27.8851,62
27.9223,56
27.9594,62
27.9966,74
28.0337,64
28.0709,60
28.1080,58
28.1452,61
28.1823,60
28.2195,57
28.2567,75
28.2938,66
28.3310,56
28.3681,69
28.4053,67
28.4424,62
28.4796,57
28.5167,59
28.5539,61
28.5910,60
28.6282,55
28.6653,52
28.7025,73
28.7396,68
28.7768,76
28.8139,53
28.8511,47
28.8882,51
28.9254,50
28.9625,75
28.9997,67
29.0368,60
29.0740,49
29.1111,69
29.1483,60
29.1854,73
29.2226,61
29.2597,59
29.2969,49
29.3340,56
29.3712,66
29.4083,59
29.4455,49
29.4826,58
29.5198,60
29.5569,66
29.5941,48
29.6312,54
29.6684,73
29.7055,63
29.7427,51
29.7799,55
29.8170,61
29.8542,52
29.8913,63
29.9285,62
29.9656,53
30.0028,61
30.0399,60
30.0771,59
30.1142,48
30.1514,66
30.1885,74
30.2257,60
30.2628,53
30.3000,65
30.3371,64
30.3743,134
30.4114,100
30.4486,80
30.4857,84
30.5229,57
30.5600,47
30.5972,48
30.6343,68
30.6715,65
30.7086,42
30.7458,50
30.7829,52
30.8201,46
30.8572,42
30.8944,60
30.9315,54
30.9687,64
31.0058,69
31.0430,51
31.0801,40
31.1173,40
31.1544,40
31.1916,54
31.2287,54
31.2659,49
31.3030,49
31.3402,57
31.3774,43
31.4145,59
31.4517,46
31.4888,47
31.5260,58
31.5631,64
31.6003,44
31.6374,52
31.6746,58
31.7117,45
31.7489,38
31.7860,58
31.8232,55
31.8603,46
31.8975,48
31.9346,62
31.9718,59
32.0089,56
32.0461,51
32.0832,52
32.1204,51
32.1575,49
32.1947,40
32.2318,44
32.2690,39
32.3061,43
32.3433,43
32.3804,39
32.4176,53
32.4547,42
32.4919,62
32.5290,53
32.5662,66
32.6033,45
32.6405,45
32.6776,33
32.7148,42
32.7519,57
32.7891,37
32.8262,48
32.8634,39
32.9006,38
32.9377,39
32.9749,49
33.0120,43
33.0492,45
33.0863,46
33.1235,47
33.1606,35
33.1978,38
33.2349,44
33.2721,46
33.3092,48
33.3464,43
33.3835,37
33.4207,33
33.4578,46
33.4950,49
33.5321,51
33.5693,50
33.6064,41
33.6436,36
33.6807,32
33.7179,39
33.7550,39
33.7922,47
33.8293,31
33.8665,38
33.9036,45
33.9408,42
33.9779,42
34.0151,37
34.0522,32
34.0894,52
34.1265,45
34.1637,50
34.2008,44
34.2380,53
34.2751,36
34.3123,44
34.3494,47
34.3866,40
34.4238,41
34.4609,44
34.4981,48
34.5352,44
34.5724,42
34.6095,41
34.6467,55
34.6838,45
34.7210,61
34.7581,61
34.7953,53
34.8324,52
34.8696,44
34.9067,43
34.9439,40
34.9810,35
35.0182,36
35.0553,40
35.0925,34
35.1296,49
35.1668,45
35.2039,43
35.2411,32
35.2782,30
35.3154,37
35.3525,37
35.3897,41
35.4268,34
35.4640,25
35.5011,36
35.5383,27
35.5754,41
35.6126,32
35.6497,34
35.6869,31
35.7240,36
35.7612,27
35.7983,39
35.8355,39
35.8726,38
35.9098,35
35.9469,37
35.9841,33
36.0213,32
36.0584,33
36.0956,34
36.1327,43
36.1699,36
36.2070,41
36.2442,34
36.2813,35
36.3185,45
36.3556,28
36.3928,29
36.4299,38
36.4671,43
36.5042,37
36.5414,30
36.5785,27
36.6157,33
36.6528,36
36.6900,30
36.7271,35
36.7643,33
36.8014,30
36.8386,28
36.8757,29
36.9129,28
36.9500,26
36.9872,36
37.0243,36
37.0615,27
37.0986,31
37.1358,38
37.1729,42
37.2101,37
37.2472,35
37.2844,25
37.3215,39
37.3587,22
37.3958,38
37.4330,63
37.4701,55
37.5073,54
37.5445,47
37.5816,41
37.6188,38
37.6559,35
37.6931,31
37.7302,42
37.7674,25
37.8045,30
37.8417,34
37.8788,27
37.9160,40
37.9531,30
37.9903,21
38.0274,19
38.0646,40
38.1017,34
38.1389,33
38.1760,41
38.2132,38
38.2503,44
38.2875,30
38.3246,33
38.3618,36
38.3989,23
38.4361,31
38.4732,40
38.5104,25
38.5475,36
38.5847,34
38.6218,28
38.6590,31
38.6961,35
38.7333,36
38.7704,23
38.8076,30
38.8447,28
38.8819,36
38.9190,28
38.9562,34
38.9933,37
39.0305,23
39.0677,29
39.1048,30
39.1420,36
39.1791,33
39.2163,33
39.2534,28
39.2906,28
39.3277,21
39.3649,40
39.4020,31
39.4392,24
39.4763,28
39.5135,35
39.5506,35
39.5878,36
39.6249,39
39.6621,25
39.6992,24
39.7364,15
39.7735,24
39.8107,33
39.8478,28
39.8850,31
39.9221,34
39.9593,32
39.9964,24
40.0336,33
40.0707,27
40.1079,32
40.1450,30
40.1822,25
40.2193,25
40.2565,27
40.2936,29
40.3308,34
40.3679,18
40.4051,26
40.4422,27
40.4794,23
40.5165,35
40.5537,28
40.5908,19
40.6280,29
40.6652,25
40.7023,24
40.7395,29
40.7766,29
40.8138,17
40.8509,31
40.8881,31
40.9252,26
40.9624,27
40.9995,33
41.0367,28
41.0738,43
41.1110,26
41.1481,26
41.1853,28
41.2224,28
41.2596,24
41.2967,32
41.3339,25
41.3710,28
41.4082,25
41.4453,26
41.4825,24
41.5196,34
41.5568,28
41.5939,27
41.6311,24
41.6682,34
41.7054,21
41.7425,29
41.7797,27
41.8168,29
41.8540,31
41.8911,33
41.9283,26
41.9654,22
42.0026,36
42.0397,33
42.0769,24
42.1140,33
42.1512,34
42.1884,20
42.2255,27
42.2627,33
42.2998,29
42.3370,26
42.3741,20
42.4113,23
42.4484,26
42.4856,25
42.5227,24
42.5599,31
42.5970,29
42.6342,20
42.6713,34
42.7085,20
42.7456,27
42.7828,22
42.8199,28
42.8571,23
42.8942,25
42.9314,23
42.9685,30
43.0057,33
43.0428,22
43.0800,28
43.1171,36
43.1543,26
43.1914,40
43.2286,28
43.2657,35
43.3029,25
43.3400,30
43.3772,25
43.4143,27
43.4515,38
43.4886,47
43.5258,45
43.5629,32
43.6001,36
43.6372,38
43.6744,26
43.7116,34
43.7487,32
43.7859,26
43.8230,34
43.8602,26
43.8973,30
43.9345,22
43.9716,21
44.0088,23
44.0459,26
44.0831,23
44.1202,25
44.1574,28
44.1945,22
44.2317,28
44.2688,35
44.3060,26
44.3431,29
44.3803,39
44.4174,18
44.4546,22
44.4917,33
44.5289,25
44.5660,35
44.6032,20
44.6403,30
44.6775,27
44.7146,29
44.7518,33
44.7889,36
44.8261,22
44.8632,24
44.9004,30
44.9375,20
44.9747,20
45.0118,20
45.0490,21
45.0861,28
45.1233,26
45.1604,23
45.1976,31
45.2347,20
45.2719,23
45.3091,18
45.3462,30
45.3834,29
45.4205,16
45.4577,30
45.4948,26
45.5320,22
45.5691,25
45.6063,22
45.6434,24
45.6806,29
45.7177,24
45.7549,32
45.7920,29
45.8292,36
45.8663,20
45.9035,15
45.9406,34
45.9778,25
46.0149,23
46.0521,29
46.0892,23
46.1264,29
46.1635,18
46.2007,17
46.2378,29
46.2750,23
46.3121,28
46.3493,27
46.3864,19
46.4236,25
46.4607,23
46.4979,24
46.5350,15
46.5722,24
46.6093,18
46.6465,25
46.6836,33
46.7208,28
46.7579,26
46.7951,21
46.8323,29
46.8694,21
46.9066,27
46.9437,26
46.9809,24
47.0180,23
47.0552,21
47.0923,18
47.1295,27
47.1666,33
47.2038,24
47.2409,18
47.2781,20
47.3152,26
47.3524,20
47.3895,29
47.4267,25
47.4638,23
47.5010,25
47.5381,25
47.5753,19
47.6124,16
47.6496,25
47.6867,19
47.7239,29
47.7610,26
47.7982,18
47.8353,17
47.8725,17
47.9096,16
47.9468,28
47.9839,18
48.0211,13
48.0582,24
48.0954,17
48.1325,31
48.1697,21
48.2068,18
48.2440,20
48.2811,23
48.3183,23
48.3555,20
48.3926,22
48.4298,22
48.4669,23
48.5041,12
48.5412,33
48.5784,20
48.6155,20
48.6527,29
48.6898,25
48.7270,30
48.7641,28
48.8013,23
48.8384,28
48.8756,31
48.9127,34
48.9499,41
48.9870,39
49.0242,26
49.0613,28
49.0985,26
49.1356,28
49.1728,22
49.2099,21
49.2471,24
49.2842,16
49.3214,23
49.3585,22
49.3957,20
49.4328,20
49.4700,25
49.5071,18
49.5443,26
49.5814,21
49.6186,21
49.6557,21
49.6929,20
49.7300,22
49.7672,20
49.8043,18
49.8415,24
49.8786,29
49.9158,21
49.9530,34
49.9901,19
50.0273,23
50.0644,28
50.1016,17
50.1387,30
50.1759,22
50.2130,20
50.2502,28
50.2873,30
50.3245,24
50.3616,21
50.3988,16
50.4359,16
50.4731,18
50.5102,19
50.5474,14
50.5845,20
50.6217,25
50.6588,17
50.6960,26
50.7331,18
50.7703,18
50.8074,25
50.8446,26
50.8817,20
50.9189,21
50.9560,17
50.9932,30
51.0303,22
51.0675,22
51.1046,24
51.1418,25
51.1789,14
51.2161,20
51.2532,21
51.2904,18
51.3275,32
51.3647,20
51.4018,24
51.4390,23
51.4762,30
51.5133,34
51.5505,25
51.5876,27
51.6248,23
51.6619,20
51.6991,18
51.7362,25
51.7734,21
51.8105,17
51.8477,22
51.8848,28
51.9220,32
51.9591,23
51.9963,22
52.0334,22
52.0706,20
52.1077,23
52.1449,17
52.1820,16
52.2192,26
52.2563,29
52.2935,24
52.3306,17
52.3678,17
52.4049,25
52.4421,13
52.4792,15
52.5164,24
52.5535,30
52.5907,26
52.6278,18
52.6650,20
52.7021,24
52.7393,20
52.7764,20
52.8136,23
52.8507,23
52.8879,16
52.9250,12
52.9622,16
52.9994,36
53.0365,25
53.0737,17
53.1108,19
53.1480,24
53.1851,16
53.2223,25
53.2594,24
53.2966,22
53.3337,24
53.3709,17
53.4080,18
53.4452,19
53.4823,22
53.5195,20
53.5566,22
53.5938,21
53.6309,22
53.6681,25
53.7052,29
53.7424,21
53.7795,21
53.8167,24
53.8538,21
53.8910,17
53.9281,26
53.9653,32
54.0024,31
54.0396,29
54.0767,26
54.1139,26
54.1510,31
54.1882,28
54.2253,15
54.2625,17
54.2996,20
54.3368,18
54.3739,13
54.4111,30
54.4482,25
54.4854,21
54.5225,22
54.5597,20
54.5969,21
54.6340,21
54.6712,13
54.7083,17
54.7455,16
54.7826,25
54.8198,24
54.8569,19
54.8941,35
54.9312,18
54.9684,27
55.0055,23
55.0427,19
55.0798,21
55.1170,23
55.1541,21
55.1913,22
55.2284,19
55.2656,19
55.3027,19
55.3399,21
55.3770,17
55.4142,25
55.4513,23
55.4885,24
55.5256,20
55.5628,21
55.5999,15
55.6371,19
55.6742,15
55.7114,18
55.7485,27
55.7857,26
55.8228,26
55.8600,18
55.8971,24
55.9343,16
55.9714,16
56.0086,21
56.0457,20
56.0829,16
56.1201,18
56.1572,26
56.1944,25
56.2315,23
56.2687,25
56.3058,26
56.3430,24
56.3801,24
56.4173,32
56.4544,18
56.4916,27
56.5287,15
56.5659,20
56.6030,24
56.6402,19
56.6773,36
56.7145,20
56.7516,19
56.7888,25
56.8259,32
56.8631,19
56.9002,16
56.9374,18
56.9745,21
57.0117,13
57.0488,23
57.0860,20
57.1231,16
57.1603,16
57.1974,29
57.2346,20
57.2717,12
57.3089,22
57.3460,16
57.3832,18
57.4203,20
57.4575,19
57.4946,16
57.5318,17
57.5689,23
57.6061,19
57.6433,20
57.6804,15
57.7176,16
57.7547,27
57.7919,28
57.8290,19
57.8662,21
57.9033,24
57.9405,26
57.9776,22
58.0148,17
58.0519,13
58.0891,20
58.1262,14
58.1634,21
58.2005,21
58.2377,20
58.2748,21
58.3120,21
58.3491,20
58.3863,25
58.4234,16
58.4606,24
58.4977,21
58.5349,21
58.5720,24
58.6092,22
58.6463,21
58.6835,22
58.7206,18
58.7578,18
58.7949,27
58.8321,19
58.8692,15
58.9064,17
58.9435,16
58.9807,25
59.0178,24
59.0550,20
59.0921,29
59.1293,22
59.1664,21
59.2036,11
59.2408,13
59.2779,20
59.3151,25
59.3522,17
59.3894,22
59.4265,25
59.4637,20
59.5008,17
59.5380,27
59.5751,25
59.6123,16
59.6494,21
59.6866,15
59.7237,12
59.7609,21
59.7980,21
59.8352,17
59.8723,19
59.9095,19
59.9466,15
59.9838,29
60.0024,17