File: notebooks/data/xrd_data/ML_20220718_41_SJD_4_LaB6-1min.csv
;,2THETA,
5.0000,115
5.0372,109
5.0743,93
5.1115,101
5.1486,100
5.1858,77
5.2229,86
5.2601,80
5.2972,74
5.3344,97
5.3715,71
5.4087,79
5.4458,95
5.4830,90
5.5201,68
5.5573,73
5.5944,77
5.6316,76
5.6687,76
5.7059,85
5.7430,70
5.7802,83
5.8173,71
5.8545,79
5.8916,77
5.9288,82
5.9659,75
6.0031,53
6.0402,88
6.0774,65
6.1145,61
6.1517,48
6.1888,69
6.2260,55
6.2631,61
6.3003,61
6.3374,59
6.3746,68
6.4117,74
6.4489,72
6.4860,65
6.5232,70
6.5604,62
6.5975,83
6.6347,61
6.6718,64
6.7090,76
6.7461,59
6.7833,55
6.8204,63
6.8576,60
6.8947,76
6.9319,67
6.9690,53
7.0062,69
7.0433,59
7.0805,57
7.1176,64
7.1548,75
7.1919,66
7.2291,66
7.2662,55
7.3034,49
7.3405,63
7.3777,68
7.4148,51
7.4520,45
7.4891,60
7.5263,51
7.5634,62
7.6006,68
7.6377,57
7.6749,65
7.7120,57
7.7492,56
7.7863,64
7.8235,63
7.8606,58
7.8978,63
7.9349,64
7.9721,74
8.0092,81
8.0464,73
8.0835,48
8.1207,60
8.1579,68
8.1950,58
8.2322,74
8.2693,73
8.3065,82
8.3436,70
8.3808,62
8.4179,69
8.4551,60
8.4922,62
8.5294,78
8.5665,67
8.6037,64
8.6408,76
8.6780,81
8.7151,70
8.7523,68
8.7894,73
8.8266,61
8.8637,69
8.9009,85
8.9380,81
8.9752,83
9.0123,61
9.0495,73
9.0866,67
9.1238,77
9.1609,94
9.1981,85
9.2352,73
9.2724,71
9.3095,90
9.3467,78
9.3838,91
9.4210,72
9.4581,81
9.4953,95
9.5324,83
9.5696,87
9.6067,87
9.6439,90
9.6811,90
9.7182,78
9.7554,95
9.7925,90
9.8297,84
9.8668,80
9.9040,82
9.9411,85
9.9783,101
10.0154,83
10.0526,105
10.0897,104
10.1269,86
10.1640,88
10.2012,99
10.2383,104
10.2755,96
10.3126,95
10.3498,85
10.3869,90
10.4241,90
10.4612,100
10.4984,91
10.5355,84
10.5727,86
10.6098,98
10.6470,87
10.6841,67
10.7213,83
10.7584,96
10.7956,82
10.8327,86
10.8699,100
10.9070,89
10.9442,107
10.9813,78
11.0185,78
11.0556,85
11.0928,94
11.1299,81
11.1671,95
11.2043,80
11.2414,89
11.2786,95
11.3157,93
11.3529,91
11.3900,78
11.4272,80
11.4643,93
11.5015,88
11.5386,93
11.5758,89
11.6129,87
11.6501,77
11.6872,82
11.7244,86
11.7615,67
11.7987,79
11.8358,87
11.8730,86
11.9101,84
11.9473,88
11.9844,99
12.0216,85
12.0587,84
12.0959,83
12.1330,83
12.1702,74
12.2073,86
12.2445,96
12.2816,84
12.3188,83
12.3559,74
12.3931,84
12.4302,82
12.4674,74
12.5045,74
12.5417,69
12.5788,89
12.6160,95
12.6531,93
12.6903,88
12.7274,73
12.7646,79
12.8018,63
12.8389,77
12.8761,58
12.9132,87
12.9504,90
12.9875,74
13.0247,81
13.0618,79
13.0990,85
13.1361,79
13.1733,79
13.2104,73
13.2476,74
13.2847,71
13.3219,57
13.3590,60
13.3962,64
13.4333,70
13.4705,78
13.5076,61
13.5448,77
13.5819,78
13.6191,67
13.6562,84
13.6934,48
13.7305,78
13.7677,59
13.8048,67
13.8420,65
13.8791,91
13.9163,72
13.9534,75
13.9906,55
14.0277,64
14.0649,75
14.1020,64
14.1392,75
14.1763,57
14.2135,68
14.2506,55
14.2878,64
14.3250,54
14.3621,59
14.3993,68
14.4364,66
14.4736,62
14.5107,70
14.5479,73
14.5850,65
14.6222,59
14.6593,48
14.6965,69
14.7336,62
14.7708,64
14.8079,57
14.8451,67
14.8822,66
14.9194,52
14.9565,59
14.9937,65
15.0308,65
15.0680,74
15.1051,66
15.1423,57
15.1794,59
15.2166,73
15.2537,63
15.2909,70
15.3280,56
15.3652,67
15.4023,60
15.4395,52
15.4766,64
15.5138,54
15.5509,57
15.5881,56
15.6252,68
15.6624,64
15.6995,53
15.7367,53
15.7738,69
15.8110,66
15.8482,51
15.8853,49
15.9225,66
15.9596,58
15.9968,74
16.0339,53
16.0711,59
16.1082,45
16.1454,65
16.1825,65
16.2197,64
16.2568,50
16.2940,46
16.3311,61
16.3683,51
16.4054,65
16.4426,56
16.4797,64
16.5169,69
16.5540,61
16.5912,54
16.6283,52
16.6655,49
16.7026,59
16.7398,55
16.7769,66
16.8141,63
16.8512,53
16.8884,69
16.9255,58
16.9627,42
16.9998,48
17.0370,65
17.0741,54
17.1113,62
17.1484,53
17.1856,61
17.2227,61
17.2599,54
17.2970,59
17.3342,57
17.3713,59
17.4085,66
17.4457,62
17.4828,48
17.5200,73
17.5571,59
17.5943,52
17.6314,61
17.6686,55
17.7057,64
17.7429,67
17.7800,64
17.8172,59
17.8543,69
17.8915,51
17.9286,49
17.9658,46
18.0029,66
18.0401,49
18.0772,66
18.1144,53
18.1515,61
18.1887,60
18.2258,65
18.2630,48
18.3001,67
18.3373,62
18.3744,61
18.4116,66
18.4487,50
18.4859,68
18.5230,59
18.5602,67
18.5973,64
18.6345,40
18.6716,66
18.7088,48
18.7459,65
18.7831,64
18.8202,70
18.8574,59
18.8945,76
18.9317,65
18.9689,65
19.0060,57
19.0432,58
19.0803,54
19.1175,54
19.1546,51
19.1918,65
19.2289,74
19.2661,47
19.3032,69
19.3404,65
19.3775,77
19.4147,64
19.4518,52
19.4890,51
19.5261,53
19.5633,60
19.6004,52
19.6376,55
19.6747,71
19.7119,63
19.7490,58
19.7862,55
19.8233,59
19.8605,66
19.8976,67
19.9348,67
19.9719,64
20.0091,69
20.0462,75
20.0834,47
20.1205,65
20.1577,50
20.1948,72
20.2320,68
20.2691,72
20.3063,60
20.3434,74
20.3806,68
20.4177,63
20.4549,83
20.4921,65
20.5292,61
20.5664,63
20.6035,65
20.6407,80
20.6778,72
20.7150,65
20.7521,81
20.7893,43
20.8264,83
20.8636,69
20.9007,71
20.9379,87
20.9750,59
21.0122,90
21.0493,83
21.0865,90
21.1236,61
21.1608,81
21.1979,77
21.2351,119
21.2722,126
21.3094,136
21.3465,170
21.3837,152
21.4208,118
21.4580,65
21.4951,77
21.5323,50
21.5694,79
21.6066,61
21.6437,79
21.6809,58
21.7180,58
21.7552,61
21.7923,61
21.8295,67
21.8666,61
21.9038,66
21.9409,70
21.9781,83
22.0152,77
22.0524,56
22.0896,75
22.1267,79
22.1639,81
22.2010,74
22.2382,87
22.2753,72
22.3125,64
22.3496,67
22.3868,79
22.4239,61
22.4611,73
22.4982,65
22.5354,73
22.5725,69
22.6097,79
22.6468,72
22.6840,85
22.7211,75
22.7583,59
22.7954,81
22.8326,73
22.8697,70
22.9069,80
22.9440,78
22.9812,63
23.0183,74
23.0555,66
23.0926,94
23.1298,69
23.1669,71
23.2041,78
23.2412,64
23.2784,63
23.3155,72
23.3527,71
23.3898,72
23.4270,64
23.4641,68
23.5013,54
23.5384,78
23.5756,61
23.6128,59
23.6499,70
23.6871,77
23.7242,75
23.7614,74
23.7985,74
23.8357,79
23.8728,75
23.9100,66
23.9471,78
23.9843,75
24.0214,82
24.0586,83
24.0957,71
24.1329,70
24.1700,71
24.2072,79
24.2443,87
24.2815,84
24.3186,75
24.3558,101
24.3929,58
24.4301,72
24.4672,80
24.5044,76
24.5415,69
24.5787,81
24.6158,64
24.6530,69
24.6901,60
24.7273,72
24.7644,85
24.8016,80
24.8387,72
24.8759,74
24.9130,74
24.9502,92
24.9873,78
25.0245,83
25.0616,82
25.0988,70
25.1360,82
25.1731,72
25.2103,74
25.2474,73
25.2846,48
25.3217,57
25.3589,70
25.3960,63
25.4332,82
25.4703,65
25.5075,66
25.5446,74
25.5818,69
25.6189,54
25.6561,81
25.6932,72
25.7304,74
25.7675,62
25.8047,70
25.8418,60
25.8790,70
25.9161,57
25.9533,80
25.9904,68
26.0276,70
26.0647,93
26.1019,55
26.1390,62
26.1762,56
26.2133,79
26.2505,65
26.2876,72
26.3248,70
26.3619,60
26.3991,59
26.4362,78
26.4734,77
26.5105,61
26.5477,75
26.5848,69
26.6220,83
26.6591,75
26.6963,66
26.7335,69
26.7706,68
26.8078,62
26.8449,66
26.8821,69
26.9192,56
26.9564,81
26.9935,66
27.0307,72
27.0678,71
27.1050,71
27.1421,70
27.1793,73
27.2164,95
27.2536,74
27.2907,82
27.3279,84
27.3650,61
27.4022,66
27.4393,87
27.4765,78
27.5136,62
27.5508,62
27.5879,70
27.6251,66
27.6622,55
27.6994,66
27.7365,64
27.7737,70
27.8108,55
27.8480,75
27.8851,58
27.9223,51
27.9594,58
27.9966,57
28.0337,65
28.0709,74
28.1080,57
28.1452,63
28.1823,64
28.2195,56
28.2567,64
28.2938,69
28.3310,61
28.3681,64
28.4053,79
28.4424,67
28.4796,60
28.5167,55
28.5539,60
28.5910,62
28.6282,65
28.6653,67
28.7025,64
28.7396,61
28.7768,62
28.8139,56
28.8511,70
28.8882,61
28.9254,59
28.9625,68
28.9997,53
29.0368,63
29.0740,65
29.1111,47
29.1483,51
29.1854,67
29.2226,76
29.2597,56
29.2969,63
29.3340,65
29.3712,57
29.4083,49
29.4455,53
29.4826,55
29.5198,57
29.5569,70
29.5941,60
29.6312,46
29.6684,56
29.7055,63
29.7427,53
29.7799,61
29.8170,41
29.8542,66
29.8913,44
29.9285,61
29.9656,68
30.0028,64
30.0399,49
30.0771,62
30.1142,61
30.1514,56
30.1885,52
30.2257,48
30.2628,61
30.3000,53
30.3371,80
30.3743,102
30.4114,83
30.4486,105
30.4857,67
30.5229,63
30.5600,66
30.5972,48
30.6343,71
30.6715,47
30.7086,49
30.7458,59
30.7829,52
30.8201,56
30.8572,51
30.8944,60
30.9315,55
30.9687,52
31.0058,53
31.0430,44
31.0801,62
31.1173,61
31.1544,58
31.1916,55
31.2287,53
31.2659,51
31.3030,55
31.3402,42
31.3774,48
31.4145,47
31.4517,49
31.4888,40
31.5260,56
31.5631,56
31.6003,37
31.6374,51
31.6746,44
31.7117,58
31.7489,57
31.7860,48
31.8232,50
31.8603,44
31.8975,44
31.9346,49
31.9718,55
32.0089,51
32.0461,48
32.0832,45
32.1204,38
32.1575,57
32.1947,49
32.2318,49
32.2690,49
32.3061,45
32.3433,46
32.3804,48
32.4176,41
32.4547,56
32.4919,53
32.5290,54
32.5662,60
32.6033,39
32.6405,47
32.6776,52
32.7148,46
32.7519,50
32.7891,40
32.8262,55
32.8634,37
32.9006,46
32.9377,51
32.9749,42
33.0120,47
33.0492,39
33.0863,30
33.1235,39
33.1606,40
33.1978,51
33.2349,39
33.2721,50
33.3092,41
33.3464,39
33.3835,41
33.4207,46
33.4578,50
33.4950,52
33.5321,36
33.5693,46
33.6064,42
33.6436,39
33.6807,37
33.7179,50
33.7550,36
33.7922,39
33.8293,43
33.8665,37
33.9036,38
33.9408,39
33.9779,39
34.0151,31
34.0522,29
34.0894,43
34.1265,41
34.1637,50
34.2008,38
34.2380,39
34.2751,45
34.3123,45
34.3494,40
34.3866,34
34.4238,38
34.4609,52
34.4981,41
34.5352,38
34.5724,29
34.6095,33
34.6467,51
34.6838,44
34.7210,52
34.7581,60
34.7953,47
34.8324,55
34.8696,52
34.9067,40
34.9439,59
34.9810,38
35.0182,46
35.0553,48
35.0925,33
35.1296,30
35.1668,35
35.2039,47
35.2411,47
35.2782,42
35.3154,31
35.3525,35
35.3897,40
35.4268,29
35.4640,40
35.5011,26
35.5383,41
35.5754,36
35.6126,36
35.6497,40
35.6869,42
35.7240,39
35.7612,28
35.7983,37
35.8355,34
35.8726,27
35.9098,36
35.9469,39
35.9841,34
36.0213,34
36.0584,28
36.0956,38
36.1327,29
36.1699,36
36.2070,40
36.2442,38
36.2813,42
36.3185,36
36.3556,41
36.3928,35
36.4299,38
36.4671,40
36.5042,39
36.5414,36
36.5785,37
36.6157,43
36.6528,30
36.6900,44
36.7271,23
36.7643,32
36.8014,31
36.8386,31
36.8757,43
36.9129,32
36.9500,26
36.9872,30
37.0243,33
37.0615,29
37.0986,39
37.1358,33
37.1729,38
37.2101,36
37.2472,32
37.2844,30
37.3215,32
37.3587,27
37.3958,43
37.4330,66
37.4701,39
37.5073,51
37.5445,48
37.5816,33
37.6188,31
37.6559,32
37.6931,34
37.7302,35
37.7674,45
37.8045,21
37.8417,31
37.8788,32
37.9160,29
37.9531,26
37.9903,22
38.0274,35
38.0646,29
38.1017,29
38.1389,32
38.1760,32
38.2132,20
38.2503,29
38.2875,31
38.3246,26
38.3618,35
38.3989,35
38.4361,29
38.4732,27
38.5104,31
38.5475,36
38.5847,27
38.6218,35
38.6590,31
38.6961,36
38.7333,34
38.7704,24
38.8076,28
38.8447,20
38.8819,42
38.9190,22
38.9562,28
38.9933,39
39.0305,33
39.0677,23
39.1048,17
39.1420,31
39.1791,25
39.2163,24
39.2534,36
39.2906,31
39.3277,41
39.3649,30
39.4020,23
39.4392,30
39.4763,24
39.5135,27
39.5506,20
39.5878,43
39.6249,24
39.6621,24
39.6992,31
39.7364,25
39.7735,27
39.8107,31
39.8478,28
39.8850,35
39.9221,37
39.9593,20
39.9964,28
40.0336,32
40.0707,29
40.1079,20
40.1450,33
40.1822,35
40.2193,31
40.2565,23
40.2936,22
40.3308,30
40.3679,22
40.4051,24
40.4422,29
40.4794,28
40.5165,22
40.5537,32
40.5908,32
40.6280,38
40.6652,24
40.7023,36
40.7395,31
40.7766,31
40.8138,29
40.8509,22
40.8881,31
40.9252,36
40.9624,30
40.9995,20
41.0367,19
41.0738,39
41.1110,22
41.1481,20
41.1853,24
41.2224,18
41.2596,34
41.2967,24
41.3339,34
41.3710,31
41.4082,32
41.4453,29
41.4825,19
41.5196,29
41.5568,21
41.5939,34
41.6311,23
41.6682,34
41.7054,24
41.7425,25
41.7797,26
41.8168,30
41.8540,24
41.8911,15
41.9283,25
41.9654,21
42.0026,22
42.0397,23
42.0769,30
42.1140,23
42.1512,28
42.1884,27
42.2255,25
42.2627,35
42.2998,27
42.3370,30
42.3741,21
42.4113,26
42.4484,32
42.4856,24
42.5227,20
42.5599,27
42.5970,27
42.6342,30
42.6713,24
42.7085,20
42.7456,25
42.7828,25
42.8199,34
42.8571,29
42.8942,23
42.9314,32
42.9685,27
43.0057,23
43.0428,34
43.0800,24
43.1171,31
43.1543,30
43.1914,41
43.2286,27
43.2657,33
43.3029,26
43.3400,28
43.3772,28
43.4143,23
43.4515,32
43.4886,47
43.5258,30
43.5629,34
43.6001,34
43.6372,34
43.6744,33
43.7116,32
43.7487,26
43.7859,25
43.8230,32
43.8602,25
43.8973,28
43.9345,30
43.9716,25
44.0088,28
44.0459,27
44.0831,23
44.1202,23
44.1574,29
44.1945,28
44.2317,19
44.2688,28
44.3060,29
44.3431,26
44.3803,30
44.4174,35
44.4546,28
44.4917,26
44.5289,25
44.5660,36
44.6032,26
44.6403,22
44.6775,23
44.7146,37
44.7518,31
44.7889,26
44.8261,21
44.8632,30
44.9004,29
44.9375,31
44.9747,25
45.0118,25
45.0490,31
45.0861,19
45.1233,32
45.1604,19
45.1976,34
45.2347,23
45.2719,30
45.3091,26
45.3462,30
45.3834,22
45.4205,25
45.4577,29
45.4948,31
45.5320,29
45.5691,24
45.6063,23
45.6434,23
45.6806,30
45.7177,22
45.7549,23
45.7920,31
45.8292,22
45.8663,28
45.9035,21
45.9406,20
45.9778,26
46.0149,29
46.0521,22
46.0892,16
46.1264,17
46.1635,21
46.2007,24
46.2378,30
46.2750,20
46.3121,22
46.3493,17
46.3864,25
46.4236,26
46.4607,28
46.4979,20
46.5350,24
46.5722,20
46.6093,29
46.6465,25
46.6836,26
46.7208,27
46.7579,23
46.7951,22
46.8323,25
46.8694,26
46.9066,25
46.9437,21
46.9809,30
47.0180,23
47.0552,25
47.0923,26
47.1295,26
47.1666,23
47.2038,30
47.2409,24
47.2781,19
47.3152,32
47.3524,19
47.3895,30
47.4267,17
47.4638,27
47.5010,20
47.5381,20
47.5753,26
47.6124,38
47.6496,29
47.6867,23
47.7239,31
47.7610,24
47.7982,22
47.8353,33
47.8725,22
47.9096,25
47.9468,21
47.9839,20
48.0211,20
48.0582,34
48.0954,30
48.1325,25
48.1697,28
48.2068,27
48.2440,30
48.2811,25
48.3183,18
48.3555,21
48.3926,26
48.4298,26
48.4669,21
48.5041,34
48.5412,22
48.5784,26
48.6155,24
48.6527,22
48.6898,23
48.7270,30
48.7641,30
48.8013,28
48.8384,26
48.8756,19
48.9127,39
48.9499,38
48.9870,36
49.0242,17
49.0613,36
49.0985,43
49.1356,23
49.1728,22
49.2099,25
49.2471,19
49.2842,18
49.3214,24
49.3585,29
49.3957,25
49.4328,25
49.4700,27
49.5071,19
49.5443,25
49.5814,17
49.6186,22
49.6557,27
49.6929,22
49.7300,25
49.7672,26
49.8043,29
49.8415,26
49.8786,24
49.9158,32
49.9530,21
49.9901,21
50.0273,25
50.0644,23
50.1016,28
50.1387,24
50.1759,21
50.2130,22
50.2502,19
50.2873,12
50.3245,19
50.3616,23
50.3988,12
50.4359,19
50.4731,23
50.5102,17
50.5474,21
50.5845,19
50.6217,24
50.6588,20
50.6960,22
50.7331,20
50.7703,27
50.8074,18
50.8446,19
50.8817,20
50.9189,23
50.9560,21
50.9932,19
51.0303,22
51.0675,27
51.1046,24
51.1418,30
51.1789,19
51.2161,21
51.2532,17
51.2904,27
51.3275,27
51.3647,18
51.4018,23
51.4390,23
51.4762,21
51.5133,22
51.5505,16
51.5876,21
51.6248,22
51.6619,13
51.6991,19
51.7362,28
51.7734,28
51.8105,26
51.8477,20
51.8848,18
51.9220,13
51.9591,21
51.9963,19
52.0334,16
52.0706,14
52.1077,15
52.1449,33
52.1820,19
52.2192,25
52.2563,19
52.2935,19
52.3306,22
52.3678,20
52.4049,18
52.4421,14
52.4792,21
52.5164,24
52.5535,30
52.5907,31
52.6278,25
52.6650,19
52.7021,15
52.7393,22
52.7764,23
52.8136,20
52.8507,16
52.8879,26
52.9250,23
52.9622,24
52.9994,22
53.0365,28
53.0737,18
53.1108,18
53.1480,18
53.1851,25
53.2223,17
53.2594,16
53.2966,21
53.3337,27
53.3709,21
53.4080,19
53.4452,21
53.4823,25
53.5195,26
53.5566,28
53.5938,20
53.6309,22
53.6681,17
53.7052,17
53.7424,18
53.7795,22
53.8167,27
53.8538,15
53.8910,27
53.9281,14
53.9653,30
54.0024,30
54.0396,28
54.0767,23
54.1139,21
54.1510,30
54.1882,25
54.2253,24
54.2625,17
54.2996,18
54.3368,20
54.3739,17
54.4111,22
54.4482,23
54.4854,20
54.5225,16
54.5597,24
54.5969,29
54.6340,20
54.6712,20
54.7083,24
54.7455,21
54.7826,17
54.8198,22
54.8569,24
54.8941,16
54.9312,25
54.9684,14
55.0055,24
55.0427,33
55.0798,27
55.1170,23
55.1541,19
55.1913,19
55.2284,19
55.2656,22
55.3027,18
55.3399,16
55.3770,16
55.4142,26
55.4513,23
55.4885,20
55.5256,16
55.5628,19
55.5999,15
55.6371,31
55.6742,17
55.7114,18
55.7485,19
55.7857,26
55.8228,29
55.8600,21
55.8971,21
55.9343,22
55.9714,28
56.0086,21
56.0457,23
56.0829,25
56.1201,25
56.1572,22
56.1944,27
56.2315,24
56.2687,27
56.3058,29
56.3430,21
56.3801,27
56.4173,19
56.4544,18
56.4916,21
56.5287,23
56.5659,23
56.6030,18
56.6402,26
56.6773,20
56.7145,16
56.7516,22
56.7888,17
56.8259,20
56.8631,18
56.9002,16
56.9374,17
56.9745,18
57.0117,23
57.0488,25
57.0860,20
57.1231,16
57.1603,27
57.1974,14
57.2346,13
57.2717,19
57.3089,9
57.3460,25
57.3832,23
57.4203,20
57.4575,19
57.4946,16
57.5318,26
57.5689,26
57.6061,20
57.6433,15
57.6804,25
57.7176,14
57.7547,19
57.7919,21
57.8290,27
57.8662,23
57.9033,18
57.9405,19
57.9776,14
58.0148,15
58.0519,16
58.0891,23
58.1262,19
58.1634,22
58.2005,19
58.2377,18
58.2748,17
58.3120,23
58.3491,21
58.3863,17
58.4234,27
58.4606,13
58.4977,20
58.5349,16
58.5720,20
58.6092,25
58.6463,17
58.6835,20
58.7206,14
58.7578,17
58.7949,17
58.8321,21
58.8692,26
58.9064,19
58.9435,21
58.9807,17
59.0178,16
59.0550,26
59.0921,22
59.1293,17
59.1664,22
59.2036,17
59.2408,18
59.2779,17
59.3151,21
59.3522,24
59.3894,21
59.4265,21
59.4637,19
59.5008,22
59.5380,18
59.5751,16
59.6123,29
59.6494,19
59.6866,25
59.7237,15
59.7609,17
59.7980,22
59.8352,16
59.8723,20
59.9095,21
59.9466,23
59.9838,16
60.0024,14