File: notebooks/data/xrd_data/ML_20220718_57_SJD_4_LaB6-4min.uxd
; (content of file Y:\Sam\Apurva-07-20-2022\puck4\ML_20220718_57_SJD_4_LaB6-4min.raw)
_FILEVERSION = 3
_SAMPLE = ML_20220718_57_SJD_4_LaB6-4min
_+SAMPLE =
_SITE = USA
_USER = Administrator
_GONIOMETER_CODE = 20
; Goniometer : D8 theta/2theta, stage : Unknown
_ATTACHMENTS_CODE = 0
_GONIOMETER_RADIUS = 200.5
_FIXED_DIVSLIT = 0.6
_FIXED_SAMPLESLIT = 0
_SOLLER_SLITS = 2
_FIXED_DETSLIT = 9.55
_MONOCHROMATOR = 0
; Incident beam monochromator : None
_SOLLER_SLITS_2 = N
_THIN_FILM = N
_BETA_FILTER = Y
_FIXED_ANTISLIT = 5.89
_ANALYZER_CODE = 0
; Received beam analyzer : None
_DATEMEASURED = "26-Jul-2022 14:39:46"
_WL_UNIT = A
_WL1 = 1.5406
_WL2 = 1.54439
_WL3 = 1.39222
_WLRATIO = 0.5
_ANODE = Cu
_V4_INF_CREATOR = XRDWizard
_V4_INF_CREATOR_VERSION = V2.9.0.22
_V4_INF_WIZARD_VERSION = V2.9.0.22
_V4_INF_WIZARD_ADDINS = V2.9.0.22
_V4_INF_WIZARD_DOCTYPE = XRD
_V4_INF_OSUSER = McQueenLab
_V4_INF_USER = Administrator
_V4_INF_SITE = USA
_V4_INF_SAMPLEID = ML_20220718_57_SJD_4_LaB6-4min

; Data for range 1
_DRIVE = COUPLED
_STEPTIME = 11.28
_STEPSIZE = 0.0185756
_STEPMODE = C
_START = 5
_THETA = 2.5
_2THETA = 5
_KHI = 0
_PHI = 0
_X = 0
_Y = 0
_Z = 0
_DETECTOR = 5
; Detector type : Unknown
_DETECTORSLIT = unkn
_AUX1 = 0
_AUX2 = 0
_AUX3 = 0
_TIMESTARTED = 21
_TEMP_RATE = -1
_TEMP_DELAY = -1
_KV = 40
_MA = 40
_RANGE_WL = 1.5406
_3DPLANE = 0
_V4_ADDITIONALDETECTOR = 257
_V4_PSD2THETA = 49.8039
_V4_PSDCHANNEL1 = 0
_V4_PSDAPERTURE = 12.68
_V4_PSDTYPE = 5
_V4_PSDFIXED = 0
_V4_COUNTERS_MASK = 4096
_V4_DRIVES_MASK = 0
_V4_ENCODERS_MASK = 0
_2THETACOUNTS = 1
; 2THETA  PSD
   5.0000        289
   5.0372        277
   5.0743        256
   5.1115        249
   5.1486        263
   5.1858        246
   5.2229        267
   5.2601        226
   5.2972        248
   5.3344        240
   5.3715        225
   5.4087        230
   5.4458        224
   5.4830        232
   5.5201        216
   5.5573        221
   5.5944        228
   5.6316        228
   5.6687        208
   5.7059        231
   5.7430        196
   5.7802        203
   5.8173        200
   5.8545        187
   5.8916        199
   5.9288        213
   5.9659        209
   6.0031        205
   6.0402        199
   6.0774        189
   6.1145        199
   6.1517        189
   6.1888        164
   6.2260        183
   6.2631        180
   6.3003        178
   6.3374        163
   6.3746        173
   6.4117        156
   6.4489        200
   6.4860        183
   6.5232        190
   6.5604        189
   6.5975        169
   6.6347        170
   6.6718        158
   6.7090        174
   6.7461        174
   6.7833        159
   6.8204        161
   6.8576        160
   6.8947        172
   6.9319        164
   6.9690        157
   7.0062        168
   7.0433        165
   7.0805        160
   7.1176        163
   7.1548        167
   7.1919        164
   7.2291        166
   7.2662        146
   7.3034        151
   7.3405        146
   7.3777        154
   7.4148        167
   7.4520        162
   7.4891        160
   7.5263        157
   7.5634        148
   7.6006        157
   7.6377        179
   7.6749        185
   7.7120        169
   7.7492        178
   7.7863        172
   7.8235        195
   7.8606        161
   7.8978        193
   7.9349        195
   7.9721        182
   8.0092        190
   8.0464        195
   8.0835        194
   8.1207        193
   8.1579        217
   8.1950        189
   8.2322        196
   8.2693        178
   8.3065        186
   8.3436        207
   8.3808        210
   8.4179        174
   8.4551        201
   8.4922        206
   8.5294        229
   8.5665        215
   8.6037        214
   8.6408        224
   8.6780        196
   8.7151        227
   8.7523        196
   8.7894        216
   8.8266        220
   8.8637        183
   8.9009        214
   8.9380        219
   8.9752        194
   9.0123        224
   9.0495        193
   9.0866        183
   9.1238        204
   9.1609        201
   9.1981        209
   9.2352        215
   9.2724        199
   9.3095        217
   9.3467        222
   9.3838        211
   9.4210        189
   9.4581        229
   9.4953        205
   9.5324        214
   9.5696        206
   9.6067        227
   9.6439        246
   9.6811        231
   9.7182        226
   9.7554        225
   9.7925        221
   9.8297        228
   9.8668        224
   9.9040        242
   9.9411        229
   9.9783        238
  10.0154        221
  10.0526        231
  10.0897        251
  10.1269        265
  10.1640        236
  10.2012        254
  10.2383        252
  10.2755        252
  10.3126        237
  10.3498        246
  10.3869        257
  10.4241        233
  10.4612        220
  10.4984        250
  10.5355        205
  10.5727        255
  10.6098        231
  10.6470        262
  10.6841        258
  10.7213        257
  10.7584        234
  10.7956        207
  10.8327        227
  10.8699        249
  10.9070        256
  10.9442        233
  10.9813        231
  11.0185        239
  11.0556        224
  11.0928        260
  11.1299        234
  11.1671        227
  11.2043        225
  11.2414        215
  11.2786        235
  11.3157        241
  11.3529        245
  11.3900        214
  11.4272        226
  11.4643        213
  11.5015        232
  11.5386        235
  11.5758        224
  11.6129        215
  11.6501        243
  11.6872        214
  11.7244        240
  11.7615        212
  11.7987        211
  11.8358        270
  11.8730        226
  11.9101        246
  11.9473        260
  11.9844        231
  12.0216        220
  12.0587        237
  12.0959        203
  12.1330        233
  12.1702        221
  12.2073        242
  12.2445        245
  12.2816        209
  12.3188        206
  12.3559        231
  12.3931        203
  12.4302        228
  12.4674        203
  12.5045        222
  12.5417        209
  12.5788        182
  12.6160        212
  12.6531        215
  12.6903        225
  12.7274        218
  12.7646        202
  12.8018        214
  12.8389        213
  12.8761        194
  12.9132        217
  12.9504        206
  12.9875        183
  13.0247        212
  13.0618        210
  13.0990        181
  13.1361        231
  13.1733        207
  13.2104        220
  13.2476        201
  13.2847        199
  13.3219        194
  13.3590        212
  13.3962        192
  13.4333        171
  13.4705        186
  13.5076        207
  13.5448        188
  13.5819        192
  13.6191        201
  13.6562        198
  13.6934        205
  13.7305        209
  13.7677        186
  13.8048        204
  13.8420        178
  13.8791        197
  13.9163        172
  13.9534        206
  13.9906        188
  14.0277        179
  14.0649        167
  14.1020        201
  14.1392        195
  14.1763        180
  14.2135        178
  14.2506        174
  14.2878        176
  14.3250        148
  14.3621        194
  14.3993        184
  14.4364        162
  14.4736        188
  14.5107        198
  14.5479        179
  14.5850        194
  14.6222        170
  14.6593        163
  14.6965        170
  14.7336        169
  14.7708        183
  14.8079        166
  14.8451        162
  14.8822        177
  14.9194        175
  14.9565        156
  14.9937        145
  15.0308        168
  15.0680        171
  15.1051        162
  15.1423        162
  15.1794        166
  15.2166        169
  15.2537        168
  15.2909        158
  15.3280        166
  15.3652        170
  15.4023        171
  15.4395        181
  15.4766        170
  15.5138        171
  15.5509        177
  15.5881        168
  15.6252        144
  15.6624        168
  15.6995        148
  15.7367        161
  15.7738        161
  15.8110        159
  15.8482        154
  15.8853        173
  15.9225        156
  15.9596        185
  15.9968        162
  16.0339        163
  16.0711        157
  16.1082        172
  16.1454        159
  16.1825        163
  16.2197        171
  16.2568        143
  16.2940        138
  16.3311        160
  16.3683        142
  16.4054        157
  16.4426        169
  16.4797        169
  16.5169        164
  16.5540        181
  16.5912        171
  16.6283        144
  16.6655        145
  16.7026        168
  16.7398        154
  16.7769        152
  16.8141        145
  16.8512        166
  16.8884        158
  16.9255        167
  16.9627        170
  16.9998        167
  17.0370        172
  17.0741        184
  17.1113        167
  17.1484        177
  17.1856        154
  17.2227        171
  17.2599        165
  17.2970        151
  17.3342        143
  17.3713        183
  17.4085        156
  17.4457        143
  17.4828        156
  17.5200        152
  17.5571        158
  17.5943        159
  17.6314        158
  17.6686        148
  17.7057        154
  17.7429        173
  17.7800        146
  17.8172        168
  17.8543        171
  17.8915        169
  17.9286        187
  17.9658        169
  18.0029        183
  18.0401        166
  18.0772        161
  18.1144        160
  18.1515        160
  18.1887        180
  18.2258        168
  18.2630        158
  18.3001        177
  18.3373        165
  18.3744        164
  18.4116        145
  18.4487        173
  18.4859        162
  18.5230        172
  18.5602        173
  18.5973        151
  18.6345        171
  18.6716        156
  18.7088        182
  18.7459        168
  18.7831        162
  18.8202        147
  18.8574        150
  18.8945        166
  18.9317        193
  18.9689        183
  19.0060        197
  19.0432        142
  19.0803        169
  19.1175        185
  19.1546        180
  19.1918        176
  19.2289        173
  19.2661        190
  19.3032        167
  19.3404        187
  19.3775        175
  19.4147        173
  19.4518        183
  19.4890        170
  19.5261        179
  19.5633        193
  19.6004        165
  19.6376        170
  19.6747        181
  19.7119        167
  19.7490        192
  19.7862        178
  19.8233        178
  19.8605        179
  19.8976        173
  19.9348        213
  19.9719        178
  20.0091        175
  20.0462        174
  20.0834        179
  20.1205        183
  20.1577        184
  20.1948        201
  20.2320        193
  20.2691        204
  20.3063        193
  20.3434        178
  20.3806        188
  20.4177        195
  20.4549        223
  20.4921        209
  20.5292        181
  20.5664        177
  20.6035        159
  20.6407        188
  20.6778        189
  20.7150        177
  20.7521        199
  20.7893        209
  20.8264        233
  20.8636        166
  20.9007        172
  20.9379        195
  20.9750        205
  21.0122        185
  21.0493        199
  21.0865        211
  21.1236        231
  21.1608        239
  21.1979        287
  21.2351        319
  21.2722        292
  21.3094        341
  21.3465        532
  21.3837        451
  21.4208        354
  21.4580        242
  21.4951        199
  21.5323        191
  21.5694        215
  21.6066        227
  21.6437        202
  21.6809        205
  21.7180        202
  21.7552        181
  21.7923        192
  21.8295        204
  21.8666        192
  21.9038        202
  21.9409        183
  21.9781        199
  22.0152        195
  22.0524        180
  22.0896        213
  22.1267        193
  22.1639        211
  22.2010        198
  22.2382        195
  22.2753        197
  22.3125        203
  22.3496        190
  22.3868        207
  22.4239        190
  22.4611        192
  22.4982        197
  22.5354        206
  22.5725        179
  22.6097        184
  22.6468        193
  22.6840        215
  22.7211        209
  22.7583        203
  22.7954        195
  22.8326        220
  22.8697        234
  22.9069        215
  22.9440        204
  22.9812        206
  23.0183        215
  23.0555        199
  23.0926        181
  23.1298        207
  23.1669        156
  23.2041        195
  23.2412        190
  23.2784        211
  23.3155        193
  23.3527        200
  23.3898        230
  23.4270        205
  23.4641        214
  23.5013        206
  23.5384        219
  23.5756        208
  23.6128        213
  23.6499        184
  23.6871        209
  23.7242        198
  23.7614        179
  23.7985        198
  23.8357        232
  23.8728        200
  23.9100        201
  23.9471        207
  23.9843        184
  24.0214        191
  24.0586        198
  24.0957        203
  24.1329        163
  24.1700        223
  24.2072        198
  24.2443        217
  24.2815        240
  24.3186        243
  24.3558        235
  24.3929        218
  24.4301        203
  24.4672        188
  24.5044        217
  24.5415        199
  24.5787        191
  24.6158        207
  24.6530        204
  24.6901        215
  24.7273        193
  24.7644        209
  24.8016        195
  24.8387        195
  24.8759        193
  24.9130        215
  24.9502        224
  24.9873        208
  25.0245        214
  25.0616        216
  25.0988        193
  25.1360        190
  25.1731        171
  25.2103        196
  25.2474        194
  25.2846        178
  25.3217        203
  25.3589        208
  25.3960        212
  25.4332        204
  25.4703        199
  25.5075        222
  25.5446        191
  25.5818        186
  25.6189        192
  25.6561        197
  25.6932        193
  25.7304        206
  25.7675        170
  25.8047        193
  25.8418        162
  25.8790        188
  25.9161        192
  25.9533        198
  25.9904        216
  26.0276        170
  26.0647        180
  26.1019        171
  26.1390        195
  26.1762        203
  26.2133        213
  26.2505        223
  26.2876        213
  26.3248        176
  26.3619        195
  26.3991        184
  26.4362        182
  26.4734        170
  26.5105        184
  26.5477        192
  26.5848        208
  26.6220        181
  26.6591        203
  26.6963        203
  26.7335        208
  26.7706        156
  26.8078        187
  26.8449        169
  26.8821        193
  26.9192        176
  26.9564        223
  26.9935        207
  27.0307        188
  27.0678        198
  27.1050        193
  27.1421        213
  27.1793        235
  27.2164        215
  27.2536        238
  27.2907        212
  27.3279        204
  27.3650        190
  27.4022        188
  27.4393        185
  27.4765        183
  27.5136        180
  27.5508        180
  27.5879        178
  27.6251        180
  27.6622        164
  27.6994        186
  27.7365        181
  27.7737        162
  27.8108        160
  27.8480        180
  27.8851        167
  27.9223        170
  27.9594        185
  27.9966        171
  28.0337        169
  28.0709        169
  28.1080        173
  28.1452        155
  28.1823        161
  28.2195        156
  28.2567        174
  28.2938        174
  28.3310        190
  28.3681        188
  28.4053        179
  28.4424        161
  28.4796        168
  28.5167        177
  28.5539        175
  28.5910        146
  28.6282        159
  28.6653        166
  28.7025        160
  28.7396        149
  28.7768        141
  28.8139        144
  28.8511        159
  28.8882        179
  28.9254        147
  28.9625        153
  28.9997        184
  29.0368        163
  29.0740        170
  29.1111        159
  29.1483        162
  29.1854        147
  29.2226        139
  29.2597        159
  29.2969        153
  29.3340        148
  29.3712        172
  29.4083        158
  29.4455        158
  29.4826        148
  29.5198        157
  29.5569        149
  29.5941        139
  29.6312        130
  29.6684        152
  29.7055        151
  29.7427        148
  29.7799        141
  29.8170        160
  29.8542        158
  29.8913        145
  29.9285        167
  29.9656        158
  30.0028        166
  30.0399        158
  30.0771        152
  30.1142        157
  30.1514        160
  30.1885        176
  30.2257        174
  30.2628        174
  30.3000        168
  30.3371        224
  30.3743        307
  30.4114        297
  30.4486        255
  30.4857        220
  30.5229        142
  30.5600        134
  30.5972        142
  30.6343        137
  30.6715        145
  30.7086        149
  30.7458        159
  30.7829        130
  30.8201        153
  30.8572        155
  30.8944        133
  30.9315        141
  30.9687        151
  31.0058        160
  31.0430        136
  31.0801        131
  31.1173        126
  31.1544        138
  31.1916        134
  31.2287        155
  31.2659        139
  31.3030        145
  31.3402        137
  31.3774        143
  31.4145        130
  31.4517        143
  31.4888        132
  31.5260        135
  31.5631        135
  31.6003        138
  31.6374        166
  31.6746        115
  31.7117        124
  31.7489        160
  31.7860        125
  31.8232        125
  31.8603        141
  31.8975        141
  31.9346        140
  31.9718        133
  32.0089        130
  32.0461        135
  32.0832        144
  32.1204        152
  32.1575        144
  32.1947        135
  32.2318        108
  32.2690        141
  32.3061        134
  32.3433        138
  32.3804        134
  32.4176        154
  32.4547        153
  32.4919        143
  32.5290        141
  32.5662        119
  32.6033        126
  32.6405        127
  32.6776        124
  32.7148         97
  32.7519        128
  32.7891        138
  32.8262        113
  32.8634        133
  32.9006        136
  32.9377        126
  32.9749        131
  33.0120        142
  33.0492        129
  33.0863        154
  33.1235        122
  33.1606        109
  33.1978        111
  33.2349        141
  33.2721        124
  33.3092        116
  33.3464        122
  33.3835        118
  33.4207        132
  33.4578        121
  33.4950        110
  33.5321        119
  33.5693        119
  33.6064        130
  33.6436        130
  33.6807        120
  33.7179        128
  33.7550        114
  33.7922        124
  33.8293        122
  33.8665        101
  33.9036        123
  33.9408        116
  33.9779        129
  34.0151        115
  34.0522        113
  34.0894         83
  34.1265        120
  34.1637        101
  34.2008        113
  34.2380        128
  34.2751        103
  34.3123        124
  34.3494         91
  34.3866        120
  34.4238        113
  34.4609        122
  34.4981        124
  34.5352        110
  34.5724        121
  34.6095        124
  34.6467        110
  34.6838        150
  34.7210        137
  34.7581        154
  34.7953        145
  34.8324        126
  34.8696        128
  34.9067        113
  34.9439        125
  34.9810        107
  35.0182         98
  35.0553        116
  35.0925        103
  35.1296        103
  35.1668        113
  35.2039        111
  35.2411         94
  35.2782        121
  35.3154         98
  35.3525         88
  35.3897         99
  35.4268         98
  35.4640        105
  35.5011        107
  35.5383         95
  35.5754        106
  35.6126         91
  35.6497         82
  35.6869         94
  35.7240         92
  35.7612         93
  35.7983        107
  35.8355         99
  35.8726        120
  35.9098        103
  35.9469        106
  35.9841        103
  36.0213         91
  36.0584        104
  36.0956         76
  36.1327        108
  36.1699         84
  36.2070         96
  36.2442         82
  36.2813         84
  36.3185        118
  36.3556         83
  36.3928         86
  36.4299         80
  36.4671         97
  36.5042         91
  36.5414         89
  36.5785         98
  36.6157         95
  36.6528         83
  36.6900        101
  36.7271         94
  36.7643        109
  36.8014        112
  36.8386         93
  36.8757         87
  36.9129         82
  36.9500         75
  36.9872         85
  37.0243         87
  37.0615        103
  37.0986         91
  37.1358         78
  37.1729         77
  37.2101         84
  37.2472         90
  37.2844         77
  37.3215         94
  37.3587         94
  37.3958        128
  37.4330        148
  37.4701        149
  37.5073        141
  37.5445        132
  37.5816         81
  37.6188         90
  37.6559         95
  37.6931        103
  37.7302         95
  37.7674         83
  37.8045        105
  37.8417         84
  37.8788        100
  37.9160         87
  37.9531         73
  37.9903         93
  38.0274         80
  38.0646        100
  38.1017         80
  38.1389         79
  38.1760         81
  38.2132         78
  38.2503         96
  38.2875         88
  38.3246         84
  38.3618         78
  38.3989         75
  38.4361         86
  38.4732         82
  38.5104         93
  38.5475         91
  38.5847         78
  38.6218         70
  38.6590         85
  38.6961         77
  38.7333         87
  38.7704         72
  38.8076         77
  38.8447         91
  38.8819         76
  38.9190         81
  38.9562         77
  38.9933         75
  39.0305         80
  39.0677         78
  39.1048         83
  39.1420         67
  39.1791         85
  39.2163         83
  39.2534         78
  39.2906         81
  39.3277         78
  39.3649         77
  39.4020         85
  39.4392         82
  39.4763         77
  39.5135         81
  39.5506         82
  39.5878         93
  39.6249         92
  39.6621         68
  39.6992         77
  39.7364         84
  39.7735         82
  39.8107         80
  39.8478         75
  39.8850         82
  39.9221         63
  39.9593         62
  39.9964         78
  40.0336         63
  40.0707         84
  40.1079         63
  40.1450         81
  40.1822         87
  40.2193         71
  40.2565         62
  40.2936         89
  40.3308         79
  40.3679         82
  40.4051         94
  40.4422         73
  40.4794         62
  40.5165         92
  40.5537         71
  40.5908         84
  40.6280         84
  40.6652         74
  40.7023         90
  40.7395         83
  40.7766         75
  40.8138         75
  40.8509         78
  40.8881         86
  40.9252         79
  40.9624         79
  40.9995         87
  41.0367         97
  41.0738         69
  41.1110         71
  41.1481         67
  41.1853         87
  41.2224        108
  41.2596         82
  41.2967         78
  41.3339         78
  41.3710         77
  41.4082         77
  41.4453         80
  41.4825         85
  41.5196         82
  41.5568         81
  41.5939         70
  41.6311         81
  41.6682         69
  41.7054         68
  41.7425         80
  41.7797         91
  41.8168         65
  41.8540         75
  41.8911         81
  41.9283         77
  41.9654         66
  42.0026         70
  42.0397         69
  42.0769         87
  42.1140         88
  42.1512         83
  42.1884         66
  42.2255         82
  42.2627         77
  42.2998         69
  42.3370         68
  42.3741         75
  42.4113         76
  42.4484         91
  42.4856         59
  42.5227         93
  42.5599         91
  42.5970         65
  42.6342         59
  42.6713         74
  42.7085         69
  42.7456         83
  42.7828         62
  42.8199         80
  42.8571         71
  42.8942         69
  42.9314         67
  42.9685         81
  43.0057         71
  43.0428         58
  43.0800         81
  43.1171         91
  43.1543         75
  43.1914         69
  43.2286         98
  43.2657         95
  43.3029         89
  43.3400         86
  43.3772         96
  43.4143         86
  43.4515         84
  43.4886        126
  43.5258        130
  43.5629         93
  43.6001        103
  43.6372        100
  43.6744         62
  43.7116         81
  43.7487         76
  43.7859         77
  43.8230         86
  43.8602         71
  43.8973         73
  43.9345         83
  43.9716         77
  44.0088         71
  44.0459         68
  44.0831         93
  44.1202         70
  44.1574         69
  44.1945         94
  44.2317         67
  44.2688         83
  44.3060         63
  44.3431         86
  44.3803         70
  44.4174         83
  44.4546         63
  44.4917         71
  44.5289         66
  44.5660         81
  44.6032         69
  44.6403         71
  44.6775         96
  44.7146         84
  44.7518         85
  44.7889         60
  44.8261         75
  44.8632         74
  44.9004         46
  44.9375         81
  44.9747         57
  45.0118         64
  45.0490         59
  45.0861         68
  45.1233         64
  45.1604         69
  45.1976         71
  45.2347         72
  45.2719         62
  45.3091         62
  45.3462         78
  45.3834         69
  45.4205         84
  45.4577         60
  45.4948         70
  45.5320         67
  45.5691         67
  45.6063         68
  45.6434         66
  45.6806         67
  45.7177         66
  45.7549         70
  45.7920         61
  45.8292         55
  45.8663         56
  45.9035         73
  45.9406         63
  45.9778         77
  46.0149         59
  46.0521         52
  46.0892         71
  46.1264         61
  46.1635         72
  46.2007         68
  46.2378         70
  46.2750         60
  46.3121         62
  46.3493         65
  46.3864         58
  46.4236         61
  46.4607         63
  46.4979         77
  46.5350         76
  46.5722         60
  46.6093         53
  46.6465         62
  46.6836         69
  46.7208         69
  46.7579         68
  46.7951         66
  46.8323         56
  46.8694         73
  46.9066         68
  46.9437         68
  46.9809         63
  47.0180         68
  47.0552         61
  47.0923         68
  47.1295         71
  47.1666         76
  47.2038         66
  47.2409         72
  47.2781         54
  47.3152         54
  47.3524         59
  47.3895         63
  47.4267         60
  47.4638         65
  47.5010         64
  47.5381         71
  47.5753         65
  47.6124         72
  47.6496         60
  47.6867         64
  47.7239         59
  47.7610         66
  47.7982         58
  47.8353         63
  47.8725         75
  47.9096         60
  47.9468         66
  47.9839         63
  48.0211         66
  48.0582         71
  48.0954         71
  48.1325         71
  48.1697         65
  48.2068         57
  48.2440         62
  48.2811         57
  48.3183         65
  48.3555         59
  48.3926         66
  48.4298         57
  48.4669         73
  48.5041         73
  48.5412         55
  48.5784         56
  48.6155         59
  48.6527         72
  48.6898         59
  48.7270         67
  48.7641         64
  48.8013         69
  48.8384         59
  48.8756         69
  48.9127         78
  48.9499        102
  48.9870        133
  49.0242         77
  49.0613         82
  49.0985        103
  49.1356         80
  49.1728         77
  49.2099         55
  49.2471         76
  49.2842         66
  49.3214         55
  49.3585         62
  49.3957         52
  49.4328         59
  49.4700         62
  49.5071         86
  49.5443         54
  49.5814         62
  49.6186         68
  49.6557         58
  49.6929         68
  49.7300         54
  49.7672         52
  49.8043         65
  49.8415         64
  49.8786         71
  49.9158         61
  49.9530         75
  49.9901         53
  50.0273         65
  50.0644         57
  50.1016         63
  50.1387         63
  50.1759         74
  50.2130         61
  50.2502         71
  50.2873         65
  50.3245         62
  50.3616         63
  50.3988         45
  50.4359         65
  50.4731         79
  50.5102         66
  50.5474         60
  50.5845         53
  50.6217         61
  50.6588         58
  50.6960         44
  50.7331         58
  50.7703         52
  50.8074         64
  50.8446         49
  50.8817         50
  50.9189         63
  50.9560         56
  50.9932         51
  51.0303         63
  51.0675         46
  51.1046         62
  51.1418         53
  51.1789         57
  51.2161         52
  51.2532         56
  51.2904         45
  51.3275         58
  51.3647         63
  51.4018         78
  51.4390         70
  51.4762         70
  51.5133         57
  51.5505         67
  51.5876         67
  51.6248         75
  51.6619         63
  51.6991         69
  51.7362         53
  51.7734         54
  51.8105         68
  51.8477         87
  51.8848         53
  51.9220         68
  51.9591         70
  51.9963         61
  52.0334         58
  52.0706         53
  52.1077         72
  52.1449         65
  52.1820         48
  52.2192         48
  52.2563         67
  52.2935         55
  52.3306         66
  52.3678         55
  52.4049         56
  52.4421         64
  52.4792         62
  52.5164         61
  52.5535         67
  52.5907         65
  52.6278         60
  52.6650         60
  52.7021         64
  52.7393         56
  52.7764         63
  52.8136         62
  52.8507         58
  52.8879         49
  52.9250         54
  52.9622         65
  52.9994         60
  53.0365         63
  53.0737         61
  53.1108         76
  53.1480         73
  53.1851         51
  53.2223         57
  53.2594         55
  53.2966         55
  53.3337         52
  53.3709         40
  53.4080         66
  53.4452         59
  53.4823         56
  53.5195         53
  53.5566         44
  53.5938         51
  53.6309         63
  53.6681         62
  53.7052         68
  53.7424         68
  53.7795         42
  53.8167         55
  53.8538         72
  53.8910         56
  53.9281         63
  53.9653         81
  54.0024         91
  54.0396         71
  54.0767         63
  54.1139         70
  54.1510         72
  54.1882         65
  54.2253         70
  54.2625         70
  54.2996         62
  54.3368         64
  54.3739         57
  54.4111         57
  54.4482         57
  54.4854         48
  54.5225         61
  54.5597         50
  54.5969         44
  54.6340         51
  54.6712         63
  54.7083         55
  54.7455         44
  54.7826         47
  54.8198         55
  54.8569         54
  54.8941         66
  54.9312         58
  54.9684         46
  55.0055         53
  55.0427         50
  55.0798         38
  55.1170         57
  55.1541         55
  55.1913         48
  55.2284         60
  55.2656         39
  55.3027         52
  55.3399         54
  55.3770         65
  55.4142         49
  55.4513         61
  55.4885         79
  55.5256         77
  55.5628         58
  55.5999         59
  55.6371         58
  55.6742         46
  55.7114         42
  55.7485         51
  55.7857         50
  55.8228         61
  55.8600         59
  55.8971         62
  55.9343         44
  55.9714         65
  56.0086         57
  56.0457         61
  56.0829         77
  56.1201         64
  56.1572         61
  56.1944         62
  56.2315         71
  56.2687         51
  56.3058         60
  56.3430         68
  56.3801         56
  56.4173         55
  56.4544         59
  56.4916         66
  56.5287         67
  56.5659         56
  56.6030         47
  56.6402         64
  56.6773         61
  56.7145         67
  56.7516         69
  56.7888         37
  56.8259         60
  56.8631         56
  56.9002         64
  56.9374         54
  56.9745         56
  57.0117         71
  57.0488         58
  57.0860         59
  57.1231         47
  57.1603         52
  57.1974         54
  57.2346         46
  57.2717         55
  57.3089         53
  57.3460         54
  57.3832         51
  57.4203         47
  57.4575         51
  57.4946         69
  57.5318         57
  57.5689         56
  57.6061         52
  57.6433         68
  57.6804         68
  57.7176         57
  57.7547         59
  57.7919         49
  57.8290         52
  57.8662         58
  57.9033         63
  57.9405         54
  57.9776         48
  58.0148         53
  58.0519         60
  58.0891         55
  58.1262         68
  58.1634         59
  58.2005         61
  58.2377         47
  58.2748         59
  58.3120         49
  58.3491         64
  58.3863         56
  58.4234         61
  58.4606         61
  58.4977         55
  58.5349         50
  58.5720         60
  58.6092         69
  58.6463         58
  58.6835         45
  58.7206         52
  58.7578         50
  58.7949         55
  58.8321         54
  58.8692         56
  58.9064         59
  58.9435         45
  58.9807         69
  59.0178         46
  59.0550         57
  59.0921         44
  59.1293         67
  59.1664         53
  59.2036         62
  59.2408         52
  59.2779         62
  59.3151         42
  59.3522         54
  59.3894         50
  59.4265         55
  59.4637         57
  59.5008         59
  59.5380         55
  59.5751         59
  59.6123         48
  59.6494         59
  59.6866         56
  59.7237         45
  59.7609         48
  59.7980         58
  59.8352         59
  59.8723         42
  59.9095         69
  59.9466         51
  59.9838         48
  60.0024         62