File: notebooks/data/xrd_data/ML_20220720_31_SJD_4_LaB6-1min.uxd
; (content of file Y:\Sam\Apurva-07-20-2022\puck2\ML_20220720_31_SJD_0_LaB6-1min.raw)
_FILEVERSION = 3
_SAMPLE = ML_20220720_31_SJD_0_LaB6-1mi
_+SAMPLE =
_SITE = USA
_USER = Administrator
_GONIOMETER_CODE = 20
; Goniometer : D8 theta/2theta, stage : Unknown
_ATTACHMENTS_CODE = 0
_GONIOMETER_RADIUS = 200.5
_FIXED_DIVSLIT = 0.6
_FIXED_SAMPLESLIT = 0
_SOLLER_SLITS = 2
_FIXED_DETSLIT = 9.55
_MONOCHROMATOR = 0
; Incident beam monochromator : None
_SOLLER_SLITS_2 = N
_THIN_FILM = N
_BETA_FILTER = Y
_FIXED_ANTISLIT = 5.89
_ANALYZER_CODE = 0
; Received beam analyzer : None
_DATEMEASURED = "25-Jul-2022 18:44:16"
_WL_UNIT = A
_WL1 = 1.5406
_WL2 = 1.54439
_WL3 = 1.39222
_WLRATIO = 0.5
_ANODE = Cu
_V4_INF_CREATOR = XRDWizard
_V4_INF_CREATOR_VERSION = V2.9.0.22
_V4_INF_WIZARD_VERSION = V2.9.0.22
_V4_INF_WIZARD_ADDINS = V2.9.0.22
_V4_INF_WIZARD_DOCTYPE = XRD
_V4_INF_OSUSER = McQueenLab
_V4_INF_USER = Administrator
_V4_INF_SITE = USA
_V4_INF_SAMPLEID = ML_20220720_31_SJD_0_LaB6-1mi

; Data for range 1
_DRIVE = COUPLED
_STEPTIME = 4.23
_STEPSIZE = 0.0185756
_STEPMODE = C
_START = 5
_THETA = 2.5
_2THETA = 5
_KHI = 0
_PHI = 0
_X = 0
_Y = 0
_Z = 0
_DETECTOR = 5
; Detector type : Unknown
_DETECTORSLIT = unkn
_AUX1 = 0
_AUX2 = 0
_AUX3 = 0
_TIMESTARTED = 15
_TEMP_RATE = -1
_TEMP_DELAY = -1
_KV = 40
_MA = 40
_RANGE_WL = 1.5406
_3DPLANE = 0
_V4_ADDITIONALDETECTOR = 257
_V4_PSD2THETA = 3.3733
_V4_PSDCHANNEL1 = 0
_V4_PSDAPERTURE = 12.68
_V4_PSDTYPE = 5
_V4_PSDFIXED = 0
_V4_COUNTERS_MASK = 4096
_V4_DRIVES_MASK = 0
_V4_ENCODERS_MASK = 0
_2THETACOUNTS = 1
; 2THETA  PSD
   5.0000        112
   5.0372         99
   5.0743         95
   5.1115         75
   5.1486        119
   5.1858        106
   5.2229         88
   5.2601        102
   5.2972         82
   5.3344        100
   5.3715         81
   5.4087         96
   5.4458         90
   5.4830         93
   5.5201         78
   5.5573         98
   5.5944         79
   5.6316         93
   5.6687         63
   5.7059         69
   5.7430         61
   5.7802         74
   5.8173         82
   5.8545        102
   5.8916         67
   5.9288         65
   5.9659         72
   6.0031         72
   6.0402         71
   6.0774         69
   6.1145         65
   6.1517         67
   6.1888         64
   6.2260         69
   6.2631         72
   6.3003         56
   6.3374         63
   6.3746         62
   6.4117         63
   6.4489         71
   6.4860         75
   6.5232         48
   6.5604         67
   6.5975         70
   6.6347         67
   6.6718         60
   6.7090         50
   6.7461         62
   6.7833         59
   6.8204         68
   6.8576         70
   6.8947         66
   6.9319         58
   6.9690         59
   7.0062         57
   7.0433         54
   7.0805         65
   7.1176         66
   7.1548         56
   7.1919         61
   7.2291         62
   7.2662         64
   7.3034         52
   7.3405         52
   7.3777         57
   7.4148         50
   7.4520         62
   7.4891         59
   7.5263         70
   7.5634         65
   7.6006         51
   7.6377         72
   7.6749         56
   7.7120         63
   7.7492         54
   7.7863         57
   7.8235         82
   7.8606         56
   7.8978         74
   7.9349         51
   7.9721         64
   8.0092         72
   8.0464         71
   8.0835         76
   8.1207         62
   8.1579         91
   8.1950         78
   8.2322         59
   8.2693         80
   8.3065         87
   8.3436         63
   8.3808         74
   8.4179         79
   8.4551         84
   8.4922         62
   8.5294         91
   8.5665         77
   8.6037         77
   8.6408         68
   8.6780         70
   8.7151         87
   8.7523         72
   8.7894         82
   8.8266         76
   8.8637         81
   8.9009         75
   8.9380         63
   8.9752        102
   9.0123         76
   9.0495         82
   9.0866         77
   9.1238         76
   9.1609         85
   9.1981         81
   9.2352         80
   9.2724         94
   9.3095         74
   9.3467         69
   9.3838         72
   9.4210         85
   9.4581         74
   9.4953         73
   9.5324         85
   9.5696         94
   9.6067         72
   9.6439         94
   9.6811         78
   9.7182         81
   9.7554         88
   9.7925         86
   9.8297         78
   9.8668         87
   9.9040         93
   9.9411         82
   9.9783         87
  10.0154         86
  10.0526         97
  10.0897         93
  10.1269         79
  10.1640         86
  10.2012         73
  10.2383         95
  10.2755         78
  10.3126         70
  10.3498         81
  10.3869         86
  10.4241         90
  10.4612         76
  10.4984         81
  10.5355         96
  10.5727         86
  10.6098         90
  10.6470         76
  10.6841         85
  10.7213         80
  10.7584         77
  10.7956         79
  10.8327         86
  10.8699         99
  10.9070         92
  10.9442         96
  10.9813         83
  11.0185        103
  11.0556         79
  11.0928         95
  11.1299         84
  11.1671         90
  11.2043         90
  11.2414         96
  11.2786         82
  11.3157         91
  11.3529         81
  11.3900         86
  11.4272         92
  11.4643         99
  11.5015         79
  11.5386         98
  11.5758         95
  11.6129         70
  11.6501         82
  11.6872         82
  11.7244         91
  11.7615         81
  11.7987        102
  11.8358         81
  11.8730         98
  11.9101         84
  11.9473         92
  11.9844         77
  12.0216         80
  12.0587         67
  12.0959         75
  12.1330         95
  12.1702         81
  12.2073         79
  12.2445         72
  12.2816         89
  12.3188         80
  12.3559         74
  12.3931         93
  12.4302         88
  12.4674         80
  12.5045         81
  12.5417         71
  12.5788         75
  12.6160         79
  12.6531         74
  12.6903         85
  12.7274         86
  12.7646         78
  12.8018         74
  12.8389         67
  12.8761         70
  12.9132         77
  12.9504        100
  12.9875         64
  13.0247         72
  13.0618         80
  13.0990         70
  13.1361         82
  13.1733         64
  13.2104         87
  13.2476         86
  13.2847         84
  13.3219         79
  13.3590         65
  13.3962         71
  13.4333         75
  13.4705         78
  13.5076         61
  13.5448         79
  13.5819         75
  13.6191         80
  13.6562         73
  13.6934         61
  13.7305         74
  13.7677         84
  13.8048         83
  13.8420         60
  13.8791         57
  13.9163         77
  13.9534         70
  13.9906         64
  14.0277         58
  14.0649         52
  14.1020         62
  14.1392         47
  14.1763         71
  14.2135         67
  14.2506         86
  14.2878         51
  14.3250         72
  14.3621         68
  14.3993         64
  14.4364         47
  14.4736         58
  14.5107         55
  14.5479         62
  14.5850         69
  14.6222         56
  14.6593         52
  14.6965         61
  14.7336         62
  14.7708         67
  14.8079         70
  14.8451         58
  14.8822         77
  14.9194         66
  14.9565         57
  14.9937         60
  15.0308         53
  15.0680         63
  15.1051         61
  15.1423         59
  15.1794         66
  15.2166         62
  15.2537         60
  15.2909         62
  15.3280         55
  15.3652         60
  15.4023         64
  15.4395         48
  15.4766         73
  15.5138         62
  15.5509         46
  15.5881         52
  15.6252         68
  15.6624         65
  15.6995         57
  15.7367         58
  15.7738         52
  15.8110         65
  15.8482         55
  15.8853         71
  15.9225         48
  15.9596         57
  15.9968         68
  16.0339         73
  16.0711         48
  16.1082         63
  16.1454         59
  16.1825         52
  16.2197         56
  16.2568         67
  16.2940         76
  16.3311         59
  16.3683         55
  16.4054         61
  16.4426         56
  16.4797         51
  16.5169         62
  16.5540         71
  16.5912         55
  16.6283         67
  16.6655         56
  16.7026         61
  16.7398         59
  16.7769         50
  16.8141         54
  16.8512         56
  16.8884         71
  16.9255         61
  16.9627         66
  16.9998         55
  17.0370         54
  17.0741         63
  17.1113         53
  17.1484         61
  17.1856         65
  17.2227         57
  17.2599         42
  17.2970         52
  17.3342         57
  17.3713         52
  17.4085         65
  17.4457         50
  17.4828         74
  17.5200         70
  17.5571         65
  17.5943         45
  17.6314         62
  17.6686         65
  17.7057         62
  17.7429         56
  17.7800         62
  17.8172         50
  17.8543         62
  17.8915         65
  17.9286         64
  17.9658         62
  18.0029         64
  18.0401         63
  18.0772         66
  18.1144         44
  18.1515         54
  18.1887         76
  18.2258         60
  18.2630         69
  18.3001         56
  18.3373         54
  18.3744         61
  18.4116         64
  18.4487         60
  18.4859         52
  18.5230         64
  18.5602         67
  18.5973         57
  18.6345         67
  18.6716         79
  18.7088         54
  18.7459         65
  18.7831         69
  18.8202         55
  18.8574         61
  18.8945         56
  18.9317         61
  18.9689         53
  19.0060         59
  19.0432         59
  19.0803         73
  19.1175         66
  19.1546         65
  19.1918         56
  19.2289         78
  19.2661         73
  19.3032         60
  19.3404         61
  19.3775         63
  19.4147         58
  19.4518         67
  19.4890         64
  19.5261         68
  19.5633         60
  19.6004         73
  19.6376         62
  19.6747         60
  19.7119         68
  19.7490         67
  19.7862         66
  19.8233         67
  19.8605         56
  19.8976         71
  19.9348         52
  19.9719         80
  20.0091         59
  20.0462         53
  20.0834         62
  20.1205         81
  20.1577         60
  20.1948         69
  20.2320         61
  20.2691         57
  20.3063         59
  20.3434         56
  20.3806         69
  20.4177         67
  20.4549         73
  20.4921         75
  20.5292         65
  20.5664         70
  20.6035         78
  20.6407         60
  20.6778         71
  20.7150         71
  20.7521         70
  20.7893         62
  20.8264         70
  20.8636         67
  20.9007         74
  20.9379         59
  20.9750         72
  21.0122         65
  21.0493         84
  21.0865         92
  21.1236         71
  21.1608         95
  21.1979        120
  21.2351        142
  21.2722        110
  21.3094        122
  21.3465        174
  21.3837        127
  21.4208        129
  21.4580         77
  21.4951         85
  21.5323         77
  21.5694         74
  21.6066         68
  21.6437         71
  21.6809         70
  21.7180         87
  21.7552         76
  21.7923         64
  21.8295         73
  21.8666         79
  21.9038         63
  21.9409         67
  21.9781         68
  22.0152         76
  22.0524         86
  22.0896         61
  22.1267         65
  22.1639         65
  22.2010         69
  22.2382         60
  22.2753         83
  22.3125         68
  22.3496         69
  22.3868         81
  22.4239         86
  22.4611         67
  22.4982         87
  22.5354         78
  22.5725         75
  22.6097         66
  22.6468         69
  22.6840         95
  22.7211         74
  22.7583         65
  22.7954         69
  22.8326         73
  22.8697         78
  22.9069         74
  22.9440         74
  22.9812         78
  23.0183         91
  23.0555         82
  23.0926         71
  23.1298         75
  23.1669         99
  23.2041         84
  23.2412         73
  23.2784         70
  23.3155         81
  23.3527         79
  23.3898         63
  23.4270         72
  23.4641         72
  23.5013         57
  23.5384         70
  23.5756         65
  23.6128         75
  23.6499         75
  23.6871         90
  23.7242         78
  23.7614         68
  23.7985         84
  23.8357         69
  23.8728         78
  23.9100         57
  23.9471         78
  23.9843         88
  24.0214         76
  24.0586         74
  24.0957         67
  24.1329         77
  24.1700         82
  24.2072         80
  24.2443         73
  24.2815         87
  24.3186         87
  24.3558         70
  24.3929         70
  24.4301         74
  24.4672         94
  24.5044         84
  24.5415         67
  24.5787         72
  24.6158         72
  24.6530         87
  24.6901         68
  24.7273         80
  24.7644         94
  24.8016         80
  24.8387         74
  24.8759         73
  24.9130         65
  24.9502         59
  24.9873         75
  25.0245         67
  25.0616         51
  25.0988         66
  25.1360         77
  25.1731         72
  25.2103         74
  25.2474         73
  25.2846         70
  25.3217         80
  25.3589         84
  25.3960         82
  25.4332         67
  25.4703         55
  25.5075        103
  25.5446         88
  25.5818         75
  25.6189         73
  25.6561         72
  25.6932         63
  25.7304        101
  25.7675         71
  25.8047         71
  25.8418         87
  25.8790         71
  25.9161         74
  25.9533         74
  25.9904         82
  26.0276         54
  26.0647         68
  26.1019         84
  26.1390         71
  26.1762         64
  26.2133         52
  26.2505         67
  26.2876         50
  26.3248         75
  26.3619         81
  26.3991         75
  26.4362         78
  26.4734         68
  26.5105         76
  26.5477         67
  26.5848         48
  26.6220         62
  26.6591         65
  26.6963         75
  26.7335         70
  26.7706         74
  26.8078         65
  26.8449         64
  26.8821         67
  26.9192         92
  26.9564         55
  26.9935         74
  27.0307         75
  27.0678         74
  27.1050         59
  27.1421         81
  27.1793         78
  27.2164         96
  27.2536         89
  27.2907         75
  27.3279         88
  27.3650         79
  27.4022         73
  27.4393         62
  27.4765         65
  27.5136         85
  27.5508         81
  27.5879         79
  27.6251         62
  27.6622         66
  27.6994         58
  27.7365         71
  27.7737         64
  27.8108         69
  27.8480         65
  27.8851         68
  27.9223         63
  27.9594         61
  27.9966         65
  28.0337         63
  28.0709         70
  28.1080         77
  28.1452         59
  28.1823         65
  28.2195         68
  28.2567         60
  28.2938         57
  28.3310         62
  28.3681         72
  28.4053         65
  28.4424         60
  28.4796         71
  28.5167         43
  28.5539         50
  28.5910         72
  28.6282         61
  28.6653         59
  28.7025         73
  28.7396         58
  28.7768         51
  28.8139         56
  28.8511         66
  28.8882         73
  28.9254         69
  28.9625         71
  28.9997         56
  29.0368         71
  29.0740         59
  29.1111         53
  29.1483         56
  29.1854         52
  29.2226         57
  29.2597         48
  29.2969         66
  29.3340         58
  29.3712         53
  29.4083         55
  29.4455         66
  29.4826         56
  29.5198         72
  29.5569         62
  29.5941         60
  29.6312         63
  29.6684         79
  29.7055         59
  29.7427         59
  29.7799         62
  29.8170         54
  29.8542         50
  29.8913         52
  29.9285         47
  29.9656         65
  30.0028         72
  30.0399         58
  30.0771         46
  30.1142         63
  30.1514         46
  30.1885         64
  30.2257         60
  30.2628         72
  30.3000         63
  30.3371         74
  30.3743        110
  30.4114        113
  30.4486         87
  30.4857         79
  30.5229         57
  30.5600         67
  30.5972         55
  30.6343         62
  30.6715         60
  30.7086         52
  30.7458         46
  30.7829         51
  30.8201         58
  30.8572         52
  30.8944         49
  30.9315         57
  30.9687         52
  31.0058         50
  31.0430         57
  31.0801         61
  31.1173         49
  31.1544         48
  31.1916         65
  31.2287         57
  31.2659         55
  31.3030         58
  31.3402         61
  31.3774         49
  31.4145         49
  31.4517         48
  31.4888         44
  31.5260         43
  31.5631         58
  31.6003         53
  31.6374         47
  31.6746         50
  31.7117         45
  31.7489         58
  31.7860         50
  31.8232         50
  31.8603         57
  31.8975         52
  31.9346         54
  31.9718         44
  32.0089         53
  32.0461         51
  32.0832         44
  32.1204         47
  32.1575         42
  32.1947         58
  32.2318         41
  32.2690         45
  32.3061         51
  32.3433         51
  32.3804         56
  32.4176         56
  32.4547         61
  32.4919         61
  32.5290         62
  32.5662         54
  32.6033         45
  32.6405         41
  32.6776         41
  32.7148         48
  32.7519         44
  32.7891         39
  32.8262         48
  32.8634         37
  32.9006         47
  32.9377         44
  32.9749         56
  33.0120         53
  33.0492         40
  33.0863         49
  33.1235         57
  33.1606         53
  33.1978         49
  33.2349         50
  33.2721         39
  33.3092         45
  33.3464         48
  33.3835         64
  33.4207         58
  33.4578         40
  33.4950         52
  33.5321         39
  33.5693         39
  33.6064         38
  33.6436         44
  33.6807         42
  33.7179         42
  33.7550         45
  33.7922         42
  33.8293         52
  33.8665         41
  33.9036         36
  33.9408         47
  33.9779         37
  34.0151         33
  34.0522         34
  34.0894         42
  34.1265         53
  34.1637         39
  34.2008         39
  34.2380         40
  34.2751         40
  34.3123         33
  34.3494         32
  34.3866         47
  34.4238         33
  34.4609         38
  34.4981         42
  34.5352         38
  34.5724         59
  34.6095         58
  34.6467         57
  34.6838         47
  34.7210         43
  34.7581         68
  34.7953         45
  34.8324         47
  34.8696         45
  34.9067         49
  34.9439         45
  34.9810         29
  35.0182         40
  35.0553         40
  35.0925         40
  35.1296         40
  35.1668         30
  35.2039         43
  35.2411         30
  35.2782         33
  35.3154         37
  35.3525         50
  35.3897         42
  35.4268         39
  35.4640         44
  35.5011         44
  35.5383         42
  35.5754         40
  35.6126         42
  35.6497         28
  35.6869         36
  35.7240         38
  35.7612         33
  35.7983         46
  35.8355         35
  35.8726         36
  35.9098         43
  35.9469         42
  35.9841         37
  36.0213         33
  36.0584         36
  36.0956         32
  36.1327         45
  36.1699         38
  36.2070         37
  36.2442         32
  36.2813         28
  36.3185         34
  36.3556         25
  36.3928         33
  36.4299         32
  36.4671         24
  36.5042         37
  36.5414         38
  36.5785         35
  36.6157         24
  36.6528         37
  36.6900         36
  36.7271         28
  36.7643         42
  36.8014         36
  36.8386         29
  36.8757         32
  36.9129         36
  36.9500         35
  36.9872         40
  37.0243         29
  37.0615         34
  37.0986         34
  37.1358         37
  37.1729         39
  37.2101         41
  37.2472         33
  37.2844         32
  37.3215         36
  37.3587         40
  37.3958         35
  37.4330         53
  37.4701         54
  37.5073         45
  37.5445         41
  37.5816         31
  37.6188         33
  37.6559         23
  37.6931         31
  37.7302         46
  37.7674         43
  37.8045         38
  37.8417         37
  37.8788         30
  37.9160         30
  37.9531         26
  37.9903         27
  38.0274         29
  38.0646         43
  38.1017         34
  38.1389         25
  38.1760         27
  38.2132         38
  38.2503         24
  38.2875         29
  38.3246         32
  38.3618         34
  38.3989         38
  38.4361         29
  38.4732         27
  38.5104         32
  38.5475         28
  38.5847         27
  38.6218         30
  38.6590         24
  38.6961         29
  38.7333         30
  38.7704         27
  38.8076         34
  38.8447         27
  38.8819         29
  38.9190         31
  38.9562         34
  38.9933         35
  39.0305         39
  39.0677         26
  39.1048         38
  39.1420         24
  39.1791         38
  39.2163         40
  39.2534         28
  39.2906         35
  39.3277         30
  39.3649         26
  39.4020         24
  39.4392         31
  39.4763         23
  39.5135         27
  39.5506         29
  39.5878         28
  39.6249         36
  39.6621         21
  39.6992         34
  39.7364         33
  39.7735         28
  39.8107         29
  39.8478         25
  39.8850         30
  39.9221         24
  39.9593         30
  39.9964         34
  40.0336         26
  40.0707         22
  40.1079         36
  40.1450         25
  40.1822         28
  40.2193         19
  40.2565         23
  40.2936         27
  40.3308         32
  40.3679         35
  40.4051         24
  40.4422         26
  40.4794         16
  40.5165         30
  40.5537         30
  40.5908         28
  40.6280         35
  40.6652         27
  40.7023         29
  40.7395         38
  40.7766         30
  40.8138         31
  40.8509         27
  40.8881         29
  40.9252         26
  40.9624         27
  40.9995         29
  41.0367         35
  41.0738         35
  41.1110         29
  41.1481         29
  41.1853         30
  41.2224         31
  41.2596         36
  41.2967         26
  41.3339         42
  41.3710         25
  41.4082         27
  41.4453         28
  41.4825         41
  41.5196         30
  41.5568         35
  41.5939         23
  41.6311         32
  41.6682         36
  41.7054         19
  41.7425         33
  41.7797         28
  41.8168         25
  41.8540         22
  41.8911         36
  41.9283         32
  41.9654         39
  42.0026         34
  42.0397         32
  42.0769         26
  42.1140         24
  42.1512         35
  42.1884         28
  42.2255         29
  42.2627         31
  42.2998         26
  42.3370         25
  42.3741         22
  42.4113         28
  42.4484         29
  42.4856         27
  42.5227         29
  42.5599         31
  42.5970         31
  42.6342         29
  42.6713         26
  42.7085         37
  42.7456         37
  42.7828         24
  42.8199         29
  42.8571         28
  42.8942         36
  42.9314         23
  42.9685         30
  43.0057         26
  43.0428         30
  43.0800         25
  43.1171         26
  43.1543         26
  43.1914         38
  43.2286         27
  43.2657         23
  43.3029         32
  43.3400         34
  43.3772         28
  43.4143         32
  43.4515         39
  43.4886         49
  43.5258         55
  43.5629         33
  43.6001         39
  43.6372         42
  43.6744         40
  43.7116         22
  43.7487         30
  43.7859         20
  43.8230         22
  43.8602         26
  43.8973         25
  43.9345         28
  43.9716         19
  44.0088         19
  44.0459         21
  44.0831         24
  44.1202         27
  44.1574         35
  44.1945         26
  44.2317         21
  44.2688         28
  44.3060         20
  44.3431         23
  44.3803         24
  44.4174         30
  44.4546         29
  44.4917         32
  44.5289         21
  44.5660         24
  44.6032         24
  44.6403         26
  44.6775         29
  44.7146         22
  44.7518         23
  44.7889         23
  44.8261         34
  44.8632         27
  44.9004         30
  44.9375         33
  44.9747         29
  45.0118         34
  45.0490         33
  45.0861         22
  45.1233         22
  45.1604         36
  45.1976         24
  45.2347         24
  45.2719         25
  45.3091         15
  45.3462         19
  45.3834         31
  45.4205         17
  45.4577         23
  45.4948         25
  45.5320         32
  45.5691         28
  45.6063         30
  45.6434         25
  45.6806         29
  45.7177         20
  45.7549         20
  45.7920         31
  45.8292         30
  45.8663         22
  45.9035         18
  45.9406         34
  45.9778         29
  46.0149         26
  46.0521         30
  46.0892         19
  46.1264         32
  46.1635         17
  46.2007         32
  46.2378         21
  46.2750         32
  46.3121         32
  46.3493         25
  46.3864         25
  46.4236         28
  46.4607         27
  46.4979         24
  46.5350         29
  46.5722         27
  46.6093         12
  46.6465         33
  46.6836         19
  46.7208         23
  46.7579         24
  46.7951         23
  46.8323         26
  46.8694         20
  46.9066         24
  46.9437         31
  46.9809         26
  47.0180         30
  47.0552         25
  47.0923         21
  47.1295         19
  47.1666         20
  47.2038         31
  47.2409         37
  47.2781         19
  47.3152         26
  47.3524         27
  47.3895         17
  47.4267         24
  47.4638         28
  47.5010         25
  47.5381         20
  47.5753         24
  47.6124         20
  47.6496         14
  47.6867         19
  47.7239         17
  47.7610         27
  47.7982         30
  47.8353         24
  47.8725         19
  47.9096         24
  47.9468         17
  47.9839         24
  48.0211         28
  48.0582         20
  48.0954         28
  48.1325         19
  48.1697         31
  48.2068         26
  48.2440         21
  48.2811         30
  48.3183         24
  48.3555         15
  48.3926         19
  48.4298         28
  48.4669         27
  48.5041         22
  48.5412         25
  48.5784         27
  48.6155         20
  48.6527         23
  48.6898         26
  48.7270         28
  48.7641         27
  48.8013         24
  48.8384         26
  48.8756         29
  48.9127         21
  48.9499         41
  48.9870         41
  49.0242         21
  49.0613         25
  49.0985         46
  49.1356         19
  49.1728         28
  49.2099         25
  49.2471         33
  49.2842         19
  49.3214         21
  49.3585         18
  49.3957         23
  49.4328         21
  49.4700         28
  49.5071         24
  49.5443         16
  49.5814         26
  49.6186         33
  49.6557         18
  49.6929         19
  49.7300         22
  49.7672         24
  49.8043         18
  49.8415         16
  49.8786         12
  49.9158         26
  49.9530         19
  49.9901         18
  50.0273         23
  50.0644         24
  50.1016         20
  50.1387         25
  50.1759         30
  50.2130         19
  50.2502         16
  50.2873         28
  50.3245         24
  50.3616         26
  50.3988         26
  50.4359         22
  50.4731         35
  50.5102         21
  50.5474         19
  50.5845         17
  50.6217         14
  50.6588         23
  50.6960         15
  50.7331         19
  50.7703         35
  50.8074         24
  50.8446         26
  50.8817         25
  50.9189         30
  50.9560         27
  50.9932         17
  51.0303         18
  51.0675         24
  51.1046         22
  51.1418         25
  51.1789         17
  51.2161         27
  51.2532         22
  51.2904         27
  51.3275         26
  51.3647         30
  51.4018         28
  51.4390         29
  51.4762         20
  51.5133         20
  51.5505         32
  51.5876         18
  51.6248         14
  51.6619         23
  51.6991         25
  51.7362         29
  51.7734         29
  51.8105         35
  51.8477         15
  51.8848         24
  51.9220         17
  51.9591         32
  51.9963         30
  52.0334         13
  52.0706         35
  52.1077         22
  52.1449         15
  52.1820         18
  52.2192         21
  52.2563         27
  52.2935         20
  52.3306         18
  52.3678         21
  52.4049         25
  52.4421         27
  52.4792         23
  52.5164         17
  52.5535         28
  52.5907         17
  52.6278         16
  52.6650         16
  52.7021         21
  52.7393         21
  52.7764         23
  52.8136         16
  52.8507         21
  52.8879         28
  52.9250         23
  52.9622         24
  52.9994         25
  53.0365         20
  53.0737         26
  53.1108         23
  53.1480         24
  53.1851         15
  53.2223         18
  53.2594         11
  53.2966         22
  53.3337         14
  53.3709         21
  53.4080         24
  53.4452         19
  53.4823         20
  53.5195         17
  53.5566         19
  53.5938         26
  53.6309         27
  53.6681         29
  53.7052         28
  53.7424         17
  53.7795         27
  53.8167         26
  53.8538         23
  53.8910         16
  53.9281         17
  53.9653         28
  54.0024         28
  54.0396         23
  54.0767         29
  54.1139         29
  54.1510         34
  54.1882         25
  54.2253         20
  54.2625         20
  54.2996         23
  54.3368         19
  54.3739         19
  54.4111         18
  54.4482         19
  54.4854         27
  54.5225         18
  54.5597         24
  54.5969         23
  54.6340         17
  54.6712         10
  54.7083         16
  54.7455         21
  54.7826         24
  54.8198         19
  54.8569         10
  54.8941         19
  54.9312         27
  54.9684         26
  55.0055         21
  55.0427         27
  55.0798         24
  55.1170         22
  55.1541         26
  55.1913         24
  55.2284         20
  55.2656         18
  55.3027         19
  55.3399         27
  55.3770         18
  55.4142         19
  55.4513         24
  55.4885         19
  55.5256         18
  55.5628         22
  55.5999         27
  55.6371         25
  55.6742         20
  55.7114         17
  55.7485         30
  55.7857         16
  55.8228         25
  55.8600         25
  55.8971         15
  55.9343         14
  55.9714         22
  56.0086         26
  56.0457         18
  56.0829         22
  56.1201         26
  56.1572         29
  56.1944         18
  56.2315         15
  56.2687         32
  56.3058         22
  56.3430         16
  56.3801         25
  56.4173         18
  56.4544         21
  56.4916         23
  56.5287         25
  56.5659         24
  56.6030         17
  56.6402         26
  56.6773         27
  56.7145         24
  56.7516         22
  56.7888         22
  56.8259         25
  56.8631         17
  56.9002         23
  56.9374         23
  56.9745         15
  57.0117         21
  57.0488         17
  57.0860         18
  57.1231         14
  57.1603         18
  57.1974         21
  57.2346         26
  57.2717         28
  57.3089         13
  57.3460         22
  57.3832         25
  57.4203         23
  57.4575         25
  57.4946         31
  57.5318         21
  57.5689         19
  57.6061         19
  57.6433         32
  57.6804         15
  57.7176         29
  57.7547         20
  57.7919         21
  57.8290         18
  57.8662         28
  57.9033         15
  57.9405         25
  57.9776         15
  58.0148         27
  58.0519         19
  58.0891         24
  58.1262         20
  58.1634         17
  58.2005         29
  58.2377         15
  58.2748         19
  58.3120         24
  58.3491         18
  58.3863         31
  58.4234         19
  58.4606         13
  58.4977         15
  58.5349         22
  58.5720         15
  58.6092         17
  58.6463         17
  58.6835         24
  58.7206         19
  58.7578         27
  58.7949         23
  58.8321         20
  58.8692         16
  58.9064         26
  58.9435         13
  58.9807         21
  59.0178         21
  59.0550         12
  59.0921         19
  59.1293         19
  59.1664         26
  59.2036         12
  59.2408         15
  59.2779          8
  59.3151         26
  59.3522         16
  59.3894         29
  59.4265         17
  59.4637         13
  59.5008         17
  59.5380         17
  59.5751         24
  59.6123         19
  59.6494         23
  59.6866         14
  59.7237         22
  59.7609         16
  59.7980         18
  59.8352         24
  59.8723          7
  59.9095         11
  59.9466         23
  59.9838         17
  60.0024         19