File: notebooks/data/xrd_data/ML_20220718_55_SJD_4_LaB6-4min.uxd
; (content of file Y:\Sam\Apurva-07-20-2022\puck4\ML_20220718_55_SJD_4_LaB6-4min.raw)
_FILEVERSION = 3
_SAMPLE = ML_20220718_55_SJD_4_LaB6-4min
_+SAMPLE =
_SITE = USA
_USER = Administrator
_GONIOMETER_CODE = 20
; Goniometer : D8 theta/2theta, stage : Unknown
_ATTACHMENTS_CODE = 0
_GONIOMETER_RADIUS = 200.5
_FIXED_DIVSLIT = 0.6
_FIXED_SAMPLESLIT = 0
_SOLLER_SLITS = 2
_FIXED_DETSLIT = 9.55
_MONOCHROMATOR = 0
; Incident beam monochromator : None
_SOLLER_SLITS_2 = N
_THIN_FILM = N
_BETA_FILTER = Y
_FIXED_ANTISLIT = 5.89
_ANALYZER_CODE = 0
; Received beam analyzer : None
_DATEMEASURED = "26-Jul-2022 14:23:10"
_WL_UNIT = A
_WL1 = 1.5406
_WL2 = 1.54439
_WL3 = 1.39222
_WLRATIO = 0.5
_ANODE = Cu
_V4_INF_CREATOR = XRDWizard
_V4_INF_CREATOR_VERSION = V2.9.0.22
_V4_INF_WIZARD_VERSION = V2.9.0.22
_V4_INF_WIZARD_ADDINS = V2.9.0.22
_V4_INF_WIZARD_DOCTYPE = XRD
_V4_INF_OSUSER = McQueenLab
_V4_INF_USER = Administrator
_V4_INF_SITE = USA
_V4_INF_SAMPLEID = ML_20220718_55_SJD_4_LaB6-4min

; Data for range 1
_DRIVE = COUPLED
_STEPTIME = 11.28
_STEPSIZE = 0.0185756
_STEPMODE = C
_START = 5
_THETA = 2.5
_2THETA = 5
_KHI = 0
_PHI = 0
_X = 0
_Y = 0
_Z = 0
_DETECTOR = 5
; Detector type : Unknown
_DETECTORSLIT = unkn
_AUX1 = 0
_AUX2 = 0
_AUX3 = 0
_TIMESTARTED = 15
_TEMP_RATE = -1
_TEMP_DELAY = -1
_KV = 40
_MA = 40
_RANGE_WL = 1.5406
_3DPLANE = 0
_V4_ADDITIONALDETECTOR = 257
_V4_PSD2THETA = 3.3876
_V4_PSDCHANNEL1 = 0
_V4_PSDAPERTURE = 12.68
_V4_PSDTYPE = 5
_V4_PSDFIXED = 0
_V4_COUNTERS_MASK = 4096
_V4_DRIVES_MASK = 0
_V4_ENCODERS_MASK = 0
_2THETACOUNTS = 1
; 2THETA  PSD
   5.0000        225
   5.0372        247
   5.0743        232
   5.1115        238
   5.1486        222
   5.1858        258
   5.2229        230
   5.2601        260
   5.2972        245
   5.3344        260
   5.3715        219
   5.4087        251
   5.4458        236
   5.4830        198
   5.5201        234
   5.5573        213
   5.5944        235
   5.6316        222
   5.6687        193
   5.7059        228
   5.7430        203
   5.7802        210
   5.8173        197
   5.8545        180
   5.8916        204
   5.9288        184
   5.9659        217
   6.0031        192
   6.0402        191
   6.0774        181
   6.1145        199
   6.1517        220
   6.1888        194
   6.2260        186
   6.2631        192
   6.3003        211
   6.3374        174
   6.3746        179
   6.4117        170
   6.4489        185
   6.4860        154
   6.5232        181
   6.5604        192
   6.5975        189
   6.6347        171
   6.6718        183
   6.7090        166
   6.7461        175
   6.7833        165
   6.8204        174
   6.8576        158
   6.8947        167
   6.9319        163
   6.9690        154
   7.0062        152
   7.0433        172
   7.0805        174
   7.1176        154
   7.1548        155
   7.1919        162
   7.2291        170
   7.2662        131
   7.3034        152
   7.3405        162
   7.3777        176
   7.4148        169
   7.4520        164
   7.4891        153
   7.5263        146
   7.5634        155
   7.6006        177
   7.6377        183
   7.6749        153
   7.7120        191
   7.7492        170
   7.7863        169
   7.8235        164
   7.8606        188
   7.8978        171
   7.9349        198
   7.9721        174
   8.0092        234
   8.0464        211
   8.0835        187
   8.1207        211
   8.1579        183
   8.1950        177
   8.2322        210
   8.2693        183
   8.3065        211
   8.3436        192
   8.3808        186
   8.4179        180
   8.4551        214
   8.4922        213
   8.5294        183
   8.5665        212
   8.6037        192
   8.6408        199
   8.6780        196
   8.7151        195
   8.7523        203
   8.7894        209
   8.8266        184
   8.8637        204
   8.9009        226
   8.9380        213
   8.9752        214
   9.0123        191
   9.0495        202
   9.0866        206
   9.1238        235
   9.1609        203
   9.1981        252
   9.2352        235
   9.2724        227
   9.3095        208
   9.3467        229
   9.3838        209
   9.4210        217
   9.4581        224
   9.4953        226
   9.5324        215
   9.5696        227
   9.6067        226
   9.6439        225
   9.6811        211
   9.7182        233
   9.7554        237
   9.7925        229
   9.8297        244
   9.8668        253
   9.9040        270
   9.9411        210
   9.9783        248
  10.0154        227
  10.0526        236
  10.0897        232
  10.1269        263
  10.1640        227
  10.2012        231
  10.2383        232
  10.2755        224
  10.3126        244
  10.3498        239
  10.3869        250
  10.4241        246
  10.4612        242
  10.4984        231
  10.5355        267
  10.5727        255
  10.6098        256
  10.6470        230
  10.6841        225
  10.7213        260
  10.7584        241
  10.7956        253
  10.8327        203
  10.8699        255
  10.9070        246
  10.9442        231
  10.9813        233
  11.0185        249
  11.0556        256
  11.0928        231
  11.1299        236
  11.1671        232
  11.2043        258
  11.2414        263
  11.2786        227
  11.3157        246
  11.3529        221
  11.3900        243
  11.4272        235
  11.4643        229
  11.5015        230
  11.5386        217
  11.5758        240
  11.6129        240
  11.6501        211
  11.6872        238
  11.7244        266
  11.7615        232
  11.7987        220
  11.8358        218
  11.8730        229
  11.9101        230
  11.9473        245
  11.9844        203
  12.0216        242
  12.0587        243
  12.0959        242
  12.1330        221
  12.1702        216
  12.2073        211
  12.2445        237
  12.2816        221
  12.3188        235
  12.3559        247
  12.3931        226
  12.4302        217
  12.4674        244
  12.5045        226
  12.5417        194
  12.5788        202
  12.6160        217
  12.6531        223
  12.6903        240
  12.7274        198
  12.7646        219
  12.8018        192
  12.8389        222
  12.8761        216
  12.9132        196
  12.9504        207
  12.9875        207
  13.0247        199
  13.0618        217
  13.0990        220
  13.1361        216
  13.1733        195
  13.2104        172
  13.2476        225
  13.2847        215
  13.3219        206
  13.3590        195
  13.3962        189
  13.4333        193
  13.4705        195
  13.5076        194
  13.5448        197
  13.5819        216
  13.6191        204
  13.6562        216
  13.6934        191
  13.7305        185
  13.7677        187
  13.8048        195
  13.8420        174
  13.8791        172
  13.9163        196
  13.9534        184
  13.9906        166
  14.0277        179
  14.0649        194
  14.1020        169
  14.1392        200
  14.1763        152
  14.2135        177
  14.2506        187
  14.2878        184
  14.3250        193
  14.3621        171
  14.3993        174
  14.4364        174
  14.4736        166
  14.5107        183
  14.5479        181
  14.5850        186
  14.6222        188
  14.6593        185
  14.6965        144
  14.7336        193
  14.7708        155
  14.8079        175
  14.8451        185
  14.8822        174
  14.9194        176
  14.9565        152
  14.9937        160
  15.0308        168
  15.0680        152
  15.1051        188
  15.1423        173
  15.1794        154
  15.2166        169
  15.2537        165
  15.2909        160
  15.3280        175
  15.3652        154
  15.4023        182
  15.4395        192
  15.4766        165
  15.5138        150
  15.5509        163
  15.5881        157
  15.6252        182
  15.6624        140
  15.6995        176
  15.7367        153
  15.7738        159
  15.8110        162
  15.8482        144
  15.8853        166
  15.9225        164
  15.9596        151
  15.9968        162
  16.0339        150
  16.0711        154
  16.1082        156
  16.1454        164
  16.1825        160
  16.2197        159
  16.2568        163
  16.2940        193
  16.3311        168
  16.3683        181
  16.4054        161
  16.4426        139
  16.4797        156
  16.5169        172
  16.5540        157
  16.5912        172
  16.6283        175
  16.6655        153
  16.7026        167
  16.7398        164
  16.7769        170
  16.8141        180
  16.8512        180
  16.8884        185
  16.9255        184
  16.9627        168
  16.9998        172
  17.0370        151
  17.0741        160
  17.1113        159
  17.1484        169
  17.1856        168
  17.2227        169
  17.2599        171
  17.2970        170
  17.3342        163
  17.3713        175
  17.4085        153
  17.4457        134
  17.4828        183
  17.5200        152
  17.5571        183
  17.5943        146
  17.6314        148
  17.6686        159
  17.7057        171
  17.7429        162
  17.7800        148
  17.8172        154
  17.8543        164
  17.8915        169
  17.9286        178
  17.9658        193
  18.0029        197
  18.0401        151
  18.0772        143
  18.1144        157
  18.1515        175
  18.1887        165
  18.2258        172
  18.2630        167
  18.3001        168
  18.3373        185
  18.3744        174
  18.4116        167
  18.4487        183
  18.4859        152
  18.5230        169
  18.5602        190
  18.5973        169
  18.6345        180
  18.6716        148
  18.7088        141
  18.7459        164
  18.7831        174
  18.8202        173
  18.8574        150
  18.8945        149
  18.9317        162
  18.9689        190
  19.0060        152
  19.0432        183
  19.0803        167
  19.1175        170
  19.1546        164
  19.1918        171
  19.2289        176
  19.2661        180
  19.3032        183
  19.3404        174
  19.3775        157
  19.4147        187
  19.4518        188
  19.4890        188
  19.5261        172
  19.5633        194
  19.6004        166
  19.6376        178
  19.6747        174
  19.7119        179
  19.7490        181
  19.7862        192
  19.8233        173
  19.8605        181
  19.8976        165
  19.9348        192
  19.9719        197
  20.0091        182
  20.0462        173
  20.0834        150
  20.1205        175
  20.1577        185
  20.1948        194
  20.2320        192
  20.2691        177
  20.3063        183
  20.3434        176
  20.3806        205
  20.4177        172
  20.4549        182
  20.4921        178
  20.5292        191
  20.5664        194
  20.6035        187
  20.6407        167
  20.6778        201
  20.7150        186
  20.7521        197
  20.7893        208
  20.8264        183
  20.8636        194
  20.9007        174
  20.9379        197
  20.9750        197
  21.0122        194
  21.0493        178
  21.0865        186
  21.1236        213
  21.1608        251
  21.1979        285
  21.2351        334
  21.2722        298
  21.3094        302
  21.3465        452
  21.3837        422
  21.4208        404
  21.4580        234
  21.4951        185
  21.5323        189
  21.5694        199
  21.6066        187
  21.6437        190
  21.6809        202
  21.7180        182
  21.7552        195
  21.7923        191
  21.8295        191
  21.8666        200
  21.9038        190
  21.9409        204
  21.9781        209
  22.0152        208
  22.0524        185
  22.0896        189
  22.1267        175
  22.1639        215
  22.2010        180
  22.2382        208
  22.2753        171
  22.3125        195
  22.3496        215
  22.3868        190
  22.4239        187
  22.4611        161
  22.4982        196
  22.5354        174
  22.5725        194
  22.6097        189
  22.6468        173
  22.6840        190
  22.7211        221
  22.7583        176
  22.7954        202
  22.8326        193
  22.8697        216
  22.9069        186
  22.9440        204
  22.9812        199
  23.0183        217
  23.0555        207
  23.0926        191
  23.1298        197
  23.1669        192
  23.2041        196
  23.2412        203
  23.2784        211
  23.3155        183
  23.3527        181
  23.3898        190
  23.4270        214
  23.4641        215
  23.5013        186
  23.5384        228
  23.5756        225
  23.6128        193
  23.6499        188
  23.6871        240
  23.7242        188
  23.7614        192
  23.7985        208
  23.8357        185
  23.8728        226
  23.9100        224
  23.9471        228
  23.9843        206
  24.0214        201
  24.0586        201
  24.0957        221
  24.1329        215
  24.1700        210
  24.2072        237
  24.2443        233
  24.2815        220
  24.3186        196
  24.3558        220
  24.3929        231
  24.4301        194
  24.4672        191
  24.5044        203
  24.5415        187
  24.5787        223
  24.6158        209
  24.6530        226
  24.6901        209
  24.7273        186
  24.7644        217
  24.8016        213
  24.8387        212
  24.8759        190
  24.9130        198
  24.9502        218
  24.9873        209
  25.0245        219
  25.0616        203
  25.0988        181
  25.1360        226
  25.1731        194
  25.2103        215
  25.2474        207
  25.2846        217
  25.3217        202
  25.3589        206
  25.3960        196
  25.4332        181
  25.4703        208
  25.5075        183
  25.5446        197
  25.5818        179
  25.6189        191
  25.6561        195
  25.6932        174
  25.7304        189
  25.7675        188
  25.8047        186
  25.8418        203
  25.8790        186
  25.9161        193
  25.9533        197
  25.9904        198
  26.0276        206
  26.0647        208
  26.1019        216
  26.1390        188
  26.1762        172
  26.2133        203
  26.2505        194
  26.2876        202
  26.3248        188
  26.3619        209
  26.3991        203
  26.4362        188
  26.4734        168
  26.5105        178
  26.5477        176
  26.5848        158
  26.6220        184
  26.6591        193
  26.6963        166
  26.7335        178
  26.7706        196
  26.8078        214
  26.8449        168
  26.8821        203
  26.9192        199
  26.9564        200
  26.9935        188
  27.0307        200
  27.0678        192
  27.1050        176
  27.1421        202
  27.1793        222
  27.2164        228
  27.2536        227
  27.2907        198
  27.3279        207
  27.3650        199
  27.4022        183
  27.4393        175
  27.4765        183
  27.5136        196
  27.5508        184
  27.5879        170
  27.6251        185
  27.6622        179
  27.6994        184
  27.7365        169
  27.7737        173
  27.8108        176
  27.8480        176
  27.8851        173
  27.9223        174
  27.9594        195
  27.9966        166
  28.0337        167
  28.0709        158
  28.1080        181
  28.1452        167
  28.1823        159
  28.2195        183
  28.2567        176
  28.2938        180
  28.3310        185
  28.3681        199
  28.4053        148
  28.4424        172
  28.4796        143
  28.5167        165
  28.5539        149
  28.5910        146
  28.6282        161
  28.6653        188
  28.7025        183
  28.7396        179
  28.7768        177
  28.8139        156
  28.8511        182
  28.8882        164
  28.9254        163
  28.9625        169
  28.9997        168
  29.0368        161
  29.0740        153
  29.1111        152
  29.1483        164
  29.1854        157
  29.2226        123
  29.2597        178
  29.2969        187
  29.3340        179
  29.3712        173
  29.4083        155
  29.4455        159
  29.4826        195
  29.5198        175
  29.5569        162
  29.5941        152
  29.6312        165
  29.6684        162
  29.7055        158
  29.7427        146
  29.7799        143
  29.8170        159
  29.8542        165
  29.8913        144
  29.9285        155
  29.9656        152
  30.0028        131
  30.0399        148
  30.0771        160
  30.1142        155
  30.1514        146
  30.1885        174
  30.2257        168
  30.2628        189
  30.3000        183
  30.3371        191
  30.3743        307
  30.4114        282
  30.4486        216
  30.4857        222
  30.5229        160
  30.5600        174
  30.5972        149
  30.6343        172
  30.6715        146
  30.7086        153
  30.7458        141
  30.7829        141
  30.8201        154
  30.8572        143
  30.8944        143
  30.9315        135
  30.9687        134
  31.0058        146
  31.0430        159
  31.0801        135
  31.1173        143
  31.1544        161
  31.1916        157
  31.2287        152
  31.2659        140
  31.3030        130
  31.3402        148
  31.3774        144
  31.4145        131
  31.4517        133
  31.4888        135
  31.5260        144
  31.5631        134
  31.6003        142
  31.6374        137
  31.6746        119
  31.7117        129
  31.7489        117
  31.7860        138
  31.8232        143
  31.8603        129
  31.8975        143
  31.9346        128
  31.9718        142
  32.0089        146
  32.0461        142
  32.0832        119
  32.1204        123
  32.1575        139
  32.1947        126
  32.2318        126
  32.2690        124
  32.3061        123
  32.3433        140
  32.3804        142
  32.4176        138
  32.4547        138
  32.4919        184
  32.5290        142
  32.5662        128
  32.6033        158
  32.6405        123
  32.6776        113
  32.7148        134
  32.7519        132
  32.7891        119
  32.8262        113
  32.8634        121
  32.9006        148
  32.9377        101
  32.9749        122
  33.0120        144
  33.0492        110
  33.0863        105
  33.1235        122
  33.1606        113
  33.1978        119
  33.2349        118
  33.2721        138
  33.3092        122
  33.3464        125
  33.3835        116
  33.4207        131
  33.4578        101
  33.4950        134
  33.5321        147
  33.5693        114
  33.6064        144
  33.6436        116
  33.6807        102
  33.7179        110
  33.7550        130
  33.7922        134
  33.8293        116
  33.8665        131
  33.9036        115
  33.9408        119
  33.9779        110
  34.0151        118
  34.0522        101
  34.0894        115
  34.1265        112
  34.1637        120
  34.2008        116
  34.2380         95
  34.2751        112
  34.3123        112
  34.3494        128
  34.3866        120
  34.4238        110
  34.4609        118
  34.4981        126
  34.5352        135
  34.5724        142
  34.6095        117
  34.6467        135
  34.6838        127
  34.7210        151
  34.7581        150
  34.7953        161
  34.8324        134
  34.8696        114
  34.9067        125
  34.9439        104
  34.9810        116
  35.0182        129
  35.0553         94
  35.0925         94
  35.1296        102
  35.1668        105
  35.2039         95
  35.2411         88
  35.2782         99
  35.3154         98
  35.3525        123
  35.3897        107
  35.4268         91
  35.4640        111
  35.5011        110
  35.5383        105
  35.5754        102
  35.6126        107
  35.6497        110
  35.6869        114
  35.7240        106
  35.7612         87
  35.7983        102
  35.8355         88
  35.8726        105
  35.9098         95
  35.9469         90
  35.9841        102
  36.0213        103
  36.0584         95
  36.0956        110
  36.1327         91
  36.1699        102
  36.2070        100
  36.2442         92
  36.2813         89
  36.3185         87
  36.3556         86
  36.3928         94
  36.4299         95
  36.4671         98
  36.5042        103
  36.5414         78
  36.5785         89
  36.6157        107
  36.6528        100
  36.6900         81
  36.7271        102
  36.7643         93
  36.8014         86
  36.8386         91
  36.8757         82
  36.9129        103
  36.9500         92
  36.9872        100
  37.0243         87
  37.0615         94
  37.0986         86
  37.1358         85
  37.1729         87
  37.2101        100
  37.2472        101
  37.2844        100
  37.3215        102
  37.3587         88
  37.3958        109
  37.4330        165
  37.4701        119
  37.5073        119
  37.5445        126
  37.5816         93
  37.6188        103
  37.6559        106
  37.6931         95
  37.7302         78
  37.7674         75
  37.8045         63
  37.8417         83
  37.8788         94
  37.9160         83
  37.9531         82
  37.9903        116
  38.0274         95
  38.0646         80
  38.1017         86
  38.1389        102
  38.1760         83
  38.2132         84
  38.2503         85
  38.2875        103
  38.3246         91
  38.3618         86
  38.3989         84
  38.4361         83
  38.4732         77
  38.5104        102
  38.5475         94
  38.5847        102
  38.6218         84
  38.6590         70
  38.6961         60
  38.7333         88
  38.7704         97
  38.8076         76
  38.8447         86
  38.8819         88
  38.9190         77
  38.9562         78
  38.9933         77
  39.0305         84
  39.0677         92
  39.1048         82
  39.1420         87
  39.1791         78
  39.2163         88
  39.2534         71
  39.2906         76
  39.3277         71
  39.3649         80
  39.4020         67
  39.4392         74
  39.4763         77
  39.5135         78
  39.5506         83
  39.5878         86
  39.6249         77
  39.6621         81
  39.6992         75
  39.7364         55
  39.7735         93
  39.8107         83
  39.8478         91
  39.8850         78
  39.9221         76
  39.9593         83
  39.9964         57
  40.0336         82
  40.0707         74
  40.1079         89
  40.1450         71
  40.1822         78
  40.2193         77
  40.2565         76
  40.2936         71
  40.3308         68
  40.3679         68
  40.4051         79
  40.4422         88
  40.4794         82
  40.5165         80
  40.5537         77
  40.5908         92
  40.6280         91
  40.6652         73
  40.7023         72
  40.7395         80
  40.7766         76
  40.8138         86
  40.8509         80
  40.8881         69
  40.9252         64
  40.9624         91
  40.9995         70
  41.0367         75
  41.0738         73
  41.1110         80
  41.1481         72
  41.1853         76
  41.2224         72
  41.2596         79
  41.2967         73
  41.3339         76
  41.3710         70
  41.4082         74
  41.4453         73
  41.4825         75
  41.5196         91
  41.5568         73
  41.5939         76
  41.6311         73
  41.6682         83
  41.7054         72
  41.7425         74
  41.7797         55
  41.8168         79
  41.8540         63
  41.8911         77
  41.9283         82
  41.9654         68
  42.0026         83
  42.0397         76
  42.0769         78
  42.1140         81
  42.1512         88
  42.1884         58
  42.2255         78
  42.2627         92
  42.2998         76
  42.3370         84
  42.3741         83
  42.4113         81
  42.4484         81
  42.4856         77
  42.5227         71
  42.5599         81
  42.5970         73
  42.6342         78
  42.6713         81
  42.7085         80
  42.7456         92
  42.7828         85
  42.8199         80
  42.8571         77
  42.8942         65
  42.9314         80
  42.9685         75
  43.0057         86
  43.0428         90
  43.0800         89
  43.1171         67
  43.1543         83
  43.1914         90
  43.2286         78
  43.2657         80
  43.3029         91
  43.3400         91
  43.3772         88
  43.4143         92
  43.4515         72
  43.4886        102
  43.5258        138
  43.5629        114
  43.6001        109
  43.6372        129
  43.6744         67
  43.7116         76
  43.7487         53
  43.7859         60
  43.8230         80
  43.8602         75
  43.8973         68
  43.9345         55
  43.9716         79
  44.0088         90
  44.0459         69
  44.0831         59
  44.1202         80
  44.1574         76
  44.1945         80
  44.2317         89
  44.2688         78
  44.3060         51
  44.3431         77
  44.3803         83
  44.4174         80
  44.4546         75
  44.4917         62
  44.5289         87
  44.5660         52
  44.6032         83
  44.6403         83
  44.6775         86
  44.7146         69
  44.7518         68
  44.7889         80
  44.8261         68
  44.8632         65
  44.9004         60
  44.9375         76
  44.9747         80
  45.0118         69
  45.0490         72
  45.0861         70
  45.1233         74
  45.1604         76
  45.1976         74
  45.2347         82
  45.2719         55
  45.3091         62
  45.3462         76
  45.3834         66
  45.4205         81
  45.4577         74
  45.4948         77
  45.5320         61
  45.5691         60
  45.6063         64
  45.6434         80
  45.6806         83
  45.7177         74
  45.7549         73
  45.7920         69
  45.8292         75
  45.8663         50
  45.9035         78
  45.9406         65
  45.9778         68
  46.0149         66
  46.0521         73
  46.0892         76
  46.1264         60
  46.1635         77
  46.2007         65
  46.2378         62
  46.2750         72
  46.3121         48
  46.3493         84
  46.3864         76
  46.4236         63
  46.4607         63
  46.4979         58
  46.5350         57
  46.5722         63
  46.6093         90
  46.6465         47
  46.6836         46
  46.7208         61
  46.7579         69
  46.7951         58
  46.8323         59
  46.8694         66
  46.9066         53
  46.9437         59
  46.9809         63
  47.0180         65
  47.0552         70
  47.0923         72
  47.1295         53
  47.1666         65
  47.2038         60
  47.2409         66
  47.2781         53
  47.3152         67
  47.3524         70
  47.3895         47
  47.4267         48
  47.4638         65
  47.5010         53
  47.5381         87
  47.5753         85
  47.6124         74
  47.6496         57
  47.6867         64
  47.7239         64
  47.7610         66
  47.7982         65
  47.8353         65
  47.8725         62
  47.9096         78
  47.9468         66
  47.9839         55
  48.0211         62
  48.0582         63
  48.0954         57
  48.1325         51
  48.1697         77
  48.2068         70
  48.2440         69
  48.2811         54
  48.3183         80
  48.3555         58
  48.3926         67
  48.4298         75
  48.4669         65
  48.5041         54
  48.5412         56
  48.5784         65
  48.6155         67
  48.6527         73
  48.6898         69
  48.7270         66
  48.7641         79
  48.8013         63
  48.8384         68
  48.8756         64
  48.9127         81
  48.9499        131
  48.9870         92
  49.0242         82
  49.0613         89
  49.0985         97
  49.1356         80
  49.1728         64
  49.2099         66
  49.2471         64
  49.2842         77
  49.3214         47
  49.3585         51
  49.3957         48
  49.4328         69
  49.4700         60
  49.5071         54
  49.5443         67
  49.5814         59
  49.6186         56
  49.6557         60
  49.6929         72
  49.7300         56
  49.7672         69
  49.8043         62
  49.8415         58
  49.8786         75
  49.9158         54
  49.9530         72
  49.9901         53
  50.0273         67
  50.0644         58
  50.1016         54
  50.1387         77
  50.1759         81
  50.2130         68
  50.2502         56
  50.2873         56
  50.3245         69
  50.3616         59
  50.3988         50
  50.4359         69
  50.4731         61
  50.5102         60
  50.5474         63
  50.5845         60
  50.6217         43
  50.6588         55
  50.6960         54
  50.7331         49
  50.7703         72
  50.8074         54
  50.8446         69
  50.8817         57
  50.9189         45
  50.9560         64
  50.9932         59
  51.0303         67
  51.0675         55
  51.1046         42
  51.1418         62
  51.1789         68
  51.2161         78
  51.2532         53
  51.2904         70
  51.3275         64
  51.3647         67
  51.4018         82
  51.4390         59
  51.4762         68
  51.5133         67
  51.5505         68
  51.5876         69
  51.6248         62
  51.6619         77
  51.6991         60
  51.7362         69
  51.7734         62
  51.8105         65
  51.8477         68
  51.8848         63
  51.9220         69
  51.9591         52
  51.9963         58
  52.0334         55
  52.0706         60
  52.1077         76
  52.1449         56
  52.1820         52
  52.2192         73
  52.2563         57
  52.2935         58
  52.3306         47
  52.3678         51
  52.4049         55
  52.4421         45
  52.4792         54
  52.5164         49
  52.5535         69
  52.5907         52
  52.6278         53
  52.6650         46
  52.7021         58
  52.7393         57
  52.7764         58
  52.8136         60
  52.8507         50
  52.8879         50
  52.9250         66
  52.9622         63
  52.9994         76
  53.0365         66
  53.0737         64
  53.1108         57
  53.1480         51
  53.1851         69
  53.2223         48
  53.2594         67
  53.2966         65
  53.3337         55
  53.3709         63
  53.4080         55
  53.4452         54
  53.4823         62
  53.5195         57
  53.5566         59
  53.5938         51
  53.6309         61
  53.6681         57
  53.7052         63
  53.7424         66
  53.7795         59
  53.8167         61
  53.8538         66
  53.8910         56
  53.9281         41
  53.9653         76
  54.0024         82
  54.0396         56
  54.0767         56
  54.1139         64
  54.1510         60
  54.1882         60
  54.2253         59
  54.2625         58
  54.2996         77
  54.3368         65
  54.3739         58
  54.4111         58
  54.4482         70
  54.4854         67
  54.5225         60
  54.5597         64
  54.5969         59
  54.6340         52
  54.6712         56
  54.7083         60
  54.7455         56
  54.7826         64
  54.8198         59
  54.8569         53
  54.8941         46
  54.9312         51
  54.9684         50
  55.0055         54
  55.0427         62
  55.0798         58
  55.1170         60
  55.1541         62
  55.1913         63
  55.2284         61
  55.2656         46
  55.3027         66
  55.3399         51
  55.3770         59
  55.4142         52
  55.4513         54
  55.4885         59
  55.5256         49
  55.5628         52
  55.5999         60
  55.6371         54
  55.6742         59
  55.7114         59
  55.7485         59
  55.7857         46
  55.8228         60
  55.8600         60
  55.8971         63
  55.9343         50
  55.9714         49
  56.0086         58
  56.0457         64
  56.0829         60
  56.1201         57
  56.1572         52
  56.1944         65
  56.2315         71
  56.2687         62
  56.3058         53
  56.3430         64
  56.3801         59
  56.4173         52
  56.4544         70
  56.4916         52
  56.5287         57
  56.5659         62
  56.6030         54
  56.6402         59
  56.6773         56
  56.7145         57
  56.7516         54
  56.7888         47
  56.8259         79
  56.8631         49
  56.9002         44
  56.9374         65
  56.9745         47
  57.0117         51
  57.0488         52
  57.0860         60
  57.1231         50
  57.1603         47
  57.1974         58
  57.2346         53
  57.2717         59
  57.3089         59
  57.3460         52
  57.3832         59
  57.4203         56
  57.4575         49
  57.4946         45
  57.5318         67
  57.5689         57
  57.6061         53
  57.6433         71
  57.6804         52
  57.7176         76
  57.7547         66
  57.7919         64
  57.8290         56
  57.8662         46
  57.9033         61
  57.9405         48
  57.9776         60
  58.0148         58
  58.0519         48
  58.0891         51
  58.1262         50
  58.1634         44
  58.2005         58
  58.2377         50
  58.2748         52
  58.3120         67
  58.3491         53
  58.3863         53
  58.4234         61
  58.4606         44
  58.4977         54
  58.5349         58
  58.5720         63
  58.6092         50
  58.6463         56
  58.6835         50
  58.7206         54
  58.7578         49
  58.7949         49
  58.8321         52
  58.8692         53
  58.9064         38
  58.9435         57
  58.9807         59
  59.0178         68
  59.0550         60
  59.0921         59
  59.1293         48
  59.1664         60
  59.2036         63
  59.2408         49
  59.2779         50
  59.3151         42
  59.3522         43
  59.3894         60
  59.4265         42
  59.4637         55
  59.5008         52
  59.5380         64
  59.5751         51
  59.6123         50
  59.6494         58
  59.6866         56
  59.7237         50
  59.7609         57
  59.7980         57
  59.8352         51
  59.8723         58
  59.9095         60
  59.9466         55
  59.9838         56
  60.0024         46