File: notebooks/data/xrd_data/ML_20220718_44_SJD_4_LaB6-2min.uxd
; (content of file Y:\Sam\Apurva-07-20-2022\puck4\ML_20220718_44_SJD_4_LaB6-2min.raw)
_FILEVERSION = 3
_SAMPLE = ML_20220718_44_SJD_4_LaB6-2min
_+SAMPLE =
_SITE = USA
_USER = Administrator
_GONIOMETER_CODE = 20
; Goniometer : D8 theta/2theta, stage : Unknown
_ATTACHMENTS_CODE = 0
_GONIOMETER_RADIUS = 200.5
_FIXED_DIVSLIT = 0.6
_FIXED_SAMPLESLIT = 0
_SOLLER_SLITS = 2
_FIXED_DETSLIT = 9.55
_MONOCHROMATOR = 0
; Incident beam monochromator : None
_SOLLER_SLITS_2 = N
_THIN_FILM = N
_BETA_FILTER = Y
_FIXED_ANTISLIT = 5.89
_ANALYZER_CODE = 0
; Received beam analyzer : None
_DATEMEASURED = "26-Jul-2022 12:13:17"
_WL_UNIT = A
_WL1 = 1.5406
_WL2 = 1.54439
_WL3 = 1.39222
_WLRATIO = 0.5
_ANODE = Cu
_V4_INF_CREATOR = XRDWizard
_V4_INF_CREATOR_VERSION = V2.9.0.22
_V4_INF_WIZARD_VERSION = V2.9.0.22
_V4_INF_WIZARD_ADDINS = V2.9.0.22
_V4_INF_WIZARD_DOCTYPE = XRD
_V4_INF_OSUSER = McQueenLab
_V4_INF_USER = Administrator
_V4_INF_SITE = USA
_V4_INF_SAMPLEID = ML_20220718_44_SJD_4_LaB6-2min

; Data for range 1
_DRIVE = COUPLED
_STEPTIME = 5.64
_STEPSIZE = 0.0185756
_STEPMODE = C
_START = 5
_THETA = 2.5
_2THETA = 5
_KHI = 0
_PHI = 0
_X = 0
_Y = 0
_Z = 0
_DETECTOR = 5
; Detector type : Unknown
_DETECTORSLIT = unkn
_AUX1 = 0
_AUX2 = 0
_AUX3 = 0
_TIMESTARTED = 14
_TEMP_RATE = -1
_TEMP_DELAY = -1
_KV = 40
_MA = 40
_RANGE_WL = 1.5406
_3DPLANE = 0
_V4_ADDITIONALDETECTOR = 257
_V4_PSD2THETA = 3.4135
_V4_PSDCHANNEL1 = 0
_V4_PSDAPERTURE = 12.68
_V4_PSDTYPE = 5
_V4_PSDFIXED = 0
_V4_COUNTERS_MASK = 4096
_V4_DRIVES_MASK = 0
_V4_ENCODERS_MASK = 0
_2THETACOUNTS = 1
; 2THETA  PSD
   5.0000        132
   5.0372        145
   5.0743        119
   5.1115         99
   5.1486        129
   5.1858        117
   5.2229         99
   5.2601        129
   5.2972        127
   5.3344        127
   5.3715        123
   5.4087        124
   5.4458        119
   5.4830        138
   5.5201        106
   5.5573        116
   5.5944        102
   5.6316        112
   5.6687        118
   5.7059        109
   5.7430        109
   5.7802        106
   5.8173        106
   5.8545        102
   5.8916         96
   5.9288        114
   5.9659         98
   6.0031        102
   6.0402        111
   6.0774         82
   6.1145         94
   6.1517         80
   6.1888         94
   6.2260         90
   6.2631         91
   6.3003         80
   6.3374         97
   6.3746         76
   6.4117         81
   6.4489         82
   6.4860         85
   6.5232         82
   6.5604         87
   6.5975         87
   6.6347         86
   6.6718         82
   6.7090         79
   6.7461         94
   6.7833         76
   6.8204         84
   6.8576         80
   6.8947         78
   6.9319        100
   6.9690         72
   7.0062         81
   7.0433         75
   7.0805         76
   7.1176         94
   7.1548         86
   7.1919         88
   7.2291         85
   7.2662         74
   7.3034         83
   7.3405         69
   7.3777         78
   7.4148         76
   7.4520         73
   7.4891         61
   7.5263         63
   7.5634        103
   7.6006         78
   7.6377         93
   7.6749         80
   7.7120         87
   7.7492         81
   7.7863         86
   7.8235         72
   7.8606         85
   7.8978         97
   7.9349        100
   7.9721         79
   8.0092         79
   8.0464         86
   8.0835        109
   8.1207         87
   8.1579         94
   8.1950        106
   8.2322         93
   8.2693         94
   8.3065        107
   8.3436        108
   8.3808         84
   8.4179        104
   8.4551         98
   8.4922        108
   8.5294        111
   8.5665        110
   8.6037         97
   8.6408         90
   8.6780         86
   8.7151        111
   8.7523        115
   8.7894         84
   8.8266        129
   8.8637        111
   8.9009        112
   8.9380         92
   8.9752         97
   9.0123         98
   9.0495         99
   9.0866         96
   9.1238        114
   9.1609        108
   9.1981         98
   9.2352        114
   9.2724         96
   9.3095        115
   9.3467        105
   9.3838        108
   9.4210        115
   9.4581        112
   9.4953        116
   9.5324        113
   9.5696        116
   9.6067         88
   9.6439        122
   9.6811        107
   9.7182        107
   9.7554        133
   9.7925        122
   9.8297        112
   9.8668        118
   9.9040        117
   9.9411        102
   9.9783        104
  10.0154        126
  10.0526         97
  10.0897        120
  10.1269        122
  10.1640        127
  10.2012        135
  10.2383        110
  10.2755        108
  10.3126        120
  10.3498        116
  10.3869        119
  10.4241        110
  10.4612        110
  10.4984        145
  10.5355        129
  10.5727        120
  10.6098        115
  10.6470        140
  10.6841        121
  10.7213        116
  10.7584        114
  10.7956        117
  10.8327        122
  10.8699        108
  10.9070        102
  10.9442        106
  10.9813        108
  11.0185        114
  11.0556         97
  11.0928        123
  11.1299        114
  11.1671        100
  11.2043        113
  11.2414         96
  11.2786        111
  11.3157        129
  11.3529        118
  11.3900        105
  11.4272        124
  11.4643        107
  11.5015        148
  11.5386        120
  11.5758        129
  11.6129        104
  11.6501        109
  11.6872        115
  11.7244        129
  11.7615        120
  11.7987        137
  11.8358        106
  11.8730        102
  11.9101        116
  11.9473         97
  11.9844        111
  12.0216        104
  12.0587        108
  12.0959        123
  12.1330        123
  12.1702         98
  12.2073        122
  12.2445        125
  12.2816         93
  12.3188         95
  12.3559        113
  12.3931        133
  12.4302        111
  12.4674         97
  12.5045        114
  12.5417        121
  12.5788         93
  12.6160         98
  12.6531        110
  12.6903        106
  12.7274        104
  12.7646        105
  12.8018        121
  12.8389         91
  12.8761         86
  12.9132        106
  12.9504        103
  12.9875        111
  13.0247         99
  13.0618         89
  13.0990        102
  13.1361        102
  13.1733        111
  13.2104        102
  13.2476        102
  13.2847        115
  13.3219        105
  13.3590        114
  13.3962        104
  13.4333        108
  13.4705        103
  13.5076        100
  13.5448        113
  13.5819         84
  13.6191        100
  13.6562         82
  13.6934        103
  13.7305         94
  13.7677        108
  13.8048         98
  13.8420         90
  13.8791        100
  13.9163         92
  13.9534         99
  13.9906         94
  14.0277         77
  14.0649         98
  14.1020         97
  14.1392         82
  14.1763        103
  14.2135        104
  14.2506         86
  14.2878         90
  14.3250        101
  14.3621         93
  14.3993         79
  14.4364        109
  14.4736         67
  14.5107         80
  14.5479         88
  14.5850        103
  14.6222         87
  14.6593         98
  14.6965         77
  14.7336        114
  14.7708         85
  14.8079         78
  14.8451         91
  14.8822         87
  14.9194         69
  14.9565         77
  14.9937         87
  15.0308         84
  15.0680         84
  15.1051         67
  15.1423         75
  15.1794         82
  15.2166         95
  15.2537         78
  15.2909         90
  15.3280         68
  15.3652         82
  15.4023        108
  15.4395         81
  15.4766         76
  15.5138         78
  15.5509         93
  15.5881         74
  15.6252         83
  15.6624        102
  15.6995         82
  15.7367         79
  15.7738         78
  15.8110         74
  15.8482         79
  15.8853         90
  15.9225         84
  15.9596         72
  15.9968         79
  16.0339         76
  16.0711        104
  16.1082         80
  16.1454         75
  16.1825         64
  16.2197         84
  16.2568         76
  16.2940         81
  16.3311         75
  16.3683         86
  16.4054         79
  16.4426         72
  16.4797         86
  16.5169         64
  16.5540         82
  16.5912         74
  16.6283         84
  16.6655         89
  16.7026         86
  16.7398         72
  16.7769         93
  16.8141         81
  16.8512         74
  16.8884         76
  16.9255         72
  16.9627         86
  16.9998         83
  17.0370         84
  17.0741         81
  17.1113         81
  17.1484         99
  17.1856         88
  17.2227         81
  17.2599         84
  17.2970         76
  17.3342         91
  17.3713         93
  17.4085         72
  17.4457         62
  17.4828         89
  17.5200         75
  17.5571         80
  17.5943         81
  17.6314         79
  17.6686         73
  17.7057         75
  17.7429         76
  17.7800         79
  17.8172         70
  17.8543         84
  17.8915         93
  17.9286         93
  17.9658         72
  18.0029         74
  18.0401         77
  18.0772         87
  18.1144         84
  18.1515         92
  18.1887         99
  18.2258         58
  18.2630         79
  18.3001         71
  18.3373         81
  18.3744         84
  18.4116         88
  18.4487         65
  18.4859         88
  18.5230         89
  18.5602         86
  18.5973         73
  18.6345         75
  18.6716         90
  18.7088         83
  18.7459         91
  18.7831         72
  18.8202         72
  18.8574         80
  18.8945         95
  18.9317         84
  18.9689         75
  19.0060         93
  19.0432         96
  19.0803         82
  19.1175         96
  19.1546         71
  19.1918         87
  19.2289         72
  19.2661         89
  19.3032         79
  19.3404         84
  19.3775         96
  19.4147         71
  19.4518         83
  19.4890         81
  19.5261         86
  19.5633         77
  19.6004         93
  19.6376         77
  19.6747         96
  19.7119         95
  19.7490         98
  19.7862         95
  19.8233         97
  19.8605        116
  19.8976         95
  19.9348         97
  19.9719         87
  20.0091         92
  20.0462         87
  20.0834         89
  20.1205         77
  20.1577         57
  20.1948         81
  20.2320        101
  20.2691         87
  20.3063         94
  20.3434        108
  20.3806         91
  20.4177        101
  20.4549         90
  20.4921         84
  20.5292         87
  20.5664         99
  20.6035        100
  20.6407         88
  20.6778        116
  20.7150         95
  20.7521         86
  20.7893         94
  20.8264         84
  20.8636         83
  20.9007         89
  20.9379         94
  20.9750         86
  21.0122         89
  21.0493         91
  21.0865        115
  21.1236        110
  21.1608        111
  21.1979        145
  21.2351        170
  21.2722        151
  21.3094        143
  21.3465        245
  21.3837        226
  21.4208        167
  21.4580        106
  21.4951        119
  21.5323        103
  21.5694         84
  21.6066         91
  21.6437         93
  21.6809         92
  21.7180         87
  21.7552         83
  21.7923        105
  21.8295         84
  21.8666         87
  21.9038         85
  21.9409        116
  21.9781         88
  22.0152        104
  22.0524        104
  22.0896        103
  22.1267         91
  22.1639         98
  22.2010        108
  22.2382        103
  22.2753         94
  22.3125         90
  22.3496         90
  22.3868        106
  22.4239         90
  22.4611         80
  22.4982         92
  22.5354         98
  22.5725        108
  22.6097         83
  22.6468         85
  22.6840        113
  22.7211         99
  22.7583        114
  22.7954        110
  22.8326        101
  22.8697        113
  22.9069         90
  22.9440         98
  22.9812         91
  23.0183         96
  23.0555        102
  23.0926         93
  23.1298        114
  23.1669         96
  23.2041        108
  23.2412         94
  23.2784        100
  23.3155        107
  23.3527         93
  23.3898         94
  23.4270        102
  23.4641         88
  23.5013        108
  23.5384        103
  23.5756         96
  23.6128         94
  23.6499         98
  23.6871        111
  23.7242        101
  23.7614         97
  23.7985        109
  23.8357         96
  23.8728         99
  23.9100         84
  23.9471        105
  23.9843        118
  24.0214        111
  24.0586        109
  24.0957         99
  24.1329        100
  24.1700        111
  24.2072         95
  24.2443        137
  24.2815        111
  24.3186        113
  24.3558        117
  24.3929         97
  24.4301        107
  24.4672         97
  24.5044         93
  24.5415         96
  24.5787        107
  24.6158         97
  24.6530         97
  24.6901        109
  24.7273        100
  24.7644         93
  24.8016        101
  24.8387        106
  24.8759        101
  24.9130         96
  24.9502        101
  24.9873         92
  25.0245         99
  25.0616         88
  25.0988        102
  25.1360         94
  25.1731         87
  25.2103         90
  25.2474         94
  25.2846         94
  25.3217        100
  25.3589         95
  25.3960        100
  25.4332        105
  25.4703        112
  25.5075        107
  25.5446        119
  25.5818        100
  25.6189        104
  25.6561         94
  25.6932        103
  25.7304         89
  25.7675         97
  25.8047        102
  25.8418        112
  25.8790         90
  25.9161        108
  25.9533         91
  25.9904        105
  26.0276         82
  26.0647         90
  26.1019         91
  26.1390         77
  26.1762        112
  26.2133         79
  26.2505         87
  26.2876         93
  26.3248         96
  26.3619         82
  26.3991         86
  26.4362        101
  26.4734        101
  26.5105         96
  26.5477         97
  26.5848        103
  26.6220         88
  26.6591         95
  26.6963        113
  26.7335         89
  26.7706         92
  26.8078         94
  26.8449         85
  26.8821        103
  26.9192        100
  26.9564        101
  26.9935         94
  27.0307         91
  27.0678         86
  27.1050         80
  27.1421         84
  27.1793        107
  27.2164        112
  27.2536        119
  27.2907         95
  27.3279         90
  27.3650         92
  27.4022         99
  27.4393         87
  27.4765         96
  27.5136         82
  27.5508         85
  27.5879         85
  27.6251         81
  27.6622         95
  27.6994         83
  27.7365         92
  27.7737         86
  27.8108         96
  27.8480         68
  27.8851         95
  27.9223         90
  27.9594         87
  27.9966         86
  28.0337         68
  28.0709         72
  28.1080        112
  28.1452         80
  28.1823        102
  28.2195         77
  28.2567         76
  28.2938         75
  28.3310         89
  28.3681         67
  28.4053         76
  28.4424         88
  28.4796        101
  28.5167         73
  28.5539         75
  28.5910         80
  28.6282         78
  28.6653         71
  28.7025         83
  28.7396         77
  28.7768         83
  28.8139         88
  28.8511         72
  28.8882         81
  28.9254         87
  28.9625         88
  28.9997         69
  29.0368         66
  29.0740         83
  29.1111         93
  29.1483         80
  29.1854         84
  29.2226         74
  29.2597         87
  29.2969         78
  29.3340         72
  29.3712         93
  29.4083         79
  29.4455         56
  29.4826         71
  29.5198         83
  29.5569         87
  29.5941         80
  29.6312         79
  29.6684         68
  29.7055         84
  29.7427         73
  29.7799         74
  29.8170         67
  29.8542         81
  29.8913         77
  29.9285         74
  29.9656         73
  30.0028         86
  30.0399         72
  30.0771         68
  30.1142         75
  30.1514         70
  30.1885         78
  30.2257         84
  30.2628         91
  30.3000         93
  30.3371        103
  30.3743        141
  30.4114        149
  30.4486        110
  30.4857        111
  30.5229         86
  30.5600         76
  30.5972         92
  30.6343         78
  30.6715         83
  30.7086         65
  30.7458         87
  30.7829         68
  30.8201         59
  30.8572         62
  30.8944         62
  30.9315         82
  30.9687         84
  31.0058         87
  31.0430         60
  31.0801         74
  31.1173         71
  31.1544         64
  31.1916         67
  31.2287         69
  31.2659         69
  31.3030         66
  31.3402         81
  31.3774         78
  31.4145         77
  31.4517         78
  31.4888         63
  31.5260         67
  31.5631         61
  31.6003         82
  31.6374         72
  31.6746         81
  31.7117         67
  31.7489         56
  31.7860         64
  31.8232         56
  31.8603         67
  31.8975         69
  31.9346         70
  31.9718         67
  32.0089         45
  32.0461         71
  32.0832         62
  32.1204         55
  32.1575         54
  32.1947         67
  32.2318         71
  32.2690         62
  32.3061         72
  32.3433         72
  32.3804         68
  32.4176         59
  32.4547         82
  32.4919         80
  32.5290         71
  32.5662         70
  32.6033         68
  32.6405         74
  32.6776         58
  32.7148         56
  32.7519         61
  32.7891         58
  32.8262         62
  32.8634         64
  32.9006         61
  32.9377         63
  32.9749         70
  33.0120         50
  33.0492         61
  33.0863         68
  33.1235         63
  33.1606         56
  33.1978         58
  33.2349         64
  33.2721         67
  33.3092         60
  33.3464         44
  33.3835         58
  33.4207         55
  33.4578         56
  33.4950         57
  33.5321         61
  33.5693         67
  33.6064         62
  33.6436         50
  33.6807         67
  33.7179         65
  33.7550         63
  33.7922         50
  33.8293         49
  33.8665         61
  33.9036         45
  33.9408         47
  33.9779         61
  34.0151         66
  34.0522         50
  34.0894         49
  34.1265         48
  34.1637         60
  34.2008         43
  34.2380         58
  34.2751         58
  34.3123         66
  34.3494         47
  34.3866         56
  34.4238         55
  34.4609         51
  34.4981         54
  34.5352         59
  34.5724         64
  34.6095         69
  34.6467         65
  34.6838         59
  34.7210         69
  34.7581         84
  34.7953         69
  34.8324         62
  34.8696         73
  34.9067         56
  34.9439         49
  34.9810         56
  35.0182         47
  35.0553         76
  35.0925         61
  35.1296         51
  35.1668         51
  35.2039         50
  35.2411         49
  35.2782         50
  35.3154         49
  35.3525         50
  35.3897         44
  35.4268         51
  35.4640         62
  35.5011         44
  35.5383         49
  35.5754         48
  35.6126         49
  35.6497         48
  35.6869         40
  35.7240         49
  35.7612         49
  35.7983         42
  35.8355         49
  35.8726         44
  35.9098         48
  35.9469         42
  35.9841         52
  36.0213         57
  36.0584         50
  36.0956         43
  36.1327         42
  36.1699         58
  36.2070         51
  36.2442         53
  36.2813         54
  36.3185         53
  36.3556         50
  36.3928         40
  36.4299         46
  36.4671         43
  36.5042         52
  36.5414         35
  36.5785         54
  36.6157         44
  36.6528         49
  36.6900         27
  36.7271         45
  36.7643         51
  36.8014         42
  36.8386         44
  36.8757         47
  36.9129         59
  36.9500         54
  36.9872         44
  37.0243         41
  37.0615         45
  37.0986         37
  37.1358         56
  37.1729         46
  37.2101         46
  37.2472         46
  37.2844         56
  37.3215         49
  37.3587         54
  37.3958         40
  37.4330         78
  37.4701         65
  37.5073         44
  37.5445         61
  37.5816         52
  37.6188         57
  37.6559         44
  37.6931         51
  37.7302         50
  37.7674         44
  37.8045         33
  37.8417         38
  37.8788         49
  37.9160         35
  37.9531         38
  37.9903         46
  38.0274         49
  38.0646         54
  38.1017         34
  38.1389         32
  38.1760         57
  38.2132         43
  38.2503         39
  38.2875         39
  38.3246         42
  38.3618         40
  38.3989         46
  38.4361         42
  38.4732         57
  38.5104         37
  38.5475         28
  38.5847         39
  38.6218         42
  38.6590         39
  38.6961         48
  38.7333         47
  38.7704         44
  38.8076         57
  38.8447         47
  38.8819         38
  38.9190         54
  38.9562         45
  38.9933         57
  39.0305         38
  39.0677         41
  39.1048         40
  39.1420         44
  39.1791         37
  39.2163         35
  39.2534         41
  39.2906         45
  39.3277         48
  39.3649         35
  39.4020         35
  39.4392         39
  39.4763         38
  39.5135         33
  39.5506         45
  39.5878         48
  39.6249         45
  39.6621         35
  39.6992         40
  39.7364         38
  39.7735         36
  39.8107         40
  39.8478         38
  39.8850         38
  39.9221         35
  39.9593         35
  39.9964         33
  40.0336         39
  40.0707         46
  40.1079         38
  40.1450         36
  40.1822         44
  40.2193         37
  40.2565         38
  40.2936         33
  40.3308         33
  40.3679         38
  40.4051         39
  40.4422         40
  40.4794         37
  40.5165         31
  40.5537         35
  40.5908         35
  40.6280         36
  40.6652         38
  40.7023         39
  40.7395         31
  40.7766         35
  40.8138         28
  40.8509         30
  40.8881         29
  40.9252         52
  40.9624         35
  40.9995         35
  41.0367         48
  41.0738         39
  41.1110         33
  41.1481         35
  41.1853         30
  41.2224         28
  41.2596         42
  41.2967         47
  41.3339         38
  41.3710         26
  41.4082         42
  41.4453         44
  41.4825         42
  41.5196         37
  41.5568         34
  41.5939         35
  41.6311         40
  41.6682         45
  41.7054         49
  41.7425         42
  41.7797         35
  41.8168         34
  41.8540         41
  41.8911         35
  41.9283         32
  41.9654         45
  42.0026         39
  42.0397         35
  42.0769         32
  42.1140         40
  42.1512         36
  42.1884         30
  42.2255         44
  42.2627         27
  42.2998         40
  42.3370         46
  42.3741         29
  42.4113         31
  42.4484         30
  42.4856         38
  42.5227         37
  42.5599         40
  42.5970         30
  42.6342         37
  42.6713         36
  42.7085         34
  42.7456         37
  42.7828         39
  42.8199         35
  42.8571         52
  42.8942         38
  42.9314         32
  42.9685         37
  43.0057         40
  43.0428         36
  43.0800         42
  43.1171         41
  43.1543         37
  43.1914         41
  43.2286         52
  43.2657         40
  43.3029         40
  43.3400         45
  43.3772         37
  43.4143         38
  43.4515         37
  43.4886         55
  43.5258         69
  43.5629         43
  43.6001         52
  43.6372         47
  43.6744         48
  43.7116         47
  43.7487         38
  43.7859         41
  43.8230         29
  43.8602         44
  43.8973         38
  43.9345         38
  43.9716         29
  44.0088         44
  44.0459         36
  44.0831         38
  44.1202         27
  44.1574         27
  44.1945         37
  44.2317         37
  44.2688         25
  44.3060         35
  44.3431         38
  44.3803         33
  44.4174         29
  44.4546         31
  44.4917         40
  44.5289         32
  44.5660         41
  44.6032         31
  44.6403         35
  44.6775         36
  44.7146         41
  44.7518         37
  44.7889         35
  44.8261         32
  44.8632         43
  44.9004         25
  44.9375         29
  44.9747         34
  45.0118         43
  45.0490         45
  45.0861         36
  45.1233         22
  45.1604         34
  45.1976         27
  45.2347         35
  45.2719         35
  45.3091         41
  45.3462         29
  45.3834         35
  45.4205         42
  45.4577         29
  45.4948         25
  45.5320         33
  45.5691         23
  45.6063         34
  45.6434         23
  45.6806         33
  45.7177         23
  45.7549         39
  45.7920         28
  45.8292         28
  45.8663         39
  45.9035         32
  45.9406         27
  45.9778         30
  46.0149         27
  46.0521         27
  46.0892         29
  46.1264         28
  46.1635         31
  46.2007         37
  46.2378         28
  46.2750         34
  46.3121         35
  46.3493         34
  46.3864         39
  46.4236         21
  46.4607         41
  46.4979         36
  46.5350         32
  46.5722         39
  46.6093         30
  46.6465         40
  46.6836         29
  46.7208         29
  46.7579         27
  46.7951         32
  46.8323         29
  46.8694         27
  46.9066         42
  46.9437         27
  46.9809         29
  47.0180         22
  47.0552         31
  47.0923         41
  47.1295         38
  47.1666         38
  47.2038         25
  47.2409         35
  47.2781         33
  47.3152         31
  47.3524         32
  47.3895         33
  47.4267         31
  47.4638         25
  47.5010         32
  47.5381         29
  47.5753         41
  47.6124         34
  47.6496         30
  47.6867         34
  47.7239         38
  47.7610         25
  47.7982         35
  47.8353         25
  47.8725         33
  47.9096         32
  47.9468         22
  47.9839         25
  48.0211         37
  48.0582         32
  48.0954         43
  48.1325         32
  48.1697         38
  48.2068         31
  48.2440         24
  48.2811         31
  48.3183         29
  48.3555         31
  48.3926         29
  48.4298         34
  48.4669         29
  48.5041         42
  48.5412         25
  48.5784         36
  48.6155         30
  48.6527         30
  48.6898         33
  48.7270         36
  48.7641         28
  48.8013         35
  48.8384         38
  48.8756         28
  48.9127         52
  48.9499         52
  48.9870         43
  49.0242         36
  49.0613         42
  49.0985         44
  49.1356         39
  49.1728         25
  49.2099         23
  49.2471         27
  49.2842         27
  49.3214         27
  49.3585         42
  49.3957         25
  49.4328         39
  49.4700         34
  49.5071         31
  49.5443         29
  49.5814         37
  49.6186         30
  49.6557         34
  49.6929         39
  49.7300         32
  49.7672         38
  49.8043         46
  49.8415         32
  49.8786         40
  49.9158         37
  49.9530         33
  49.9901         28
  50.0273         46
  50.0644         32
  50.1016         38
  50.1387         31
  50.1759         25
  50.2130         31
  50.2502         37
  50.2873         30
  50.3245         39
  50.3616         36
  50.3988         31
  50.4359         27
  50.4731         32
  50.5102         31
  50.5474         23
  50.5845         28
  50.6217         39
  50.6588         27
  50.6960         26
  50.7331         37
  50.7703         25
  50.8074         27
  50.8446         34
  50.8817         38
  50.9189         24
  50.9560         31
  50.9932         35
  51.0303         29
  51.0675         39
  51.1046         23
  51.1418         32
  51.1789         35
  51.2161         35
  51.2532         27
  51.2904         32
  51.3275         38
  51.3647         24
  51.4018         31
  51.4390         42
  51.4762         25
  51.5133         30
  51.5505         39
  51.5876         25
  51.6248         41
  51.6619         37
  51.6991         42
  51.7362         37
  51.7734         31
  51.8105         30
  51.8477         34
  51.8848         26
  51.9220         38
  51.9591         24
  51.9963         33
  52.0334         27
  52.0706         34
  52.1077         33
  52.1449         31
  52.1820         36
  52.2192         35
  52.2563         33
  52.2935         26
  52.3306         28
  52.3678         28
  52.4049         25
  52.4421         25
  52.4792         33
  52.5164         38
  52.5535         28
  52.5907         35
  52.6278         25
  52.6650         27
  52.7021         30
  52.7393         19
  52.7764         44
  52.8136         27
  52.8507         29
  52.8879         17
  52.9250         30
  52.9622         25
  52.9994         31
  53.0365         32
  53.0737         36
  53.1108         32
  53.1480         29
  53.1851         34
  53.2223         31
  53.2594         24
  53.2966         28
  53.3337         33
  53.3709         30
  53.4080         25
  53.4452         25
  53.4823         29
  53.5195         39
  53.5566         25
  53.5938         19
  53.6309         33
  53.6681         31
  53.7052         31
  53.7424         33
  53.7795         28
  53.8167         29
  53.8538         34
  53.8910         27
  53.9281         27
  53.9653         46
  54.0024         37
  54.0396         36
  54.0767         29
  54.1139         33
  54.1510         34
  54.1882         35
  54.2253         46
  54.2625         27
  54.2996         27
  54.3368         26
  54.3739         29
  54.4111         23
  54.4482         27
  54.4854         29
  54.5225         24
  54.5597         24
  54.5969         30
  54.6340         27
  54.6712         23
  54.7083         29
  54.7455         22
  54.7826         33
  54.8198         31
  54.8569         17
  54.8941         32
  54.9312         31
  54.9684         21
  55.0055         33
  55.0427         39
  55.0798         22
  55.1170         24
  55.1541         21
  55.1913         18
  55.2284         32
  55.2656         28
  55.3027         27
  55.3399         31
  55.3770         35
  55.4142         20
  55.4513         23
  55.4885         29
  55.5256         29
  55.5628         33
  55.5999         30
  55.6371         27
  55.6742         19
  55.7114         32
  55.7485         34
  55.7857         30
  55.8228         22
  55.8600         29
  55.8971         39
  55.9343         30
  55.9714         25
  56.0086         34
  56.0457         27
  56.0829         33
  56.1201         29
  56.1572         30
  56.1944         18
  56.2315         31
  56.2687         35
  56.3058         23
  56.3430         22
  56.3801         26
  56.4173         23
  56.4544         29
  56.4916         20
  56.5287         28
  56.5659         35
  56.6030         29
  56.6402         34
  56.6773         19
  56.7145         20
  56.7516         19
  56.7888         25
  56.8259         23
  56.8631         25
  56.9002         24
  56.9374         27
  56.9745         26
  57.0117         24
  57.0488         27
  57.0860         25
  57.1231         31
  57.1603         29
  57.1974         26
  57.2346         23
  57.2717         28
  57.3089         40
  57.3460         22
  57.3832         30
  57.4203         28
  57.4575         23
  57.4946         25
  57.5318         21
  57.5689         26
  57.6061         23
  57.6433         20
  57.6804         24
  57.7176         33
  57.7547         34
  57.7919         23
  57.8290         31
  57.8662         24
  57.9033         17
  57.9405         29
  57.9776         21
  58.0148         33
  58.0519         33
  58.0891         25
  58.1262         30
  58.1634         29
  58.2005         29
  58.2377         26
  58.2748         20
  58.3120         27
  58.3491         22
  58.3863         31
  58.4234         23
  58.4606         35
  58.4977         31
  58.5349         25
  58.5720         22
  58.6092         31
  58.6463         13
  58.6835         26
  58.7206         30
  58.7578         20
  58.7949         20
  58.8321         40
  58.8692         35
  58.9064         23
  58.9435         24
  58.9807         29
  59.0178         22
  59.0550         23
  59.0921         33
  59.1293         28
  59.1664         24
  59.2036         32
  59.2408         25
  59.2779         30
  59.3151         29
  59.3522         30
  59.3894         33
  59.4265         22
  59.4637         33
  59.5008         31
  59.5380         32
  59.5751         20
  59.6123         22
  59.6494         27
  59.6866         20
  59.7237         15
  59.7609         29
  59.7980         26
  59.8352         27
  59.8723         27
  59.9095         27
  59.9466         22
  59.9838         24
  60.0024         29