File: notebooks/data/xrd_data/ML_20220718_58_SJD_4_LaB6-4min.uxd
; (content of file Y:\Sam\Apurva-07-20-2022\puck4\ML_20220718_58_SJD_4_LaB6-4min.raw)
_FILEVERSION = 3
_SAMPLE = ML_20220718_58_SJD_4_LaB6-4min
_+SAMPLE =
_SITE = USA
_USER = Administrator
_GONIOMETER_CODE = 20
; Goniometer : D8 theta/2theta, stage : Unknown
_ATTACHMENTS_CODE = 0
_GONIOMETER_RADIUS = 200.5
_FIXED_DIVSLIT = 0.6
_FIXED_SAMPLESLIT = 0
_SOLLER_SLITS = 2
_FIXED_DETSLIT = 9.55
_MONOCHROMATOR = 0
; Incident beam monochromator : None
_SOLLER_SLITS_2 = N
_THIN_FILM = N
_BETA_FILTER = Y
_FIXED_ANTISLIT = 5.89
_ANALYZER_CODE = 0
; Received beam analyzer : None
_DATEMEASURED = "26-Jul-2022 14:40:55"
_WL_UNIT = A
_WL1 = 1.5406
_WL2 = 1.54439
_WL3 = 1.39222
_WLRATIO = 0.5
_ANODE = Cu
_V4_INF_CREATOR = XRDWizard
_V4_INF_CREATOR_VERSION = V2.9.0.22
_V4_INF_WIZARD_VERSION = V2.9.0.22
_V4_INF_WIZARD_ADDINS = V2.9.0.22
_V4_INF_WIZARD_DOCTYPE = XRD
_V4_INF_OSUSER = McQueenLab
_V4_INF_USER = Administrator
_V4_INF_SITE = USA
_V4_INF_SAMPLEID = ML_20220718_58_SJD_4_LaB6-4min

; Data for range 1
_DRIVE = COUPLED
_STEPTIME = 11.28
_STEPSIZE = 0.0185756
_STEPMODE = C
_START = 5
_THETA = 2.5
_2THETA = 5
_KHI = 0
_PHI = 0
_X = 0
_Y = 0
_Z = 0
_DETECTOR = 5
; Detector type : Unknown
_DETECTORSLIT = unkn
_AUX1 = 0
_AUX2 = 0
_AUX3 = 0
_TIMESTARTED = 15
_TEMP_RATE = -1
_TEMP_DELAY = -1
_KV = 40
_MA = 40
_RANGE_WL = 1.5406
_3DPLANE = 0
_V4_ADDITIONALDETECTOR = 257
_V4_PSD2THETA = 3.3891
_V4_PSDCHANNEL1 = 0
_V4_PSDAPERTURE = 12.68
_V4_PSDTYPE = 5
_V4_PSDFIXED = 0
_V4_COUNTERS_MASK = 4096
_V4_DRIVES_MASK = 0
_V4_ENCODERS_MASK = 0
_2THETACOUNTS = 1
; 2THETA  PSD
   5.0000        283
   5.0372        279
   5.0743        277
   5.1115        269
   5.1486        254
   5.1858        241
   5.2229        245
   5.2601        267
   5.2972        236
   5.3344        273
   5.3715        241
   5.4087        214
   5.4458        219
   5.4830        209
   5.5201        234
   5.5573        239
   5.5944        230
   5.6316        241
   5.6687        228
   5.7059        218
   5.7430        214
   5.7802        217
   5.8173        208
   5.8545        189
   5.8916        203
   5.9288        201
   5.9659        166
   6.0031        222
   6.0402        206
   6.0774        177
   6.1145        190
   6.1517        174
   6.1888        207
   6.2260        206
   6.2631        206
   6.3003        176
   6.3374        191
   6.3746        184
   6.4117        175
   6.4489        171
   6.4860        211
   6.5232        177
   6.5604        166
   6.5975        191
   6.6347        183
   6.6718        150
   6.7090        197
   6.7461        212
   6.7833        172
   6.8204        169
   6.8576        184
   6.8947        147
   6.9319        138
   6.9690        153
   7.0062        180
   7.0433        157
   7.0805        176
   7.1176        166
   7.1548        145
   7.1919        143
   7.2291        145
   7.2662        146
   7.3034        158
   7.3405        147
   7.3777        186
   7.4148        185
   7.4520        168
   7.4891        158
   7.5263        184
   7.5634        165
   7.6006        172
   7.6377        188
   7.6749        163
   7.7120        193
   7.7492        168
   7.7863        177
   7.8235        165
   7.8606        187
   7.8978        168
   7.9349        168
   7.9721        178
   8.0092        194
   8.0464        166
   8.0835        186
   8.1207        192
   8.1579        206
   8.1950        204
   8.2322        179
   8.2693        176
   8.3065        218
   8.3436        180
   8.3808        163
   8.4179        187
   8.4551        206
   8.4922        191
   8.5294        214
   8.5665        206
   8.6037        169
   8.6408        191
   8.6780        227
   8.7151        176
   8.7523        228
   8.7894        208
   8.8266        233
   8.8637        217
   8.9009        211
   8.9380        227
   8.9752        226
   9.0123        203
   9.0495        226
   9.0866        224
   9.1238        216
   9.1609        205
   9.1981        191
   9.2352        219
   9.2724        250
   9.3095        201
   9.3467        218
   9.3838        223
   9.4210        209
   9.4581        213
   9.4953        199
   9.5324        242
   9.5696        242
   9.6067        246
   9.6439        209
   9.6811        208
   9.7182        210
   9.7554        220
   9.7925        224
   9.8297        251
   9.8668        219
   9.9040        230
   9.9411        233
   9.9783        220
  10.0154        235
  10.0526        244
  10.0897        230
  10.1269        246
  10.1640        233
  10.2012        268
  10.2383        266
  10.2755        217
  10.3126        255
  10.3498        241
  10.3869        226
  10.4241        243
  10.4612        273
  10.4984        230
  10.5355        261
  10.5727        234
  10.6098        266
  10.6470        243
  10.6841        238
  10.7213        223
  10.7584        253
  10.7956        243
  10.8327        237
  10.8699        236
  10.9070        252
  10.9442        233
  10.9813        243
  11.0185        243
  11.0556        237
  11.0928        221
  11.1299        240
  11.1671        254
  11.2043        242
  11.2414        230
  11.2786        215
  11.3157        232
  11.3529        227
  11.3900        240
  11.4272        242
  11.4643        259
  11.5015        281
  11.5386        243
  11.5758        205
  11.6129        234
  11.6501        242
  11.6872        261
  11.7244        206
  11.7615        258
  11.7987        212
  11.8358        226
  11.8730        252
  11.9101        203
  11.9473        232
  11.9844        257
  12.0216        243
  12.0587        254
  12.0959        229
  12.1330        241
  12.1702        209
  12.2073        208
  12.2445        247
  12.2816        196
  12.3188        237
  12.3559        249
  12.3931        221
  12.4302        200
  12.4674        206
  12.5045        243
  12.5417        245
  12.5788        208
  12.6160        221
  12.6531        217
  12.6903        205
  12.7274        214
  12.7646        204
  12.8018        235
  12.8389        199
  12.8761        215
  12.9132        198
  12.9504        207
  12.9875        225
  13.0247        193
  13.0618        240
  13.0990        192
  13.1361        196
  13.1733        212
  13.2104        194
  13.2476        192
  13.2847        195
  13.3219        193
  13.3590        228
  13.3962        176
  13.4333        183
  13.4705        202
  13.5076        177
  13.5448        201
  13.5819        202
  13.6191        187
  13.6562        184
  13.6934        186
  13.7305        188
  13.7677        197
  13.8048        178
  13.8420        198
  13.8791        199
  13.9163        186
  13.9534        200
  13.9906        174
  14.0277        201
  14.0649        168
  14.1020        191
  14.1392        181
  14.1763        184
  14.2135        197
  14.2506        209
  14.2878        173
  14.3250        188
  14.3621        176
  14.3993        165
  14.4364        163
  14.4736        157
  14.5107        163
  14.5479        164
  14.5850        162
  14.6222        179
  14.6593        148
  14.6965        172
  14.7336        202
  14.7708        178
  14.8079        171
  14.8451        157
  14.8822        148
  14.9194        176
  14.9565        166
  14.9937        167
  15.0308        195
  15.0680        154
  15.1051        161
  15.1423        155
  15.1794        190
  15.2166        162
  15.2537        146
  15.2909        160
  15.3280        183
  15.3652        166
  15.4023        164
  15.4395        155
  15.4766        156
  15.5138        178
  15.5509        156
  15.5881        141
  15.6252        173
  15.6624        183
  15.6995        134
  15.7367        172
  15.7738        128
  15.8110        179
  15.8482        149
  15.8853        177
  15.9225        141
  15.9596        130
  15.9968        161
  16.0339        184
  16.0711        159
  16.1082        181
  16.1454        160
  16.1825        180
  16.2197        161
  16.2568        152
  16.2940        172
  16.3311        164
  16.3683        163
  16.4054        168
  16.4426        147
  16.4797        149
  16.5169        178
  16.5540        148
  16.5912        163
  16.6283        162
  16.6655        152
  16.7026        169
  16.7398        158
  16.7769        161
  16.8141        167
  16.8512        153
  16.8884        160
  16.9255        160
  16.9627        166
  16.9998        149
  17.0370        162
  17.0741        154
  17.1113        159
  17.1484        167
  17.1856        170
  17.2227        155
  17.2599        162
  17.2970        161
  17.3342        176
  17.3713        173
  17.4085        178
  17.4457        167
  17.4828        170
  17.5200        140
  17.5571        157
  17.5943        184
  17.6314        151
  17.6686        174
  17.7057        186
  17.7429        178
  17.7800        161
  17.8172        165
  17.8543        169
  17.8915        184
  17.9286        155
  17.9658        149
  18.0029        162
  18.0401        159
  18.0772        179
  18.1144        179
  18.1515        174
  18.1887        183
  18.2258        159
  18.2630        155
  18.3001        153
  18.3373        164
  18.3744        169
  18.4116        168
  18.4487        180
  18.4859        156
  18.5230        153
  18.5602        176
  18.5973        183
  18.6345        149
  18.6716        181
  18.7088        160
  18.7459        142
  18.7831        158
  18.8202        150
  18.8574        179
  18.8945        176
  18.9317        169
  18.9689        202
  19.0060        160
  19.0432        191
  19.0803        173
  19.1175        164
  19.1546        202
  19.1918        177
  19.2289        151
  19.2661        161
  19.3032        169
  19.3404        165
  19.3775        155
  19.4147        174
  19.4518        177
  19.4890        144
  19.5261        180
  19.5633        158
  19.6004        167
  19.6376        154
  19.6747        144
  19.7119        195
  19.7490        185
  19.7862        194
  19.8233        195
  19.8605        166
  19.8976        201
  19.9348        162
  19.9719        186
  20.0091        183
  20.0462        195
  20.0834        192
  20.1205        158
  20.1577        192
  20.1948        184
  20.2320        205
  20.2691        191
  20.3063        177
  20.3434        189
  20.3806        183
  20.4177        192
  20.4549        179
  20.4921        204
  20.5292        182
  20.5664        190
  20.6035        170
  20.6407        199
  20.6778        175
  20.7150        172
  20.7521        183
  20.7893        175
  20.8264        183
  20.8636        198
  20.9007        202
  20.9379        216
  20.9750        223
  21.0122        206
  21.0493        192
  21.0865        216
  21.1236        205
  21.1608        231
  21.1979        298
  21.2351        311
  21.2722        296
  21.3094        342
  21.3465        517
  21.3837        441
  21.4208        363
  21.4580        232
  21.4951        217
  21.5323        177
  21.5694        227
  21.6066        201
  21.6437        193
  21.6809        197
  21.7180        199
  21.7552        178
  21.7923        180
  21.8295        214
  21.8666        168
  21.9038        190
  21.9409        194
  21.9781        175
  22.0152        222
  22.0524        187
  22.0896        215
  22.1267        202
  22.1639        212
  22.2010        210
  22.2382        199
  22.2753        183
  22.3125        196
  22.3496        215
  22.3868        184
  22.4239        200
  22.4611        213
  22.4982        191
  22.5354        196
  22.5725        179
  22.6097        194
  22.6468        193
  22.6840        187
  22.7211        183
  22.7583        199
  22.7954        201
  22.8326        180
  22.8697        193
  22.9069        198
  22.9440        205
  22.9812        184
  23.0183        209
  23.0555        188
  23.0926        214
  23.1298        201
  23.1669        194
  23.2041        215
  23.2412        212
  23.2784        206
  23.3155        207
  23.3527        181
  23.3898        215
  23.4270        209
  23.4641        217
  23.5013        200
  23.5384        220
  23.5756        216
  23.6128        201
  23.6499        235
  23.6871        187
  23.7242        207
  23.7614        217
  23.7985        178
  23.8357        181
  23.8728        182
  23.9100        204
  23.9471        199
  23.9843        195
  24.0214        217
  24.0586        203
  24.0957        195
  24.1329        194
  24.1700        236
  24.2072        254
  24.2443        231
  24.2815        200
  24.3186        218
  24.3558        218
  24.3929        217
  24.4301        213
  24.4672        189
  24.5044        209
  24.5415        187
  24.5787        210
  24.6158        221
  24.6530        225
  24.6901        175
  24.7273        221
  24.7644        173
  24.8016        191
  24.8387        230
  24.8759        174
  24.9130        214
  24.9502        205
  24.9873        167
  25.0245        193
  25.0616        191
  25.0988        215
  25.1360        221
  25.1731        207
  25.2103        205
  25.2474        178
  25.2846        201
  25.3217        204
  25.3589        181
  25.3960        185
  25.4332        173
  25.4703        170
  25.5075        180
  25.5446        195
  25.5818        195
  25.6189        180
  25.6561        191
  25.6932        180
  25.7304        190
  25.7675        195
  25.8047        170
  25.8418        188
  25.8790        191
  25.9161        193
  25.9533        203
  25.9904        196
  26.0276        197
  26.0647        177
  26.1019        192
  26.1390        183
  26.1762        174
  26.2133        184
  26.2505        185
  26.2876        213
  26.3248        181
  26.3619        168
  26.3991        231
  26.4362        170
  26.4734        164
  26.5105        190
  26.5477        169
  26.5848        188
  26.6220        175
  26.6591        169
  26.6963        172
  26.7335        189
  26.7706        203
  26.8078        199
  26.8449        195
  26.8821        193
  26.9192        214
  26.9564        198
  26.9935        189
  27.0307        169
  27.0678        175
  27.1050        195
  27.1421        222
  27.1793        235
  27.2164        245
  27.2536        237
  27.2907        231
  27.3279        201
  27.3650        202
  27.4022        194
  27.4393        206
  27.4765        195
  27.5136        200
  27.5508        177
  27.5879        194
  27.6251        180
  27.6622        168
  27.6994        183
  27.7365        177
  27.7737        184
  27.8108        153
  27.8480        182
  27.8851        174
  27.9223        172
  27.9594        186
  27.9966        178
  28.0337        166
  28.0709        200
  28.1080        168
  28.1452        157
  28.1823        183
  28.2195        174
  28.2567        173
  28.2938        192
  28.3310        159
  28.3681        174
  28.4053        186
  28.4424        172
  28.4796        163
  28.5167        186
  28.5539        154
  28.5910        159
  28.6282        163
  28.6653        170
  28.7025        157
  28.7396        178
  28.7768        154
  28.8139        181
  28.8511        174
  28.8882        163
  28.9254        137
  28.9625        160
  28.9997        170
  29.0368        163
  29.0740        153
  29.1111        168
  29.1483        163
  29.1854        176
  29.2226        181
  29.2597        175
  29.2969        178
  29.3340        177
  29.3712        144
  29.4083        160
  29.4455        162
  29.4826        159
  29.5198        153
  29.5569        167
  29.5941        169
  29.6312        173
  29.6684        158
  29.7055        170
  29.7427        190
  29.7799        157
  29.8170        144
  29.8542        137
  29.8913        145
  29.9285        130
  29.9656        134
  30.0028        161
  30.0399        154
  30.0771        163
  30.1142        144
  30.1514        149
  30.1885        172
  30.2257        163
  30.2628        183
  30.3000        196
  30.3371        183
  30.3743        331
  30.4114        287
  30.4486        275
  30.4857        214
  30.5229        158
  30.5600        140
  30.5972        165
  30.6343        155
  30.6715        145
  30.7086        162
  30.7458        152
  30.7829        155
  30.8201        131
  30.8572        142
  30.8944        141
  30.9315        146
  30.9687        137
  31.0058        136
  31.0430        157
  31.0801        135
  31.1173        147
  31.1544        124
  31.1916        155
  31.2287        139
  31.2659        145
  31.3030        145
  31.3402        133
  31.3774        141
  31.4145        156
  31.4517        131
  31.4888        131
  31.5260        144
  31.5631        145
  31.6003        145
  31.6374        132
  31.6746        116
  31.7117        140
  31.7489        150
  31.7860        119
  31.8232        136
  31.8603        148
  31.8975        111
  31.9346        124
  31.9718        130
  32.0089        134
  32.0461        135
  32.0832        134
  32.1204        132
  32.1575        146
  32.1947        133
  32.2318        137
  32.2690        144
  32.3061        138
  32.3433        136
  32.3804        121
  32.4176        136
  32.4547        147
  32.4919        143
  32.5290        159
  32.5662        129
  32.6033        131
  32.6405        131
  32.6776        124
  32.7148        118
  32.7519        134
  32.7891        124
  32.8262        144
  32.8634        129
  32.9006        125
  32.9377        118
  32.9749        131
  33.0120        140
  33.0492        151
  33.0863        141
  33.1235        127
  33.1606        108
  33.1978        130
  33.2349        118
  33.2721        119
  33.3092        130
  33.3464        133
  33.3835        126
  33.4207        118
  33.4578        124
  33.4950        124
  33.5321        138
  33.5693        116
  33.6064         85
  33.6436        117
  33.6807        135
  33.7179        128
  33.7550        105
  33.7922        120
  33.8293        110
  33.8665        113
  33.9036        118
  33.9408        107
  33.9779        104
  34.0151        122
  34.0522        130
  34.0894        111
  34.1265        100
  34.1637        105
  34.2008        118
  34.2380         94
  34.2751        105
  34.3123        113
  34.3494        105
  34.3866        116
  34.4238        120
  34.4609        127
  34.4981        128
  34.5352        131
  34.5724        110
  34.6095        133
  34.6467        125
  34.6838        113
  34.7210        159
  34.7581        155
  34.7953        144
  34.8324        130
  34.8696        129
  34.9067        128
  34.9439        114
  34.9810        104
  35.0182        114
  35.0553        102
  35.0925         94
  35.1296         86
  35.1668         74
  35.2039        115
  35.2411        102
  35.2782        114
  35.3154        105
  35.3525        106
  35.3897        110
  35.4268        107
  35.4640         79
  35.5011         94
  35.5383        103
  35.5754        107
  35.6126         97
  35.6497         90
  35.6869         96
  35.7240        122
  35.7612         77
  35.7983         91
  35.8355         85
  35.8726        132
  35.9098         80
  35.9469        100
  35.9841         99
  36.0213         96
  36.0584        107
  36.0956        100
  36.1327         95
  36.1699        101
  36.2070         96
  36.2442         98
  36.2813        105
  36.3185         94
  36.3556        101
  36.3928        114
  36.4299         94
  36.4671         87
  36.5042        108
  36.5414         97
  36.5785         90
  36.6157         70
  36.6528         86
  36.6900         97
  36.7271         88
  36.7643        104
  36.8014         89
  36.8386         76
  36.8757         92
  36.9129         78
  36.9500         85
  36.9872         84
  37.0243        101
  37.0615         77
  37.0986        103
  37.1358        103
  37.1729        107
  37.2101         88
  37.2472         90
  37.2844         93
  37.3215        101
  37.3587         83
  37.3958        103
  37.4330        159
  37.4701        128
  37.5073        117
  37.5445        131
  37.5816        106
  37.6188         86
  37.6559         81
  37.6931         77
  37.7302         83
  37.7674         91
  37.8045         74
  37.8417         86
  37.8788         82
  37.9160         96
  37.9531         95
  37.9903         82
  38.0274         74
  38.0646         98
  38.1017         87
  38.1389         99
  38.1760         81
  38.2132         88
  38.2503         86
  38.2875         86
  38.3246         67
  38.3618         98
  38.3989         75
  38.4361         74
  38.4732         90
  38.5104         91
  38.5475         91
  38.5847         86
  38.6218         75
  38.6590         83
  38.6961         83
  38.7333         82
  38.7704         90
  38.8076         88
  38.8447         81
  38.8819         83
  38.9190         87
  38.9562         82
  38.9933         73
  39.0305         70
  39.0677         85
  39.1048         82
  39.1420         81
  39.1791         84
  39.2163         91
  39.2534         68
  39.2906         89
  39.3277         77
  39.3649         90
  39.4020         95
  39.4392         76
  39.4763         82
  39.5135         75
  39.5506         71
  39.5878         75
  39.6249         83
  39.6621         72
  39.6992         79
  39.7364         77
  39.7735         79
  39.8107         66
  39.8478         76
  39.8850         64
  39.9221         71
  39.9593         83
  39.9964         88
  40.0336         84
  40.0707         81
  40.1079         73
  40.1450         83
  40.1822         76
  40.2193         72
  40.2565         86
  40.2936         77
  40.3308         93
  40.3679         74
  40.4051         91
  40.4422         79
  40.4794         75
  40.5165         77
  40.5537         76
  40.5908         80
  40.6280         85
  40.6652         74
  40.7023         85
  40.7395         85
  40.7766         92
  40.8138         72
  40.8509         66
  40.8881         79
  40.9252         82
  40.9624         78
  40.9995         83
  41.0367         97
  41.0738         82
  41.1110         73
  41.1481         88
  41.1853         92
  41.2224         65
  41.2596         81
  41.2967         80
  41.3339         77
  41.3710         73
  41.4082         77
  41.4453         62
  41.4825         89
  41.5196         65
  41.5568         59
  41.5939         62
  41.6311         74
  41.6682         73
  41.7054         80
  41.7425         78
  41.7797         66
  41.8168         72
  41.8540         63
  41.8911         69
  41.9283         79
  41.9654         75
  42.0026         96
  42.0397         62
  42.0769         77
  42.1140         60
  42.1512         74
  42.1884         84
  42.2255         77
  42.2627         73
  42.2998         87
  42.3370         72
  42.3741         78
  42.4113         70
  42.4484         65
  42.4856         67
  42.5227         67
  42.5599         81
  42.5970         78
  42.6342         75
  42.6713         64
  42.7085         84
  42.7456         69
  42.7828         73
  42.8199         66
  42.8571         80
  42.8942         74
  42.9314         68
  42.9685         92
  43.0057         76
  43.0428         79
  43.0800         86
  43.1171         67
  43.1543         82
  43.1914         81
  43.2286         97
  43.2657         88
  43.3029         79
  43.3400         85
  43.3772         84
  43.4143         68
  43.4515         89
  43.4886        129
  43.5258        138
  43.5629         88
  43.6001        109
  43.6372         94
  43.6744         86
  43.7116         76
  43.7487         77
  43.7859         72
  43.8230         70
  43.8602         83
  43.8973         73
  43.9345         78
  43.9716         76
  44.0088         73
  44.0459         90
  44.0831         83
  44.1202         75
  44.1574         72
  44.1945         69
  44.2317         60
  44.2688         83
  44.3060         67
  44.3431         83
  44.3803         69
  44.4174         73
  44.4546         77
  44.4917         59
  44.5289         67
  44.5660         78
  44.6032         76
  44.6403         68
  44.6775         78
  44.7146         86
  44.7518         80
  44.7889         70
  44.8261         69
  44.8632         56
  44.9004         76
  44.9375         82
  44.9747         77
  45.0118         82
  45.0490         72
  45.0861         63
  45.1233         64
  45.1604         77
  45.1976         71
  45.2347         81
  45.2719         61
  45.3091         73
  45.3462         93
  45.3834         72
  45.4205         62
  45.4577         75
  45.4948         65
  45.5320         53
  45.5691         71
  45.6063         69
  45.6434         64
  45.6806         51
  45.7177         69
  45.7549         62
  45.7920         64
  45.8292         72
  45.8663         62
  45.9035         70
  45.9406         71
  45.9778         69
  46.0149         48
  46.0521         62
  46.0892         70
  46.1264         76
  46.1635         64
  46.2007         74
  46.2378         65
  46.2750         63
  46.3121         73
  46.3493         75
  46.3864         67
  46.4236         57
  46.4607         69
  46.4979         64
  46.5350         61
  46.5722         68
  46.6093         63
  46.6465         65
  46.6836         64
  46.7208         58
  46.7579         74
  46.7951         67
  46.8323         58
  46.8694         72
  46.9066         54
  46.9437         49
  46.9809         71
  47.0180         68
  47.0552         50
  47.0923         59
  47.1295         63
  47.1666         57
  47.2038         76
  47.2409         63
  47.2781         68
  47.3152         78
  47.3524         77
  47.3895         63
  47.4267         64
  47.4638         58
  47.5010         65
  47.5381         66
  47.5753         58
  47.6124         53
  47.6496         49
  47.6867         62
  47.7239         57
  47.7610         76
  47.7982         69
  47.8353         38
  47.8725         62
  47.9096         63
  47.9468         60
  47.9839         58
  48.0211         59
  48.0582         76
  48.0954         61
  48.1325         56
  48.1697         61
  48.2068         62
  48.2440         64
  48.2811         69
  48.3183         68
  48.3555         69
  48.3926         71
  48.4298         43
  48.4669         72
  48.5041         58
  48.5412         65
  48.5784         64
  48.6155         63
  48.6527         82
  48.6898         71
  48.7270         63
  48.7641         54
  48.8013         49
  48.8384         65
  48.8756         70
  48.9127         84
  48.9499        122
  48.9870        100
  49.0242         77
  49.0613         83
  49.0985         73
  49.1356         81
  49.1728         67
  49.2099         55
  49.2471         66
  49.2842         66
  49.3214         69
  49.3585         63
  49.3957         53
  49.4328         72
  49.4700         65
  49.5071         65
  49.5443         56
  49.5814         71
  49.6186         39
  49.6557         63
  49.6929         61
  49.7300         67
  49.7672         60
  49.8043         62
  49.8415         57
  49.8786         54
  49.9158         63
  49.9530         72
  49.9901         61
  50.0273         73
  50.0644         59
  50.1016         72
  50.1387         71
  50.1759         63
  50.2130         69
  50.2502         68
  50.2873         56
  50.3245         51
  50.3616         70
  50.3988         70
  50.4359         53
  50.4731         56
  50.5102         52
  50.5474         60
  50.5845         56
  50.6217         58
  50.6588         75
  50.6960         47
  50.7331         65
  50.7703         67
  50.8074         55
  50.8446         60
  50.8817         51
  50.9189         72
  50.9560         62
  50.9932         50
  51.0303         71
  51.0675         68
  51.1046         63
  51.1418         62
  51.1789         69
  51.2161         57
  51.2532         64
  51.2904         70
  51.3275         59
  51.3647         73
  51.4018         70
  51.4390         81
  51.4762         79
  51.5133         62
  51.5505         54
  51.5876         55
  51.6248         55
  51.6619         49
  51.6991         56
  51.7362         68
  51.7734         60
  51.8105         70
  51.8477         70
  51.8848         69
  51.9220         61
  51.9591         79
  51.9963         65
  52.0334         46
  52.0706         58
  52.1077         48
  52.1449         60
  52.1820         65
  52.2192         75
  52.2563         66
  52.2935         52
  52.3306         63
  52.3678         60
  52.4049         55
  52.4421         72
  52.4792         60
  52.5164         55
  52.5535         64
  52.5907         56
  52.6278         60
  52.6650         57
  52.7021         47
  52.7393         55
  52.7764         67
  52.8136         61
  52.8507         58
  52.8879         54
  52.9250         65
  52.9622         67
  52.9994         57
  53.0365         63
  53.0737         52
  53.1108         60
  53.1480         74
  53.1851         59
  53.2223         57
  53.2594         61
  53.2966         54
  53.3337         62
  53.3709         67
  53.4080         69
  53.4452         68
  53.4823         81
  53.5195         66
  53.5566         63
  53.5938         67
  53.6309         59
  53.6681         66
  53.7052         47
  53.7424         59
  53.7795         74
  53.8167         54
  53.8538         56
  53.8910         58
  53.9281         65
  53.9653         81
  54.0024         60
  54.0396         66
  54.0767         61
  54.1139         66
  54.1510         67
  54.1882         57
  54.2253         70
  54.2625         58
  54.2996         61
  54.3368         51
  54.3739         58
  54.4111         71
  54.4482         51
  54.4854         63
  54.5225         47
  54.5597         75
  54.5969         61
  54.6340         54
  54.6712         55
  54.7083         59
  54.7455         47
  54.7826         62
  54.8198         59
  54.8569         56
  54.8941         58
  54.9312         52
  54.9684         43
  55.0055         60
  55.0427         48
  55.0798         61
  55.1170         64
  55.1541         69
  55.1913         77
  55.2284         58
  55.2656         60
  55.3027         60
  55.3399         51
  55.3770         66
  55.4142         60
  55.4513         64
  55.4885         45
  55.5256         59
  55.5628         70
  55.5999         58
  55.6371         58
  55.6742         69
  55.7114         53
  55.7485         60
  55.7857         59
  55.8228         54
  55.8600         61
  55.8971         43
  55.9343         66
  55.9714         62
  56.0086         67
  56.0457         61
  56.0829         43
  56.1201         58
  56.1572         62
  56.1944         76
  56.2315         71
  56.2687         60
  56.3058         68
  56.3430         57
  56.3801         62
  56.4173         68
  56.4544         66
  56.4916         54
  56.5287         61
  56.5659         46
  56.6030         66
  56.6402         55
  56.6773         55
  56.7145         66
  56.7516         52
  56.7888         68
  56.8259         46
  56.8631         68
  56.9002         57
  56.9374         51
  56.9745         62
  57.0117         47
  57.0488         53
  57.0860         47
  57.1231         51
  57.1603         60
  57.1974         48
  57.2346         59
  57.2717         59
  57.3089         58
  57.3460         60
  57.3832         41
  57.4203         56
  57.4575         65
  57.4946         45
  57.5318         55
  57.5689         53
  57.6061         56
  57.6433         56
  57.6804         59
  57.7176         50
  57.7547         54
  57.7919         55
  57.8290         63
  57.8662         62
  57.9033         45
  57.9405         71
  57.9776         52
  58.0148         51
  58.0519         57
  58.0891         55
  58.1262         51
  58.1634         57
  58.2005         67
  58.2377         71
  58.2748         51
  58.3120         57
  58.3491         57
  58.3863         44
  58.4234         63
  58.4606         66
  58.4977         51
  58.5349         65
  58.5720         65
  58.6092         52
  58.6463         61
  58.6835         51
  58.7206         58
  58.7578         52
  58.7949         58
  58.8321         57
  58.8692         70
  58.9064         54
  58.9435         59
  58.9807         58
  59.0178         69
  59.0550         56
  59.0921         46
  59.1293         55
  59.1664         47
  59.2036         42
  59.2408         53
  59.2779         55
  59.3151         46
  59.3522         49
  59.3894         63
  59.4265         48
  59.4637         55
  59.5008         45
  59.5380         59
  59.5751         57
  59.6123         60
  59.6494         55
  59.6866         42
  59.7237         56
  59.7609         60
  59.7980         59
  59.8352         39
  59.8723         40
  59.9095         52
  59.9466         51
  59.9838         60
  60.0024         43