File: notebooks/data/xrd_data/ML_20220718_33_SJD_4_LaB6-2min.csv
;,2THETA,
5.0000,131
5.0372,142
5.0743,134
5.1115,146
5.1486,136
5.1858,131
5.2229,131
5.2601,149
5.2972,132
5.3344,128
5.3715,109
5.4087,98
5.4458,117
5.4830,131
5.5201,120
5.5573,124
5.5944,116
5.6316,123
5.6687,99
5.7059,92
5.7430,107
5.7802,112
5.8173,102
5.8545,104
5.8916,125
5.9288,106
5.9659,99
6.0031,94
6.0402,95
6.0774,96
6.1145,107
6.1517,86
6.1888,92
6.2260,91
6.2631,77
6.3003,88
6.3374,86
6.3746,96
6.4117,100
6.4489,105
6.4860,86
6.5232,86
6.5604,90
6.5975,65
6.6347,90
6.6718,89
6.7090,92
6.7461,70
6.7833,95
6.8204,100
6.8576,86
6.8947,72
6.9319,72
6.9690,85
7.0062,76
7.0433,80
7.0805,87
7.1176,73
7.1548,72
7.1919,83
7.2291,69
7.2662,81
7.3034,83
7.3405,76
7.3777,65
7.4148,75
7.4520,78
7.4891,86
7.5263,83
7.5634,88
7.6006,78
7.6377,82
7.6749,86
7.7120,80
7.7492,99
7.7863,77
7.8235,79
7.8606,98
7.8978,88
7.9349,89
7.9721,81
8.0092,97
8.0464,90
8.0835,72
8.1207,91
8.1579,87
8.1950,102
8.2322,70
8.2693,94
8.3065,97
8.3436,96
8.3808,85
8.4179,98
8.4551,113
8.4922,99
8.5294,102
8.5665,99
8.6037,99
8.6408,106
8.6780,79
8.7151,103
8.7523,107
8.7894,98
8.8266,111
8.8637,95
8.9009,99
8.9380,105
8.9752,99
9.0123,101
9.0495,111
9.0866,113
9.1238,100
9.1609,116
9.1981,102
9.2352,107
9.2724,119
9.3095,108
9.3467,117
9.3838,125
9.4210,99
9.4581,96
9.4953,114
9.5324,110
9.5696,116
9.6067,106
9.6439,119
9.6811,90
9.7182,116
9.7554,125
9.7925,116
9.8297,128
9.8668,113
9.9040,110
9.9411,131
9.9783,108
10.0154,104
10.0526,142
10.0897,104
10.1269,120
10.1640,111
10.2012,129
10.2383,114
10.2755,111
10.3126,125
10.3498,113
10.3869,128
10.4241,106
10.4612,114
10.4984,133
10.5355,136
10.5727,133
10.6098,114
10.6470,97
10.6841,113
10.7213,115
10.7584,100
10.7956,107
10.8327,115
10.8699,101
10.9070,111
10.9442,125
10.9813,110
11.0185,120
11.0556,110
11.0928,116
11.1299,124
11.1671,127
11.2043,121
11.2414,103
11.2786,123
11.3157,114
11.3529,144
11.3900,103
11.4272,119
11.4643,113
11.5015,105
11.5386,112
11.5758,114
11.6129,116
11.6501,93
11.6872,125
11.7244,101
11.7615,109
11.7987,117
11.8358,104
11.8730,92
11.9101,111
11.9473,112
11.9844,115
12.0216,97
12.0587,118
12.0959,120
12.1330,102
12.1702,112
12.2073,134
12.2445,119
12.2816,114
12.3188,121
12.3559,97
12.3931,113
12.4302,107
12.4674,123
12.5045,121
12.5417,107
12.5788,103
12.6160,120
12.6531,84
12.6903,112
12.7274,117
12.7646,106
12.8018,101
12.8389,102
12.8761,95
12.9132,106
12.9504,114
12.9875,108
13.0247,122
13.0618,99
13.0990,102
13.1361,102
13.1733,103
13.2104,90
13.2476,84
13.2847,83
13.3219,86
13.3590,97
13.3962,87
13.4333,95
13.4705,101
13.5076,73
13.5448,94
13.5819,84
13.6191,96
13.6562,107
13.6934,92
13.7305,107
13.7677,99
13.8048,92
13.8420,84
13.8791,90
13.9163,84
13.9534,86
13.9906,116
14.0277,81
14.0649,87
14.1020,95
14.1392,83
14.1763,85
14.2135,88
14.2506,80
14.2878,84
14.3250,110
14.3621,82
14.3993,89
14.4364,91
14.4736,80
14.5107,85
14.5479,92
14.5850,89
14.6222,93
14.6593,67
14.6965,97
14.7336,74
14.7708,83
14.8079,88
14.8451,82
14.8822,89
14.9194,89
14.9565,90
14.9937,76
15.0308,72
15.0680,95
15.1051,85
15.1423,91
15.1794,89
15.2166,75
15.2537,81
15.2909,97
15.3280,87
15.3652,70
15.4023,98
15.4395,87
15.4766,95
15.5138,82
15.5509,90
15.5881,87
15.6252,74
15.6624,72
15.6995,78
15.7367,91
15.7738,72
15.8110,77
15.8482,83
15.8853,98
15.9225,86
15.9596,81
15.9968,86
16.0339,83
16.0711,109
16.1082,107
16.1454,89
16.1825,71
16.2197,70
16.2568,84
16.2940,96
16.3311,76
16.3683,77
16.4054,90
16.4426,83
16.4797,95
16.5169,88
16.5540,75
16.5912,69
16.6283,78
16.6655,74
16.7026,86
16.7398,66
16.7769,82
16.8141,73
16.8512,73
16.8884,93
16.9255,79
16.9627,88
16.9998,92
17.0370,88
17.0741,77
17.1113,81
17.1484,89
17.1856,95
17.2227,88
17.2599,72
17.2970,90
17.3342,82
17.3713,90
17.4085,80
17.4457,72
17.4828,88
17.5200,100
17.5571,82
17.5943,81
17.6314,92
17.6686,76
17.7057,77
17.7429,87
17.7800,79
17.8172,76
17.8543,85
17.8915,84
17.9286,84
17.9658,75
18.0029,77
18.0401,69
18.0772,93
18.1144,77
18.1515,76
18.1887,89
18.2258,79
18.2630,86
18.3001,87
18.3373,90
18.3744,68
18.4116,78
18.4487,89
18.4859,73
18.5230,106
18.5602,86
18.5973,67
18.6345,90
18.6716,70
18.7088,80
18.7459,85
18.7831,89
18.8202,96
18.8574,76
18.8945,80
18.9317,87
18.9689,75
19.0060,88
19.0432,80
19.0803,91
19.1175,88
19.1546,83
19.1918,76
19.2289,87
19.2661,89
19.3032,83
19.3404,85
19.3775,81
19.4147,98
19.4518,88
19.4890,86
19.5261,79
19.5633,84
19.6004,67
19.6376,87
19.6747,81
19.7119,80
19.7490,91
19.7862,92
19.8233,92
19.8605,77
19.8976,82
19.9348,97
19.9719,118
20.0091,95
20.0462,80
20.0834,76
20.1205,91
20.1577,80
20.1948,88
20.2320,81
20.2691,84
20.3063,100
20.3434,89
20.3806,92
20.4177,77
20.4549,101
20.4921,94
20.5292,86
20.5664,103
20.6035,105
20.6407,92
20.6778,105
20.7150,92
20.7521,73
20.7893,89
20.8264,109
20.8636,65
20.9007,80
20.9379,84
20.9750,92
21.0122,105
21.0493,111
21.0865,94
21.1236,96
21.1608,121
21.1979,139
21.2351,155
21.2722,151
21.3094,126
21.3465,221
21.3837,190
21.4208,192
21.4580,121
21.4951,106
21.5323,97
21.5694,82
21.6066,103
21.6437,96
21.6809,93
21.7180,108
21.7552,103
21.7923,104
21.8295,98
21.8666,107
21.9038,83
21.9409,82
21.9781,95
22.0152,91
22.0524,98
22.0896,92
22.1267,84
22.1639,98
22.2010,104
22.2382,96
22.2753,78
22.3125,93
22.3496,95
22.3868,95
22.4239,122
22.4611,79
22.4982,98
22.5354,102
22.5725,103
22.6097,117
22.6468,100
22.6840,92
22.7211,82
22.7583,93
22.7954,105
22.8326,106
22.8697,113
22.9069,108
22.9440,86
22.9812,80
23.0183,117
23.0555,94
23.0926,104
23.1298,116
23.1669,95
23.2041,103
23.2412,92
23.2784,86
23.3155,100
23.3527,94
23.3898,96
23.4270,98
23.4641,94
23.5013,93
23.5384,111
23.5756,91
23.6128,88
23.6499,98
23.6871,89
23.7242,85
23.7614,103
23.7985,107
23.8357,109
23.8728,103
23.9100,94
23.9471,82
23.9843,92
24.0214,102
24.0586,82
24.0957,99
24.1329,105
24.1700,95
24.2072,100
24.2443,113
24.2815,115
24.3186,111
24.3558,111
24.3929,107
24.4301,106
24.4672,82
24.5044,113
24.5415,110
24.5787,113
24.6158,98
24.6530,94
24.6901,108
24.7273,92
24.7644,96
24.8016,99
24.8387,93
24.8759,86
24.9130,89
24.9502,99
24.9873,100
25.0245,91
25.0616,82
25.0988,115
25.1360,98
25.1731,96
25.2103,92
25.2474,107
25.2846,72
25.3217,106
25.3589,83
25.3960,87
25.4332,96
25.4703,103
25.5075,99
25.5446,90
25.5818,85
25.6189,84
25.6561,106
25.6932,100
25.7304,101
25.7675,98
25.8047,101
25.8418,101
25.8790,93
25.9161,102
25.9533,103
25.9904,97
26.0276,87
26.0647,90
26.1019,99
26.1390,92
26.1762,109
26.2133,108
26.2505,87
26.2876,104
26.3248,99
26.3619,96
26.3991,88
26.4362,88
26.4734,98
26.5105,85
26.5477,97
26.5848,85
26.6220,93
26.6591,86
26.6963,93
26.7335,89
26.7706,78
26.8078,90
26.8449,111
26.8821,88
26.9192,98
26.9564,91
26.9935,91
27.0307,88
27.0678,101
27.1050,87
27.1421,117
27.1793,94
27.2164,117
27.2536,127
27.2907,108
27.3279,98
27.3650,95
27.4022,89
27.4393,88
27.4765,83
27.5136,93
27.5508,89
27.5879,90
27.6251,87
27.6622,72
27.6994,82
27.7365,95
27.7737,101
27.8108,71
27.8480,75
27.8851,77
27.9223,88
27.9594,109
27.9966,93
28.0337,84
28.0709,74
28.1080,83
28.1452,95
28.1823,88
28.2195,79
28.2567,75
28.2938,86
28.3310,71
28.3681,82
28.4053,85
28.4424,78
28.4796,87
28.5167,93
28.5539,76
28.5910,79
28.6282,83
28.6653,99
28.7025,74
28.7396,70
28.7768,87
28.8139,82
28.8511,77
28.8882,89
28.9254,85
28.9625,93
28.9997,92
29.0368,73
29.0740,75
29.1111,64
29.1483,66
29.1854,89
29.2226,81
29.2597,66
29.2969,83
29.3340,81
29.3712,83
29.4083,89
29.4455,89
29.4826,96
29.5198,89
29.5569,65
29.5941,88
29.6312,83
29.6684,72
29.7055,69
29.7427,91
29.7799,69
29.8170,81
29.8542,86
29.8913,93
29.9285,66
29.9656,86
30.0028,87
30.0399,79
30.0771,90
30.1142,80
30.1514,81
30.1885,105
30.2257,84
30.2628,91
30.3000,94
30.3371,101
30.3743,118
30.4114,142
30.4486,133
30.4857,110
30.5229,94
30.5600,82
30.5972,92
30.6343,83
30.6715,62
30.7086,91
30.7458,79
30.7829,80
30.8201,81
30.8572,65
30.8944,67
30.9315,74
30.9687,80
31.0058,54
31.0430,74
31.0801,73
31.1173,72
31.1544,71
31.1916,69
31.2287,77
31.2659,72
31.3030,62
31.3402,63
31.3774,61
31.4145,70
31.4517,61
31.4888,63
31.5260,69
31.5631,71
31.6003,70
31.6374,81
31.6746,55
31.7117,58
31.7489,67
31.7860,57
31.8232,77
31.8603,72
31.8975,64
31.9346,60
31.9718,71
32.0089,65
32.0461,64
32.0832,61
32.1204,62
32.1575,68
32.1947,70
32.2318,69
32.2690,62
32.3061,63
32.3433,67
32.3804,64
32.4176,59
32.4547,63
32.4919,78
32.5290,72
32.5662,77
32.6033,68
32.6405,73
32.6776,70
32.7148,60
32.7519,62
32.7891,75
32.8262,62
32.8634,56
32.9006,53
32.9377,56
32.9749,69
33.0120,63
33.0492,48
33.0863,48
33.1235,71
33.1606,55
33.1978,57
33.2349,62
33.2721,60
33.3092,59
33.3464,50
33.3835,72
33.4207,53
33.4578,63
33.4950,53
33.5321,58
33.5693,73
33.6064,51
33.6436,52
33.6807,50
33.7179,65
33.7550,69
33.7922,54
33.8293,53
33.8665,59
33.9036,46
33.9408,50
33.9779,48
34.0151,54
34.0522,40
34.0894,53
34.1265,59
34.1637,57
34.2008,59
34.2380,50
34.2751,55
34.3123,59
34.3494,41
34.3866,54
34.4238,60
34.4609,65
34.4981,58
34.5352,43
34.5724,52
34.6095,61
34.6467,75
34.6838,66
34.7210,78
34.7581,88
34.7953,83
34.8324,73
34.8696,76
34.9067,55
34.9439,68
34.9810,64
35.0182,46
35.0553,52
35.0925,63
35.1296,43
35.1668,46
35.2039,44
35.2411,64
35.2782,52
35.3154,51
35.3525,55
35.3897,57
35.4268,45
35.4640,53
35.5011,48
35.5383,49
35.5754,45
35.6126,37
35.6497,50
35.6869,54
35.7240,49
35.7612,48
35.7983,58
35.8355,58
35.8726,43
35.9098,49
35.9469,46
35.9841,49
36.0213,48
36.0584,55
36.0956,42
36.1327,56
36.1699,50
36.2070,45
36.2442,58
36.2813,67
36.3185,53
36.3556,45
36.3928,43
36.4299,57
36.4671,38
36.5042,41
36.5414,47
36.5785,52
36.6157,41
36.6528,40
36.6900,45
36.7271,45
36.7643,48
36.8014,44
36.8386,49
36.8757,46
36.9129,41
36.9500,39
36.9872,52
37.0243,57
37.0615,57
37.0986,55
37.1358,47
37.1729,47
37.2101,31
37.2472,47
37.2844,44
37.3215,50
37.3587,45
37.3958,52
37.4330,79
37.4701,72
37.5073,60
37.5445,51
37.5816,51
37.6188,45
37.6559,37
37.6931,39
37.7302,39
37.7674,52
37.8045,39
37.8417,44
37.8788,45
37.9160,43
37.9531,48
37.9903,39
38.0274,59
38.0646,38
38.1017,43
38.1389,47
38.1760,44
38.2132,36
38.2503,46
38.2875,43
38.3246,49
38.3618,36
38.3989,43
38.4361,47
38.4732,47
38.5104,35
38.5475,41
38.5847,29
38.6218,37
38.6590,46
38.6961,37
38.7333,45
38.7704,47
38.8076,35
38.8447,38
38.8819,33
38.9190,32
38.9562,37
38.9933,48
39.0305,36
39.0677,42
39.1048,46
39.1420,36
39.1791,46
39.2163,42
39.2534,50
39.2906,45
39.3277,43
39.3649,38
39.4020,47
39.4392,33
39.4763,39
39.5135,32
39.5506,36
39.5878,38
39.6249,30
39.6621,38
39.6992,33
39.7364,36
39.7735,30
39.8107,38
39.8478,50
39.8850,31
39.9221,49
39.9593,38
39.9964,35
40.0336,31
40.0707,35
40.1079,44
40.1450,40
40.1822,38
40.2193,37
40.2565,31
40.2936,34
40.3308,29
40.3679,33
40.4051,33
40.4422,37
40.4794,44
40.5165,47
40.5537,36
40.5908,40
40.6280,58
40.6652,37
40.7023,39
40.7395,41
40.7766,48
40.8138,35
40.8509,36
40.8881,39
40.9252,42
40.9624,40
40.9995,38
41.0367,44
41.0738,46
41.1110,32
41.1481,35
41.1853,34
41.2224,44
41.2596,39
41.2967,50
41.3339,38
41.3710,38
41.4082,50
41.4453,43
41.4825,35
41.5196,39
41.5568,35
41.5939,32
41.6311,36
41.6682,33
41.7054,36
41.7425,32
41.7797,27
41.8168,27
41.8540,26
41.8911,25
41.9283,37
41.9654,35
42.0026,37
42.0397,34
42.0769,34
42.1140,39
42.1512,37
42.1884,37
42.2255,33
42.2627,46
42.2998,37
42.3370,40
42.3741,47
42.4113,36
42.4484,42
42.4856,32
42.5227,35
42.5599,40
42.5970,37
42.6342,50
42.6713,38
42.7085,48
42.7456,40
42.7828,40
42.8199,32
42.8571,44
42.8942,46
42.9314,32
42.9685,45
43.0057,60
43.0428,42
43.0800,37
43.1171,34
43.1543,42
43.1914,40
43.2286,34
43.2657,31
43.3029,51
43.3400,65
43.3772,39
43.4143,33
43.4515,40
43.4886,56
43.5258,65
43.5629,43
43.6001,44
43.6372,60
43.6744,45
43.7116,32
43.7487,29
43.7859,37
43.8230,33
43.8602,40
43.8973,36
43.9345,46
43.9716,30
44.0088,32
44.0459,26
44.0831,43
44.1202,29
44.1574,30
44.1945,41
44.2317,37
44.2688,41
44.3060,36
44.3431,33
44.3803,35
44.4174,29
44.4546,30
44.4917,43
44.5289,39
44.5660,32
44.6032,40
44.6403,49
44.6775,29
44.7146,42
44.7518,37
44.7889,52
44.8261,39
44.8632,30
44.9004,39
44.9375,25
44.9747,37
45.0118,37
45.0490,37
45.0861,42
45.1233,37
45.1604,34
45.1976,32
45.2347,41
45.2719,31
45.3091,22
45.3462,28
45.3834,29
45.4205,42
45.4577,29
45.4948,31
45.5320,30
45.5691,35
45.6063,39
45.6434,33
45.6806,30
45.7177,18
45.7549,25
45.7920,48
45.8292,26
45.8663,35
45.9035,34
45.9406,30
45.9778,39
46.0149,38
46.0521,40
46.0892,19
46.1264,33
46.1635,35
46.2007,38
46.2378,36
46.2750,35
46.3121,25
46.3493,35
46.3864,32
46.4236,42
46.4607,34
46.4979,28
46.5350,31
46.5722,33
46.6093,31
46.6465,32
46.6836,30
46.7208,26
46.7579,29
46.7951,42
46.8323,31
46.8694,23
46.9066,27
46.9437,29
46.9809,35
47.0180,31
47.0552,28
47.0923,24
47.1295,33
47.1666,27
47.2038,31
47.2409,23
47.2781,33
47.3152,24
47.3524,31
47.3895,34
47.4267,22
47.4638,32
47.5010,37
47.5381,24
47.5753,34
47.6124,33
47.6496,22
47.6867,34
47.7239,25
47.7610,23
47.7982,32
47.8353,24
47.8725,25
47.9096,37
47.9468,24
47.9839,32
48.0211,24
48.0582,32
48.0954,25
48.1325,34
48.1697,31
48.2068,26
48.2440,36
48.2811,30
48.3183,30
48.3555,28
48.3926,31
48.4298,29
48.4669,37
48.5041,33
48.5412,27
48.5784,36
48.6155,34
48.6527,22
48.6898,38
48.7270,31
48.7641,37
48.8013,28
48.8384,29
48.8756,39
48.9127,42
48.9499,64
48.9870,42
49.0242,31
49.0613,35
49.0985,37
49.1356,44
49.1728,42
49.2099,35
49.2471,32
49.2842,33
49.3214,29
49.3585,32
49.3957,34
49.4328,30
49.4700,30
49.5071,35
49.5443,38
49.5814,33
49.6186,35
49.6557,41
49.6929,37
49.7300,31
49.7672,31
49.8043,42
49.8415,32
49.8786,24
49.9158,25
49.9530,30
49.9901,33
50.0273,37
50.0644,35
50.1016,32
50.1387,34
50.1759,34
50.2130,31
50.2502,33
50.2873,43
50.3245,38
50.3616,27
50.3988,29
50.4359,32
50.4731,15
50.5102,32
50.5474,40
50.5845,32
50.6217,31
50.6588,30
50.6960,27
50.7331,29
50.7703,29
50.8074,24
50.8446,25
50.8817,30
50.9189,34
50.9560,32
50.9932,38
51.0303,28
51.0675,37
51.1046,31
51.1418,37
51.1789,33
51.2161,20
51.2532,29
51.2904,31
51.3275,26
51.3647,27
51.4018,35
51.4390,31
51.4762,31
51.5133,48
51.5505,41
51.5876,26
51.6248,35
51.6619,31
51.6991,30
51.7362,31
51.7734,33
51.8105,32
51.8477,41
51.8848,25
51.9220,28
51.9591,34
51.9963,32
52.0334,26
52.0706,29
52.1077,29
52.1449,31
52.1820,35
52.2192,22
52.2563,20
52.2935,26
52.3306,25
52.3678,28
52.4049,24
52.4421,28
52.4792,21
52.5164,26
52.5535,43
52.5907,28
52.6278,24
52.6650,27
52.7021,37
52.7393,24
52.7764,26
52.8136,35
52.8507,32
52.8879,28
52.9250,22
52.9622,27
52.9994,38
53.0365,33
53.0737,23
53.1108,42
53.1480,27
53.1851,18
53.2223,21
53.2594,23
53.2966,26
53.3337,23
53.3709,26
53.4080,19
53.4452,21
53.4823,28
53.5195,23
53.5566,26
53.5938,23
53.6309,37
53.6681,34
53.7052,26
53.7424,31
53.7795,30
53.8167,23
53.8538,29
53.8910,22
53.9281,34
53.9653,40
54.0024,53
54.0396,31
54.0767,34
54.1139,38
54.1510,36
54.1882,40
54.2253,34
54.2625,30
54.2996,30
54.3368,28
54.3739,22
54.4111,11
54.4482,31
54.4854,29
54.5225,27
54.5597,32
54.5969,34
54.6340,26
54.6712,35
54.7083,26
54.7455,25
54.7826,25
54.8198,37
54.8569,29
54.8941,28
54.9312,31
54.9684,24
55.0055,26
55.0427,22
55.0798,25
55.1170,29
55.1541,20
55.1913,15
55.2284,21
55.2656,29
55.3027,22
55.3399,27
55.3770,25
55.4142,25
55.4513,31
55.4885,31
55.5256,31
55.5628,33
55.5999,28
55.6371,21
55.6742,28
55.7114,25
55.7485,26
55.7857,31
55.8228,27
55.8600,30
55.8971,26
55.9343,33
55.9714,33
56.0086,35
56.0457,23
56.0829,26
56.1201,24
56.1572,32
56.1944,34
56.2315,32
56.2687,34
56.3058,32
56.3430,29
56.3801,30
56.4173,31
56.4544,30
56.4916,33
56.5287,28
56.5659,30
56.6030,23
56.6402,27
56.6773,21
56.7145,40
56.7516,23
56.7888,28
56.8259,37
56.8631,27
56.9002,30
56.9374,18
56.9745,24
57.0117,26
57.0488,25
57.0860,16
57.1231,30
57.1603,27
57.1974,22
57.2346,27
57.2717,24
57.3089,33
57.3460,29
57.3832,26
57.4203,26
57.4575,17
57.4946,33
57.5318,43
57.5689,26
57.6061,33
57.6433,33
57.6804,19
57.7176,27
57.7547,31
57.7919,27
57.8290,21
57.8662,30
57.9033,36
57.9405,31
57.9776,29
58.0148,25
58.0519,43
58.0891,29
58.1262,34
58.1634,17
58.2005,22
58.2377,31
58.2748,34
58.3120,25
58.3491,30
58.3863,24
58.4234,26
58.4606,21
58.4977,30
58.5349,28
58.5720,31
58.6092,36
58.6463,20
58.6835,41
58.7206,32
58.7578,24
58.7949,23
58.8321,27
58.8692,26
58.9064,27
58.9435,28
58.9807,32
59.0178,32
59.0550,25
59.0921,29
59.1293,28
59.1664,29
59.2036,18
59.2408,23
59.2779,34
59.3151,23
59.3522,30
59.3894,27
59.4265,29
59.4637,20
59.5008,33
59.5380,28
59.5751,25
59.6123,31
59.6494,18
59.6866,22
59.7237,23
59.7609,29
59.7980,22
59.8352,27
59.8723,29
59.9095,36
59.9466,28
59.9838,30
60.0024,35