File: notebooks/data/xrd_data/ML_20220718_46_SJD_4_LaB6-2min.uxd
; (content of file Y:\Sam\Apurva-07-20-2022\puck4\ML_20220718_46_SJD_4_LaB6-2min.raw)
_FILEVERSION = 3
_SAMPLE = ML_20220718_46_SJD_4_LaB6-2min
_+SAMPLE =
_SITE = USA
_USER = Administrator
_GONIOMETER_CODE = 20
; Goniometer : D8 theta/2theta, stage : Unknown
_ATTACHMENTS_CODE = 0
_GONIOMETER_RADIUS = 200.5
_FIXED_DIVSLIT = 0.6
_FIXED_SAMPLESLIT = 0
_SOLLER_SLITS = 2
_FIXED_DETSLIT = 9.55
_MONOCHROMATOR = 0
; Incident beam monochromator : None
_SOLLER_SLITS_2 = N
_THIN_FILM = N
_BETA_FILTER = Y
_FIXED_ANTISLIT = 5.89
_ANALYZER_CODE = 0
; Received beam analyzer : None
_DATEMEASURED = "26-Jul-2022 12:18:04"
_WL_UNIT = A
_WL1 = 1.5406
_WL2 = 1.54439
_WL3 = 1.39222
_WLRATIO = 0.5
_ANODE = Cu
_V4_INF_CREATOR = XRDWizard
_V4_INF_CREATOR_VERSION = V2.9.0.22
_V4_INF_WIZARD_VERSION = V2.9.0.22
_V4_INF_WIZARD_ADDINS = V2.9.0.22
_V4_INF_WIZARD_DOCTYPE = XRD
_V4_INF_OSUSER = McQueenLab
_V4_INF_USER = Administrator
_V4_INF_SITE = USA
_V4_INF_SAMPLEID = ML_20220718_46_SJD_4_LaB6-2min

; Data for range 1
_DRIVE = COUPLED
_STEPTIME = 5.64
_STEPSIZE = 0.0185756
_STEPMODE = C
_START = 5
_THETA = 2.5
_2THETA = 5
_KHI = 0
_PHI = 0
_X = 0
_Y = 0
_Z = 0
_DETECTOR = 5
; Detector type : Unknown
_DETECTORSLIT = unkn
_AUX1 = 0
_AUX2 = 0
_AUX3 = 0
_TIMESTARTED = 15
_TEMP_RATE = -1
_TEMP_DELAY = -1
_KV = 40
_MA = 40
_RANGE_WL = 1.5406
_3DPLANE = 0
_V4_ADDITIONALDETECTOR = 257
_V4_PSD2THETA = 3.3706
_V4_PSDCHANNEL1 = 0
_V4_PSDAPERTURE = 12.68
_V4_PSDTYPE = 5
_V4_PSDFIXED = 0
_V4_COUNTERS_MASK = 4096
_V4_DRIVES_MASK = 0
_V4_ENCODERS_MASK = 0
_2THETACOUNTS = 1
; 2THETA  PSD
   5.0000        126
   5.0372        130
   5.0743        144
   5.1115        111
   5.1486        124
   5.1858        104
   5.2229        144
   5.2601        122
   5.2972        117
   5.3344        109
   5.3715         82
   5.4087        119
   5.4458        108
   5.4830        131
   5.5201        108
   5.5573        125
   5.5944        102
   5.6316         96
   5.6687        108
   5.7059        101
   5.7430         97
   5.7802         94
   5.8173        127
   5.8545         95
   5.8916         97
   5.9288         69
   5.9659        107
   6.0031         99
   6.0402         94
   6.0774         96
   6.1145         88
   6.1517        100
   6.1888         92
   6.2260         98
   6.2631         86
   6.3003         87
   6.3374         85
   6.3746         92
   6.4117         87
   6.4489         94
   6.4860         96
   6.5232         72
   6.5604         83
   6.5975         89
   6.6347         81
   6.6718         83
   6.7090         77
   6.7461         90
   6.7833         90
   6.8204         88
   6.8576         92
   6.8947         72
   6.9319         85
   6.9690         71
   7.0062         82
   7.0433         76
   7.0805         86
   7.1176         67
   7.1548         70
   7.1919         81
   7.2291         72
   7.2662         75
   7.3034         59
   7.3405         85
   7.3777         77
   7.4148         74
   7.4520         84
   7.4891         91
   7.5263         81
   7.5634         79
   7.6006         68
   7.6377         93
   7.6749         76
   7.7120         92
   7.7492         74
   7.7863         90
   7.8235         95
   7.8606         63
   7.8978         86
   7.9349         99
   7.9721         95
   8.0092        105
   8.0464         76
   8.0835         91
   8.1207         95
   8.1579        101
   8.1950        101
   8.2322        113
   8.2693        100
   8.3065         83
   8.3436         93
   8.3808         94
   8.4179        119
   8.4551         98
   8.4922         92
   8.5294         94
   8.5665        105
   8.6037        103
   8.6408         97
   8.6780         88
   8.7151         97
   8.7523         93
   8.7894        107
   8.8266        100
   8.8637        121
   8.9009        120
   8.9380        117
   8.9752        107
   9.0123        108
   9.0495        113
   9.0866        108
   9.1238         98
   9.1609         98
   9.1981        124
   9.2352         99
   9.2724        102
   9.3095        111
   9.3467        114
   9.3838        107
   9.4210        123
   9.4581         94
   9.4953        113
   9.5324        115
   9.5696        107
   9.6067        107
   9.6439        108
   9.6811        130
   9.7182         92
   9.7554        102
   9.7925        126
   9.8297        118
   9.8668         92
   9.9040        130
   9.9411        107
   9.9783        100
  10.0154        132
  10.0526        122
  10.0897        124
  10.1269         82
  10.1640        115
  10.2012        113
  10.2383        140
  10.2755        103
  10.3126        127
  10.3498        111
  10.3869        122
  10.4241        130
  10.4612        121
  10.4984        110
  10.5355        106
  10.5727        114
  10.6098        126
  10.6470        124
  10.6841        108
  10.7213        109
  10.7584        127
  10.7956        114
  10.8327        117
  10.8699        143
  10.9070        113
  10.9442        126
  10.9813         96
  11.0185        121
  11.0556        122
  11.0928        111
  11.1299         97
  11.1671        118
  11.2043        131
  11.2414        119
  11.2786        115
  11.3157        127
  11.3529        122
  11.3900        107
  11.4272        126
  11.4643        109
  11.5015        128
  11.5386        126
  11.5758        100
  11.6129        104
  11.6501        114
  11.6872        103
  11.7244        110
  11.7615        121
  11.7987         97
  11.8358        127
  11.8730        124
  11.9101        112
  11.9473        125
  11.9844        114
  12.0216        102
  12.0587        115
  12.0959        104
  12.1330        118
  12.1702        125
  12.2073         96
  12.2445        104
  12.2816        100
  12.3188        102
  12.3559        112
  12.3931        127
  12.4302        122
  12.4674        113
  12.5045        106
  12.5417         93
  12.5788        112
  12.6160        101
  12.6531        110
  12.6903        108
  12.7274        120
  12.7646         94
  12.8018        104
  12.8389        111
  12.8761        110
  12.9132         91
  12.9504        103
  12.9875        103
  13.0247        113
  13.0618         97
  13.0990        112
  13.1361         90
  13.1733        118
  13.2104        118
  13.2476         98
  13.2847        103
  13.3219        112
  13.3590        121
  13.3962         87
  13.4333        102
  13.4705         99
  13.5076        116
  13.5448         96
  13.5819        106
  13.6191         91
  13.6562         94
  13.6934         89
  13.7305         96
  13.7677        106
  13.8048         82
  13.8420        107
  13.8791         90
  13.9163         90
  13.9534         79
  13.9906         79
  14.0277        104
  14.0649         88
  14.1020         80
  14.1392        116
  14.1763         98
  14.2135         98
  14.2506         88
  14.2878         82
  14.3250         83
  14.3621         82
  14.3993         98
  14.4364         89
  14.4736         85
  14.5107         87
  14.5479         87
  14.5850         84
  14.6222        103
  14.6593         93
  14.6965         80
  14.7336         89
  14.7708         70
  14.8079         77
  14.8451         73
  14.8822         76
  14.9194         87
  14.9565         86
  14.9937         94
  15.0308         94
  15.0680         75
  15.1051         82
  15.1423         77
  15.1794         77
  15.2166         85
  15.2537         68
  15.2909         67
  15.3280         84
  15.3652         80
  15.4023         81
  15.4395         80
  15.4766         73
  15.5138         84
  15.5509         85
  15.5881         56
  15.6252         76
  15.6624         79
  15.6995         61
  15.7367         92
  15.7738         76
  15.8110         74
  15.8482         94
  15.8853         83
  15.9225         84
  15.9596         67
  15.9968         78
  16.0339         78
  16.0711         67
  16.1082         70
  16.1454         69
  16.1825         86
  16.2197         81
  16.2568         80
  16.2940         76
  16.3311         90
  16.3683         74
  16.4054         81
  16.4426         54
  16.4797         89
  16.5169         86
  16.5540         80
  16.5912         73
  16.6283         88
  16.6655         88
  16.7026         92
  16.7398         77
  16.7769         94
  16.8141         91
  16.8512         90
  16.8884         88
  16.9255         62
  16.9627         78
  16.9998         97
  17.0370         95
  17.0741         75
  17.1113         93
  17.1484         72
  17.1856         87
  17.2227         96
  17.2599         65
  17.2970         72
  17.3342         97
  17.3713         83
  17.4085         85
  17.4457         92
  17.4828         67
  17.5200         85
  17.5571         79
  17.5943         88
  17.6314         96
  17.6686         72
  17.7057         89
  17.7429         84
  17.7800         61
  17.8172         78
  17.8543         97
  17.8915        101
  17.9286         73
  17.9658         84
  18.0029         89
  18.0401         86
  18.0772         67
  18.1144         82
  18.1515         91
  18.1887         79
  18.2258         83
  18.2630         73
  18.3001         65
  18.3373         78
  18.3744         90
  18.4116         80
  18.4487         76
  18.4859         68
  18.5230         95
  18.5602        112
  18.5973         84
  18.6345         79
  18.6716         82
  18.7088         77
  18.7459         87
  18.7831         81
  18.8202         95
  18.8574         63
  18.8945         75
  18.9317         88
  18.9689         90
  19.0060         88
  19.0432         86
  19.0803         82
  19.1175         92
  19.1546         86
  19.1918         88
  19.2289         90
  19.2661         90
  19.3032         80
  19.3404        103
  19.3775        104
  19.4147         82
  19.4518         84
  19.4890         93
  19.5261         84
  19.5633         98
  19.6004         78
  19.6376         92
  19.6747        105
  19.7119         99
  19.7490         77
  19.7862         83
  19.8233         90
  19.8605         77
  19.8976         88
  19.9348         91
  19.9719        101
  20.0091         96
  20.0462         86
  20.0834         81
  20.1205         84
  20.1577         83
  20.1948        111
  20.2320         97
  20.2691        113
  20.3063         84
  20.3434        108
  20.3806         87
  20.4177         76
  20.4549         87
  20.4921         96
  20.5292         84
  20.5664         91
  20.6035         88
  20.6407         80
  20.6778         89
  20.7150         94
  20.7521        107
  20.7893         95
  20.8264        103
  20.8636        113
  20.9007        103
  20.9379        104
  20.9750        113
  21.0122         96
  21.0493        114
  21.0865        104
  21.1236        117
  21.1608        127
  21.1979        152
  21.2351        163
  21.2722        158
  21.3094        193
  21.3465        227
  21.3837        217
  21.4208        172
  21.4580        110
  21.4951        102
  21.5323         95
  21.5694         98
  21.6066         89
  21.6437         80
  21.6809        103
  21.7180        106
  21.7552         88
  21.7923         87
  21.8295         84
  21.8666         97
  21.9038        103
  21.9409        105
  21.9781         95
  22.0152        100
  22.0524         97
  22.0896         93
  22.1267        112
  22.1639         99
  22.2010        100
  22.2382        113
  22.2753         94
  22.3125         82
  22.3496        113
  22.3868         99
  22.4239         97
  22.4611        100
  22.4982         97
  22.5354         99
  22.5725        110
  22.6097         82
  22.6468        106
  22.6840         87
  22.7211         93
  22.7583         93
  22.7954         85
  22.8326         88
  22.8697        102
  22.9069        103
  22.9440         86
  22.9812        105
  23.0183        103
  23.0555         95
  23.0926         98
  23.1298        100
  23.1669        107
  23.2041         77
  23.2412         97
  23.2784        109
  23.3155         88
  23.3527         97
  23.3898         85
  23.4270        106
  23.4641        109
  23.5013        120
  23.5384         84
  23.5756         92
  23.6128         98
  23.6499        107
  23.6871         98
  23.7242        114
  23.7614         91
  23.7985         88
  23.8357         90
  23.8728         95
  23.9100         98
  23.9471         82
  23.9843        114
  24.0214         85
  24.0586        109
  24.0957         93
  24.1329         99
  24.1700        100
  24.2072        100
  24.2443        104
  24.2815        111
  24.3186         98
  24.3558         96
  24.3929        104
  24.4301         87
  24.4672         89
  24.5044         90
  24.5415        102
  24.5787        104
  24.6158        102
  24.6530         95
  24.6901        112
  24.7273         98
  24.7644         93
  24.8016         95
  24.8387         78
  24.8759         96
  24.9130         93
  24.9502         98
  24.9873         92
  25.0245         99
  25.0616         95
  25.0988         88
  25.1360        111
  25.1731         95
  25.2103        105
  25.2474         99
  25.2846        109
  25.3217        110
  25.3589         86
  25.3960         99
  25.4332        109
  25.4703        111
  25.5075        111
  25.5446         90
  25.5818         97
  25.6189         97
  25.6561        101
  25.6932         84
  25.7304        104
  25.7675        102
  25.8047        110
  25.8418         90
  25.8790         91
  25.9161         95
  25.9533         99
  25.9904         78
  26.0276         92
  26.0647        102
  26.1019         94
  26.1390         88
  26.1762         95
  26.2133        112
  26.2505         91
  26.2876        103
  26.3248         92
  26.3619         91
  26.3991         83
  26.4362         97
  26.4734        105
  26.5105        101
  26.5477         84
  26.5848         91
  26.6220         85
  26.6591         85
  26.6963         98
  26.7335         90
  26.7706         98
  26.8078         94
  26.8449         83
  26.8821         85
  26.9192        110
  26.9564         84
  26.9935         92
  27.0307         93
  27.0678         91
  27.1050        104
  27.1421         88
  27.1793         94
  27.2164        126
  27.2536        113
  27.2907        114
  27.3279        102
  27.3650         97
  27.4022         96
  27.4393         80
  27.4765         92
  27.5136         87
  27.5508         99
  27.5879         97
  27.6251         96
  27.6622         91
  27.6994         91
  27.7365         80
  27.7737         95
  27.8108         76
  27.8480         89
  27.8851         75
  27.9223         78
  27.9594         84
  27.9966         78
  28.0337         86
  28.0709         89
  28.1080         90
  28.1452         75
  28.1823         85
  28.2195         94
  28.2567         82
  28.2938         78
  28.3310         77
  28.3681         95
  28.4053         89
  28.4424         68
  28.4796         82
  28.5167         89
  28.5539         70
  28.5910         71
  28.6282         84
  28.6653         82
  28.7025         80
  28.7396         74
  28.7768         79
  28.8139         92
  28.8511         86
  28.8882         79
  28.9254         78
  28.9625         85
  28.9997         91
  29.0368         82
  29.0740         89
  29.1111         87
  29.1483         74
  29.1854         79
  29.2226         83
  29.2597         78
  29.2969         66
  29.3340         64
  29.3712         75
  29.4083         73
  29.4455         92
  29.4826         77
  29.5198         88
  29.5569         75
  29.5941         67
  29.6312         69
  29.6684         68
  29.7055         78
  29.7427         82
  29.7799         83
  29.8170         63
  29.8542         74
  29.8913         63
  29.9285         80
  29.9656         79
  30.0028         78
  30.0399         71
  30.0771         88
  30.1142         83
  30.1514         79
  30.1885         76
  30.2257         83
  30.2628         83
  30.3000         93
  30.3371         98
  30.3743        150
  30.4114        137
  30.4486         91
  30.4857         99
  30.5229         79
  30.5600         92
  30.5972         74
  30.6343         84
  30.6715         86
  30.7086         75
  30.7458         69
  30.7829         72
  30.8201         71
  30.8572         84
  30.8944         78
  30.9315         79
  30.9687         71
  31.0058         81
  31.0430         75
  31.0801         71
  31.1173         74
  31.1544         72
  31.1916         64
  31.2287         63
  31.2659         74
  31.3030         71
  31.3402         77
  31.3774         61
  31.4145         53
  31.4517         79
  31.4888         80
  31.5260         72
  31.5631         65
  31.6003         56
  31.6374         59
  31.6746         66
  31.7117         72
  31.7489         67
  31.7860         63
  31.8232         65
  31.8603         79
  31.8975         62
  31.9346         52
  31.9718         54
  32.0089         58
  32.0461         76
  32.0832         61
  32.1204         70
  32.1575         65
  32.1947         64
  32.2318         70
  32.2690         58
  32.3061         59
  32.3433         70
  32.3804         70
  32.4176         46
  32.4547         56
  32.4919        101
  32.5290         80
  32.5662         82
  32.6033         73
  32.6405         55
  32.6776         57
  32.7148         70
  32.7519         63
  32.7891         64
  32.8262         60
  32.8634         60
  32.9006         51
  32.9377         73
  32.9749         63
  33.0120         75
  33.0492         59
  33.0863         51
  33.1235         71
  33.1606         55
  33.1978         63
  33.2349         62
  33.2721         55
  33.3092         67
  33.3464         60
  33.3835         61
  33.4207         66
  33.4578         65
  33.4950         42
  33.5321         58
  33.5693         60
  33.6064         67
  33.6436         57
  33.6807         52
  33.7179         57
  33.7550         72
  33.7922         53
  33.8293         67
  33.8665         62
  33.9036         54
  33.9408         56
  33.9779         53
  34.0151         46
  34.0522         58
  34.0894         53
  34.1265         53
  34.1637         47
  34.2008         61
  34.2380         56
  34.2751         61
  34.3123         68
  34.3494         53
  34.3866         59
  34.4238         57
  34.4609         54
  34.4981         45
  34.5352         66
  34.5724         66
  34.6095         65
  34.6467         69
  34.6838         61
  34.7210         62
  34.7581         91
  34.7953         78
  34.8324         73
  34.8696         80
  34.9067         67
  34.9439         62
  34.9810         55
  35.0182         56
  35.0553         57
  35.0925         56
  35.1296         55
  35.1668         56
  35.2039         55
  35.2411         53
  35.2782         50
  35.3154         49
  35.3525         55
  35.3897         52
  35.4268         46
  35.4640         45
  35.5011         43
  35.5383         47
  35.5754         45
  35.6126         50
  35.6497         51
  35.6869         53
  35.7240         60
  35.7612         46
  35.7983         59
  35.8355         38
  35.8726         48
  35.9098         43
  35.9469         69
  35.9841         46
  36.0213         65
  36.0584         61
  36.0956         54
  36.1327         49
  36.1699         47
  36.2070         33
  36.2442         57
  36.2813         41
  36.3185         44
  36.3556         48
  36.3928         49
  36.4299         41
  36.4671         48
  36.5042         62
  36.5414         42
  36.5785         39
  36.6157         41
  36.6528         46
  36.6900         55
  36.7271         47
  36.7643         54
  36.8014         47
  36.8386         39
  36.8757         53
  36.9129         54
  36.9500         58
  36.9872         36
  37.0243         46
  37.0615         49
  37.0986         54
  37.1358         41
  37.1729         37
  37.2101         52
  37.2472         43
  37.2844         40
  37.3215         48
  37.3587         45
  37.3958         61
  37.4330         66
  37.4701         63
  37.5073         45
  37.5445         60
  37.5816         57
  37.6188         49
  37.6559         42
  37.6931         51
  37.7302         43
  37.7674         45
  37.8045         44
  37.8417         45
  37.8788         44
  37.9160         51
  37.9531         45
  37.9903         38
  38.0274         46
  38.0646         48
  38.1017         44
  38.1389         36
  38.1760         45
  38.2132         34
  38.2503         49
  38.2875         34
  38.3246         44
  38.3618         52
  38.3989         45
  38.4361         47
  38.4732         33
  38.5104         43
  38.5475         37
  38.5847         29
  38.6218         43
  38.6590         43
  38.6961         41
  38.7333         42
  38.7704         34
  38.8076         35
  38.8447         43
  38.8819         46
  38.9190         44
  38.9562         44
  38.9933         37
  39.0305         33
  39.0677         35
  39.1048         44
  39.1420         54
  39.1791         38
  39.2163         43
  39.2534         40
  39.2906         33
  39.3277         30
  39.3649         27
  39.4020         42
  39.4392         36
  39.4763         38
  39.5135         39
  39.5506         40
  39.5878         40
  39.6249         44
  39.6621         55
  39.6992         45
  39.7364         44
  39.7735         38
  39.8107         39
  39.8478         48
  39.8850         59
  39.9221         38
  39.9593         27
  39.9964         31
  40.0336         42
  40.0707         37
  40.1079         38
  40.1450         39
  40.1822         35
  40.2193         46
  40.2565         40
  40.2936         45
  40.3308         26
  40.3679         47
  40.4051         44
  40.4422         45
  40.4794         41
  40.5165         32
  40.5537         52
  40.5908         37
  40.6280         42
  40.6652         43
  40.7023         37
  40.7395         33
  40.7766         30
  40.8138         30
  40.8509         30
  40.8881         50
  40.9252         34
  40.9624         34
  40.9995         34
  41.0367         37
  41.0738         37
  41.1110         31
  41.1481         40
  41.1853         33
  41.2224         49
  41.2596         32
  41.2967         36
  41.3339         35
  41.3710         39
  41.4082         32
  41.4453         33
  41.4825         38
  41.5196         50
  41.5568         36
  41.5939         41
  41.6311         35
  41.6682         25
  41.7054         40
  41.7425         31
  41.7797         36
  41.8168         32
  41.8540         35
  41.8911         40
  41.9283         36
  41.9654         44
  42.0026         30
  42.0397         46
  42.0769         42
  42.1140         51
  42.1512         38
  42.1884         36
  42.2255         28
  42.2627         32
  42.2998         25
  42.3370         37
  42.3741         49
  42.4113         39
  42.4484         29
  42.4856         51
  42.5227         42
  42.5599         32
  42.5970         37
  42.6342         38
  42.6713         42
  42.7085         41
  42.7456         34
  42.7828         29
  42.8199         35
  42.8571         31
  42.8942         32
  42.9314         25
  42.9685         34
  43.0057         46
  43.0428         34
  43.0800         34
  43.1171         34
  43.1543         40
  43.1914         40
  43.2286         52
  43.2657         43
  43.3029         29
  43.3400         32
  43.3772         51
  43.4143         36
  43.4515         30
  43.4886         50
  43.5258         74
  43.5629         45
  43.6001         58
  43.6372         50
  43.6744         37
  43.7116         39
  43.7487         42
  43.7859         30
  43.8230         32
  43.8602         45
  43.8973         51
  43.9345         41
  43.9716         33
  44.0088         28
  44.0459         46
  44.0831         38
  44.1202         29
  44.1574         36
  44.1945         31
  44.2317         45
  44.2688         44
  44.3060         44
  44.3431         43
  44.3803         48
  44.4174         34
  44.4546         32
  44.4917         37
  44.5289         27
  44.5660         33
  44.6032         33
  44.6403         42
  44.6775         37
  44.7146         29
  44.7518         34
  44.7889         46
  44.8261         35
  44.8632         43
  44.9004         34
  44.9375         33
  44.9747         39
  45.0118         37
  45.0490         40
  45.0861         39
  45.1233         34
  45.1604         38
  45.1976         30
  45.2347         36
  45.2719         42
  45.3091         36
  45.3462         21
  45.3834         36
  45.4205         35
  45.4577         37
  45.4948         35
  45.5320         40
  45.5691         36
  45.6063         41
  45.6434         36
  45.6806         43
  45.7177         31
  45.7549         32
  45.7920         28
  45.8292         38
  45.8663         36
  45.9035         29
  45.9406         40
  45.9778         36
  46.0149         28
  46.0521         25
  46.0892         41
  46.1264         38
  46.1635         25
  46.2007         34
  46.2378         30
  46.2750         22
  46.3121         30
  46.3493         34
  46.3864         27
  46.4236         41
  46.4607         33
  46.4979         38
  46.5350         43
  46.5722         35
  46.6093         36
  46.6465         29
  46.6836         28
  46.7208         46
  46.7579         32
  46.7951         29
  46.8323         29
  46.8694         29
  46.9066         31
  46.9437         18
  46.9809         38
  47.0180         31
  47.0552         30
  47.0923         40
  47.1295         31
  47.1666         28
  47.2038         27
  47.2409         26
  47.2781         38
  47.3152         24
  47.3524         30
  47.3895         29
  47.4267         35
  47.4638         30
  47.5010         40
  47.5381         34
  47.5753         43
  47.6124         30
  47.6496         26
  47.6867         38
  47.7239         30
  47.7610         27
  47.7982         39
  47.8353         33
  47.8725         29
  47.9096         35
  47.9468         29
  47.9839         29
  48.0211         39
  48.0582         32
  48.0954         39
  48.1325         32
  48.1697         23
  48.2068         25
  48.2440         32
  48.2811         22
  48.3183         33
  48.3555         43
  48.3926         28
  48.4298         24
  48.4669         36
  48.5041         36
  48.5412         27
  48.5784         22
  48.6155         23
  48.6527         41
  48.6898         31
  48.7270         34
  48.7641         46
  48.8013         37
  48.8384         41
  48.8756         30
  48.9127         31
  48.9499         51
  48.9870         43
  49.0242         34
  49.0613         42
  49.0985         55
  49.1356         35
  49.1728         44
  49.2099         27
  49.2471         39
  49.2842         26
  49.3214         32
  49.3585         27
  49.3957         29
  49.4328         43
  49.4700         28
  49.5071         20
  49.5443         29
  49.5814         36
  49.6186         33
  49.6557         27
  49.6929         36
  49.7300         25
  49.7672         35
  49.8043         33
  49.8415         40
  49.8786         17
  49.9158         35
  49.9530         28
  49.9901         29
  50.0273         39
  50.0644         34
  50.1016         21
  50.1387         25
  50.1759         34
  50.2130         21
  50.2502         37
  50.2873         30
  50.3245         33
  50.3616         35
  50.3988         31
  50.4359         27
  50.4731         30
  50.5102         35
  50.5474         29
  50.5845         39
  50.6217         22
  50.6588         37
  50.6960         29
  50.7331         30
  50.7703         33
  50.8074         27
  50.8446         25
  50.8817         20
  50.9189         26
  50.9560         30
  50.9932         31
  51.0303         26
  51.0675         27
  51.1046         40
  51.1418         17
  51.1789         28
  51.2161         22
  51.2532         26
  51.2904         36
  51.3275         33
  51.3647         27
  51.4018         41
  51.4390         33
  51.4762         35
  51.5133         32
  51.5505         29
  51.5876         30
  51.6248         31
  51.6619         36
  51.6991         32
  51.7362         29
  51.7734         40
  51.8105         25
  51.8477         34
  51.8848         21
  51.9220         30
  51.9591         32
  51.9963         34
  52.0334         24
  52.0706         46
  52.1077         34
  52.1449         27
  52.1820         28
  52.2192         27
  52.2563         28
  52.2935         26
  52.3306         33
  52.3678         39
  52.4049         24
  52.4421         22
  52.4792         28
  52.5164         36
  52.5535         34
  52.5907         26
  52.6278         24
  52.6650         25
  52.7021         30
  52.7393         26
  52.7764         29
  52.8136         20
  52.8507         29
  52.8879         22
  52.9250         22
  52.9622         24
  52.9994         36
  53.0365         35
  53.0737         27
  53.1108         28
  53.1480         30
  53.1851         31
  53.2223         34
  53.2594         32
  53.2966         21
  53.3337         36
  53.3709         33
  53.4080         31
  53.4452         32
  53.4823         28
  53.5195         34
  53.5566         25
  53.5938         26
  53.6309         32
  53.6681         21
  53.7052         19
  53.7424         31
  53.7795         24
  53.8167         32
  53.8538         31
  53.8910         32
  53.9281         29
  53.9653         42
  54.0024         45
  54.0396         35
  54.0767         32
  54.1139         31
  54.1510         29
  54.1882         29
  54.2253         19
  54.2625         34
  54.2996         27
  54.3368         30
  54.3739         29
  54.4111         18
  54.4482         27
  54.4854         19
  54.5225         35
  54.5597         25
  54.5969         20
  54.6340         33
  54.6712         24
  54.7083         27
  54.7455         29
  54.7826         27
  54.8198         28
  54.8569         36
  54.8941         23
  54.9312         27
  54.9684         43
  55.0055         30
  55.0427         30
  55.0798         25
  55.1170         21
  55.1541         27
  55.1913         24
  55.2284         26
  55.2656         29
  55.3027         37
  55.3399         30
  55.3770         33
  55.4142         31
  55.4513         35
  55.4885         24
  55.5256         29
  55.5628         25
  55.5999         25
  55.6371         28
  55.6742         24
  55.7114         27
  55.7485         29
  55.7857         41
  55.8228         26
  55.8600         21
  55.8971         32
  55.9343         27
  55.9714         23
  56.0086         20
  56.0457         32
  56.0829         31
  56.1201         35
  56.1572         30
  56.1944         34
  56.2315         31
  56.2687         18
  56.3058         25
  56.3430         37
  56.3801         27
  56.4173         22
  56.4544         23
  56.4916         25
  56.5287         30
  56.5659         29
  56.6030         29
  56.6402         34
  56.6773         29
  56.7145         28
  56.7516         24
  56.7888         27
  56.8259         25
  56.8631         30
  56.9002         35
  56.9374         20
  56.9745         24
  57.0117         31
  57.0488         37
  57.0860         32
  57.1231         24
  57.1603         25
  57.1974         27
  57.2346         21
  57.2717         25
  57.3089         19
  57.3460         21
  57.3832         30
  57.4203         21
  57.4575         33
  57.4946         33
  57.5318         20
  57.5689         26
  57.6061         23
  57.6433         16
  57.6804         22
  57.7176         34
  57.7547         23
  57.7919         27
  57.8290         31
  57.8662         29
  57.9033         26
  57.9405         17
  57.9776         28
  58.0148         28
  58.0519         21
  58.0891         22
  58.1262         23
  58.1634         27
  58.2005         24
  58.2377         25
  58.2748         24
  58.3120         30
  58.3491         23
  58.3863         22
  58.4234         28
  58.4606         23
  58.4977         29
  58.5349         20
  58.5720         34
  58.6092         20
  58.6463         26
  58.6835         23
  58.7206         29
  58.7578         26
  58.7949         25
  58.8321         29
  58.8692         33
  58.9064         25
  58.9435         37
  58.9807         31
  59.0178         30
  59.0550         28
  59.0921         33
  59.1293         31
  59.1664         23
  59.2036         28
  59.2408         28
  59.2779         25
  59.3151         28
  59.3522         16
  59.3894         27
  59.4265         23
  59.4637         20
  59.5008         33
  59.5380         40
  59.5751         21
  59.6123         25
  59.6494         22
  59.6866         31
  59.7237         24
  59.7609         26
  59.7980         37
  59.8352         31
  59.8723         25
  59.9095         25
  59.9466         20
  59.9838         20
  60.0024         30