File: notebooks/data/xrd_data/ML_20220720_18_SJD_4_LaB6-1min.uxd
; (content of file Y:\Sam\Apurva-07-20-2022\puck2\ML_20220720_18_SJD_0_LaB6-1min.raw)
_FILEVERSION = 3
_SAMPLE = ML_20220720_18_SJD_0_LaB6-1mi
_+SAMPLE =
_SITE = USA
_USER = Administrator
_GONIOMETER_CODE = 20
; Goniometer : D8 theta/2theta, stage : Unknown
_ATTACHMENTS_CODE = 0
_GONIOMETER_RADIUS = 200.5
_FIXED_DIVSLIT = 0.6
_FIXED_SAMPLESLIT = 0
_SOLLER_SLITS = 2
_FIXED_DETSLIT = 9.55
_MONOCHROMATOR = 0
; Incident beam monochromator : None
_SOLLER_SLITS_2 = N
_THIN_FILM = N
_BETA_FILTER = Y
_FIXED_ANTISLIT = 5.89
_ANALYZER_CODE = 0
; Received beam analyzer : None
_DATEMEASURED = "25-Jul-2022 18:19:54"
_WL_UNIT = A
_WL1 = 1.5406
_WL2 = 1.54439
_WL3 = 1.39222
_WLRATIO = 0.5
_ANODE = Cu
_V4_INF_CREATOR = XRDWizard
_V4_INF_CREATOR_VERSION = V2.9.0.22
_V4_INF_WIZARD_VERSION = V2.9.0.22
_V4_INF_WIZARD_ADDINS = V2.9.0.22
_V4_INF_WIZARD_DOCTYPE = XRD
_V4_INF_OSUSER = McQueenLab
_V4_INF_USER = Administrator
_V4_INF_SITE = USA
_V4_INF_SAMPLEID = ML_20220720_18_SJD_0_LaB6-1mi

; Data for range 1
_DRIVE = COUPLED
_STEPTIME = 4.23
_STEPSIZE = 0.0185756
_STEPMODE = C
_START = 5
_THETA = 2.5
_2THETA = 5
_KHI = 0
_PHI = 0
_X = 0
_Y = 0
_Z = 0
_DETECTOR = 5
; Detector type : Unknown
_DETECTORSLIT = unkn
_AUX1 = 0
_AUX2 = 0
_AUX3 = 0
_TIMESTARTED = 15
_TEMP_RATE = -1
_TEMP_DELAY = -1
_KV = 40
_MA = 40
_RANGE_WL = 1.5406
_3DPLANE = 0
_V4_ADDITIONALDETECTOR = 257
_V4_PSD2THETA = 3.4307
_V4_PSDCHANNEL1 = 0
_V4_PSDAPERTURE = 12.68
_V4_PSDTYPE = 5
_V4_PSDFIXED = 0
_V4_COUNTERS_MASK = 4096
_V4_DRIVES_MASK = 0
_V4_ENCODERS_MASK = 0
_2THETACOUNTS = 1
; 2THETA  PSD
   5.0000         89
   5.0372        106
   5.0743         94
   5.1115        131
   5.1486         92
   5.1858         83
   5.2229         70
   5.2601         86
   5.2972        100
   5.3344        103
   5.3715         93
   5.4087         68
   5.4458         75
   5.4830         83
   5.5201         80
   5.5573         89
   5.5944         75
   5.6316         80
   5.6687         89
   5.7059         80
   5.7430         63
   5.7802         73
   5.8173         66
   5.8545         77
   5.8916         67
   5.9288         68
   5.9659         80
   6.0031         70
   6.0402         91
   6.0774         61
   6.1145         72
   6.1517         60
   6.1888         80
   6.2260         77
   6.2631         65
   6.3003         72
   6.3374         74
   6.3746         60
   6.4117         79
   6.4489         85
   6.4860         70
   6.5232         58
   6.5604         65
   6.5975         61
   6.6347         64
   6.6718         75
   6.7090         53
   6.7461         66
   6.7833         58
   6.8204         50
   6.8576         54
   6.8947         70
   6.9319         45
   6.9690         52
   7.0062         61
   7.0433         55
   7.0805         65
   7.1176         67
   7.1548         58
   7.1919         62
   7.2291         55
   7.2662         64
   7.3034         48
   7.3405         54
   7.3777         56
   7.4148         67
   7.4520         59
   7.4891         44
   7.5263         50
   7.5634         57
   7.6006         76
   7.6377         66
   7.6749         71
   7.7120         62
   7.7492         71
   7.7863         60
   7.8235         70
   7.8606         51
   7.8978         70
   7.9349         73
   7.9721         64
   8.0092         60
   8.0464         71
   8.0835         62
   8.1207         57
   8.1579         71
   8.1950         76
   8.2322         53
   8.2693         60
   8.3065         67
   8.3436         70
   8.3808         64
   8.4179         66
   8.4551         75
   8.4922         81
   8.5294         86
   8.5665         67
   8.6037         73
   8.6408         75
   8.6780         75
   8.7151         79
   8.7523         67
   8.7894         71
   8.8266         85
   8.8637         76
   8.9009         77
   8.9380         85
   8.9752         74
   9.0123         71
   9.0495         78
   9.0866         85
   9.1238         71
   9.1609         84
   9.1981         86
   9.2352         72
   9.2724         77
   9.3095         87
   9.3467        101
   9.3838         85
   9.4210         82
   9.4581         91
   9.4953         76
   9.5324         75
   9.5696         83
   9.6067         89
   9.6439         76
   9.6811         86
   9.7182         87
   9.7554         71
   9.7925         87
   9.8297         74
   9.8668         92
   9.9040         80
   9.9411         94
   9.9783         92
  10.0154         67
  10.0526         97
  10.0897         75
  10.1269        109
  10.1640         85
  10.2012         68
  10.2383         98
  10.2755         85
  10.3126         93
  10.3498         92
  10.3869        105
  10.4241         81
  10.4612         76
  10.4984         93
  10.5355         86
  10.5727         82
  10.6098         95
  10.6470         85
  10.6841         79
  10.7213         86
  10.7584         98
  10.7956         79
  10.8327         98
  10.8699         89
  10.9070         62
  10.9442         83
  10.9813         86
  11.0185         85
  11.0556         79
  11.0928         91
  11.1299         81
  11.1671         87
  11.2043         85
  11.2414        108
  11.2786         81
  11.3157         87
  11.3529         82
  11.3900         98
  11.4272         86
  11.4643         89
  11.5015         87
  11.5386         96
  11.5758         85
  11.6129         77
  11.6501         86
  11.6872        103
  11.7244         78
  11.7615         88
  11.7987         81
  11.8358         83
  11.8730         92
  11.9101         93
  11.9473         79
  11.9844         72
  12.0216         91
  12.0587         81
  12.0959         83
  12.1330         74
  12.1702         92
  12.2073         61
  12.2445         80
  12.2816         86
  12.3188        100
  12.3559         96
  12.3931         84
  12.4302         67
  12.4674         82
  12.5045         75
  12.5417         62
  12.5788         82
  12.6160         84
  12.6531         89
  12.6903        103
  12.7274         76
  12.7646         66
  12.8018         88
  12.8389         87
  12.8761         84
  12.9132         70
  12.9504         68
  12.9875         70
  13.0247         79
  13.0618         82
  13.0990         75
  13.1361         74
  13.1733         61
  13.2104         85
  13.2476         70
  13.2847         66
  13.3219         67
  13.3590         70
  13.3962         79
  13.4333         70
  13.4705         69
  13.5076         96
  13.5448         77
  13.5819         77
  13.6191         63
  13.6562         77
  13.6934         60
  13.7305         67
  13.7677         80
  13.8048         77
  13.8420         76
  13.8791         72
  13.9163         67
  13.9534         73
  13.9906         75
  14.0277         66
  14.0649         76
  14.1020         79
  14.1392         70
  14.1763         63
  14.2135         69
  14.2506         68
  14.2878         74
  14.3250         70
  14.3621         65
  14.3993         59
  14.4364         85
  14.4736         67
  14.5107         62
  14.5479         70
  14.5850         61
  14.6222         57
  14.6593         53
  14.6965         73
  14.7336         67
  14.7708         53
  14.8079         61
  14.8451         54
  14.8822         67
  14.9194         55
  14.9565         68
  14.9937         49
  15.0308         64
  15.0680         60
  15.1051         64
  15.1423         48
  15.1794         58
  15.2166         64
  15.2537         62
  15.2909         65
  15.3280         60
  15.3652         52
  15.4023         65
  15.4395         62
  15.4766         69
  15.5138         68
  15.5509         55
  15.5881         53
  15.6252         64
  15.6624         57
  15.6995         45
  15.7367         59
  15.7738         72
  15.8110         62
  15.8482         73
  15.8853         42
  15.9225         56
  15.9596         55
  15.9968         61
  16.0339         62
  16.0711         47
  16.1082         75
  16.1454         69
  16.1825         52
  16.2197         62
  16.2568         67
  16.2940         56
  16.3311         64
  16.3683         57
  16.4054         58
  16.4426         69
  16.4797         67
  16.5169         64
  16.5540         47
  16.5912         60
  16.6283         47
  16.6655         69
  16.7026         44
  16.7398         69
  16.7769         72
  16.8141         50
  16.8512         59
  16.8884         62
  16.9255         68
  16.9627         54
  16.9998         52
  17.0370         60
  17.0741         56
  17.1113         61
  17.1484         55
  17.1856         65
  17.2227         50
  17.2599         51
  17.2970         51
  17.3342         44
  17.3713         60
  17.4085         64
  17.4457         60
  17.4828         67
  17.5200         51
  17.5571         56
  17.5943         68
  17.6314         73
  17.6686         53
  17.7057         65
  17.7429         52
  17.7800         54
  17.8172         64
  17.8543         54
  17.8915         55
  17.9286         53
  17.9658         71
  18.0029         60
  18.0401         59
  18.0772         72
  18.1144         61
  18.1515         48
  18.1887         52
  18.2258         70
  18.2630         73
  18.3001         66
  18.3373         65
  18.3744         53
  18.4116         58
  18.4487         57
  18.4859         73
  18.5230         43
  18.5602         60
  18.5973         56
  18.6345         48
  18.6716         80
  18.7088         57
  18.7459         66
  18.7831         71
  18.8202         54
  18.8574         63
  18.8945         61
  18.9317         79
  18.9689         61
  19.0060         65
  19.0432         75
  19.0803         47
  19.1175         70
  19.1546         61
  19.1918         61
  19.2289         59
  19.2661         71
  19.3032         59
  19.3404         67
  19.3775         60
  19.4147         61
  19.4518         66
  19.4890         63
  19.5261         69
  19.5633         75
  19.6004         68
  19.6376         81
  19.6747         73
  19.7119         57
  19.7490         76
  19.7862         71
  19.8233         54
  19.8605         59
  19.8976         74
  19.9348         61
  19.9719         65
  20.0091         70
  20.0462         66
  20.0834         80
  20.1205         60
  20.1577         58
  20.1948         77
  20.2320         77
  20.2691         55
  20.3063         61
  20.3434         71
  20.3806         53
  20.4177         71
  20.4549         67
  20.4921         69
  20.5292         75
  20.5664         71
  20.6035         63
  20.6407         69
  20.6778         65
  20.7150         71
  20.7521         77
  20.7893         77
  20.8264         60
  20.8636         66
  20.9007         78
  20.9379         73
  20.9750         88
  21.0122         67
  21.0493         81
  21.0865         64
  21.1236         76
  21.1608         95
  21.1979        119
  21.2351        139
  21.2722         92
  21.3094        133
  21.3465        195
  21.3837        178
  21.4208        138
  21.4580         83
  21.4951         76
  21.5323         68
  21.5694         81
  21.6066         59
  21.6437         68
  21.6809         64
  21.7180         61
  21.7552         78
  21.7923         65
  21.8295         51
  21.8666         82
  21.9038         64
  21.9409         73
  21.9781         68
  22.0152         73
  22.0524         59
  22.0896         83
  22.1267         82
  22.1639         66
  22.2010         79
  22.2382         76
  22.2753         55
  22.3125         59
  22.3496         70
  22.3868         76
  22.4239         71
  22.4611         80
  22.4982         79
  22.5354         83
  22.5725         60
  22.6097         66
  22.6468         63
  22.6840         80
  22.7211         82
  22.7583         67
  22.7954         64
  22.8326         73
  22.8697         63
  22.9069         74
  22.9440         65
  22.9812         72
  23.0183         76
  23.0555         61
  23.0926        100
  23.1298         73
  23.1669         68
  23.2041         81
  23.2412         63
  23.2784         71
  23.3155         74
  23.3527         83
  23.3898         88
  23.4270         79
  23.4641         82
  23.5013         72
  23.5384         81
  23.5756         77
  23.6128         55
  23.6499         55
  23.6871         73
  23.7242         59
  23.7614         82
  23.7985         75
  23.8357         70
  23.8728         58
  23.9100         60
  23.9471         97
  23.9843         79
  24.0214         69
  24.0586         79
  24.0957         68
  24.1329         77
  24.1700         80
  24.2072         86
  24.2443         71
  24.2815         95
  24.3186         94
  24.3558         82
  24.3929         70
  24.4301         89
  24.4672         74
  24.5044         82
  24.5415         75
  24.5787         83
  24.6158         81
  24.6530         78
  24.6901         64
  24.7273         84
  24.7644         68
  24.8016         69
  24.8387         66
  24.8759         73
  24.9130         72
  24.9502         67
  24.9873         89
  25.0245         69
  25.0616         73
  25.0988         64
  25.1360         78
  25.1731         71
  25.2103         58
  25.2474         83
  25.2846         81
  25.3217         77
  25.3589         65
  25.3960         76
  25.4332         51
  25.4703         92
  25.5075         81
  25.5446         71
  25.5818         72
  25.6189         82
  25.6561         75
  25.6932         83
  25.7304         90
  25.7675         70
  25.8047         68
  25.8418         68
  25.8790         61
  25.9161         64
  25.9533         69
  25.9904         60
  26.0276         63
  26.0647         79
  26.1019         58
  26.1390         83
  26.1762         76
  26.2133         84
  26.2505         63
  26.2876         71
  26.3248         73
  26.3619         76
  26.3991         63
  26.4362         75
  26.4734         67
  26.5105         59
  26.5477         79
  26.5848         69
  26.6220         54
  26.6591         71
  26.6963         70
  26.7335         73
  26.7706         74
  26.8078         75
  26.8449         68
  26.8821         62
  26.9192         72
  26.9564         62
  26.9935         74
  27.0307         70
  27.0678         76
  27.1050         60
  27.1421         71
  27.1793         71
  27.2164         83
  27.2536         91
  27.2907         68
  27.3279         67
  27.3650         69
  27.4022         71
  27.4393         53
  27.4765         69
  27.5136         69
  27.5508         59
  27.5879         62
  27.6251         73
  27.6622         53
  27.6994         62
  27.7365         61
  27.7737         74
  27.8108         73
  27.8480         83
  27.8851         52
  27.9223         66
  27.9594         61
  27.9966         68
  28.0337         72
  28.0709         60
  28.1080         72
  28.1452         52
  28.1823         64
  28.2195         48
  28.2567         67
  28.2938         63
  28.3310         63
  28.3681         51
  28.4053         50
  28.4424         59
  28.4796         66
  28.5167         56
  28.5539         71
  28.5910         54
  28.6282         73
  28.6653         57
  28.7025         45
  28.7396         65
  28.7768         78
  28.8139         56
  28.8511         63
  28.8882         51
  28.9254         60
  28.9625         54
  28.9997         62
  29.0368         76
  29.0740         65
  29.1111         59
  29.1483         65
  29.1854         58
  29.2226         42
  29.2597         60
  29.2969         67
  29.3340         61
  29.3712         49
  29.4083         52
  29.4455         58
  29.4826         56
  29.5198         71
  29.5569         72
  29.5941         45
  29.6312         46
  29.6684         52
  29.7055         64
  29.7427         44
  29.7799         61
  29.8170         66
  29.8542         74
  29.8913         51
  29.9285         66
  29.9656         57
  30.0028         64
  30.0399         61
  30.0771         58
  30.1142         56
  30.1514         50
  30.1885         61
  30.2257         58
  30.2628         58
  30.3000         67
  30.3371         81
  30.3743        121
  30.4114        102
  30.4486         93
  30.4857         87
  30.5229         62
  30.5600         63
  30.5972         60
  30.6343         58
  30.6715         56
  30.7086         49
  30.7458         48
  30.7829         51
  30.8201         53
  30.8572         62
  30.8944         55
  30.9315         52
  30.9687         55
  31.0058         52
  31.0430         54
  31.0801         55
  31.1173         44
  31.1544         49
  31.1916         53
  31.2287         36
  31.2659         53
  31.3030         55
  31.3402         41
  31.3774         51
  31.4145         51
  31.4517         57
  31.4888         55
  31.5260         56
  31.5631         34
  31.6003         52
  31.6374         47
  31.6746         45
  31.7117         57
  31.7489         48
  31.7860         49
  31.8232         41
  31.8603         61
  31.8975         39
  31.9346         43
  31.9718         40
  32.0089         54
  32.0461         33
  32.0832         51
  32.1204         54
  32.1575         46
  32.1947         49
  32.2318         51
  32.2690         52
  32.3061         61
  32.3433         48
  32.3804         42
  32.4176         44
  32.4547         49
  32.4919         50
  32.5290         62
  32.5662         52
  32.6033         49
  32.6405         52
  32.6776         42
  32.7148         42
  32.7519         56
  32.7891         51
  32.8262         53
  32.8634         37
  32.9006         48
  32.9377         51
  32.9749         39
  33.0120         53
  33.0492         47
  33.0863         41
  33.1235         45
  33.1606         41
  33.1978         51
  33.2349         44
  33.2721         38
  33.3092         40
  33.3464         43
  33.3835         48
  33.4207         52
  33.4578         44
  33.4950         33
  33.5321         51
  33.5693         47
  33.6064         43
  33.6436         33
  33.6807         43
  33.7179         38
  33.7550         33
  33.7922         43
  33.8293         48
  33.8665         48
  33.9036         44
  33.9408         32
  33.9779         38
  34.0151         48
  34.0522         41
  34.0894         29
  34.1265         53
  34.1637         46
  34.2008         48
  34.2380         42
  34.2751         41
  34.3123         58
  34.3494         48
  34.3866         36
  34.4238         37
  34.4609         40
  34.4981         30
  34.5352         28
  34.5724         52
  34.6095         62
  34.6467         33
  34.6838         48
  34.7210         61
  34.7581         55
  34.7953         48
  34.8324         56
  34.8696         48
  34.9067         42
  34.9439         41
  34.9810         46
  35.0182         42
  35.0553         37
  35.0925         31
  35.1296         55
  35.1668         41
  35.2039         28
  35.2411         43
  35.2782         31
  35.3154         36
  35.3525         36
  35.3897         39
  35.4268         40
  35.4640         41
  35.5011         44
  35.5383         30
  35.5754         44
  35.6126         47
  35.6497         51
  35.6869         27
  35.7240         32
  35.7612         28
  35.7983         41
  35.8355         39
  35.8726         26
  35.9098         35
  35.9469         43
  35.9841         35
  36.0213         37
  36.0584         43
  36.0956         43
  36.1327         30
  36.1699         20
  36.2070         47
  36.2442         32
  36.2813         33
  36.3185         33
  36.3556         28
  36.3928         35
  36.4299         36
  36.4671         32
  36.5042         33
  36.5414         32
  36.5785         32
  36.6157         40
  36.6528         30
  36.6900         33
  36.7271         39
  36.7643         28
  36.8014         32
  36.8386         42
  36.8757         42
  36.9129         39
  36.9500         27
  36.9872         33
  37.0243         29
  37.0615         30
  37.0986         33
  37.1358         29
  37.1729         40
  37.2101         35
  37.2472         36
  37.2844         36
  37.3215         49
  37.3587         39
  37.3958         46
  37.4330         54
  37.4701         54
  37.5073         52
  37.5445         59
  37.5816         38
  37.6188         29
  37.6559         39
  37.6931         26
  37.7302         31
  37.7674         30
  37.8045         39
  37.8417         27
  37.8788         33
  37.9160         33
  37.9531         22
  37.9903         32
  38.0274         32
  38.0646         41
  38.1017         31
  38.1389         33
  38.1760         29
  38.2132         44
  38.2503         27
  38.2875         28
  38.3246         29
  38.3618         31
  38.3989         31
  38.4361         34
  38.4732         27
  38.5104         29
  38.5475         26
  38.5847         28
  38.6218         44
  38.6590         38
  38.6961         28
  38.7333         31
  38.7704         28
  38.8076         26
  38.8447         35
  38.8819         24
  38.9190         34
  38.9562         36
  38.9933         40
  39.0305         23
  39.0677         31
  39.1048         18
  39.1420         29
  39.1791         33
  39.2163         26
  39.2534         36
  39.2906         26
  39.3277         31
  39.3649         24
  39.4020         21
  39.4392         22
  39.4763         23
  39.5135         27
  39.5506         41
  39.5878         30
  39.6249         25
  39.6621         27
  39.6992         23
  39.7364         22
  39.7735         29
  39.8107         29
  39.8478         30
  39.8850         29
  39.9221         32
  39.9593         31
  39.9964         31
  40.0336         36
  40.0707         31
  40.1079         27
  40.1450         29
  40.1822         28
  40.2193         30
  40.2565         23
  40.2936         41
  40.3308         32
  40.3679         21
  40.4051         31
  40.4422         24
  40.4794         36
  40.5165         26
  40.5537         29
  40.5908         36
  40.6280         27
  40.6652         25
  40.7023         24
  40.7395         24
  40.7766         23
  40.8138         21
  40.8509         28
  40.8881         19
  40.9252         21
  40.9624         32
  40.9995         24
  41.0367         43
  41.0738         21
  41.1110         24
  41.1481         34
  41.1853         33
  41.2224         32
  41.2596         30
  41.2967         31
  41.3339         17
  41.3710         19
  41.4082         25
  41.4453         22
  41.4825         29
  41.5196         39
  41.5568         28
  41.5939         24
  41.6311         14
  41.6682         30
  41.7054         31
  41.7425         25
  41.7797         28
  41.8168         17
  41.8540         22
  41.8911         15
  41.9283         25
  41.9654         24
  42.0026         24
  42.0397         33
  42.0769         26
  42.1140         34
  42.1512         34
  42.1884         27
  42.2255         30
  42.2627         33
  42.2998         28
  42.3370         28
  42.3741         24
  42.4113         33
  42.4484         26
  42.4856         25
  42.5227         21
  42.5599         32
  42.5970         22
  42.6342         29
  42.6713         24
  42.7085         24
  42.7456         30
  42.7828         30
  42.8199         30
  42.8571         23
  42.8942         24
  42.9314         18
  42.9685         29
  43.0057         25
  43.0428         34
  43.0800         32
  43.1171         26
  43.1543         33
  43.1914         28
  43.2286         37
  43.2657         34
  43.3029         32
  43.3400         27
  43.3772         31
  43.4143         33
  43.4515         34
  43.4886         47
  43.5258         51
  43.5629         30
  43.6001         22
  43.6372         24
  43.6744         34
  43.7116         27
  43.7487         30
  43.7859         24
  43.8230         26
  43.8602         26
  43.8973         35
  43.9345         23
  43.9716         20
  44.0088         28
  44.0459         28
  44.0831         23
  44.1202         23
  44.1574         26
  44.1945         17
  44.2317         29
  44.2688         39
  44.3060         35
  44.3431         35
  44.3803         24
  44.4174         32
  44.4546         26
  44.4917         33
  44.5289         23
  44.5660         23
  44.6032         28
  44.6403         30
  44.6775         24
  44.7146         42
  44.7518         25
  44.7889         22
  44.8261         33
  44.8632         36
  44.9004         31
  44.9375         27
  44.9747         24
  45.0118         23
  45.0490         25
  45.0861         36
  45.1233         22
  45.1604         25
  45.1976         32
  45.2347         25
  45.2719         20
  45.3091         21
  45.3462         31
  45.3834         24
  45.4205         25
  45.4577         26
  45.4948         27
  45.5320         23
  45.5691         24
  45.6063         25
  45.6434         28
  45.6806         23
  45.7177         24
  45.7549         21
  45.7920         24
  45.8292         22
  45.8663         24
  45.9035         16
  45.9406         23
  45.9778         30
  46.0149         25
  46.0521         24
  46.0892         28
  46.1264         17
  46.1635         22
  46.2007         26
  46.2378         17
  46.2750         26
  46.3121         21
  46.3493         24
  46.3864         17
  46.4236         29
  46.4607         25
  46.4979         28
  46.5350         36
  46.5722         29
  46.6093         16
  46.6465         24
  46.6836         21
  46.7208         17
  46.7579         26
  46.7951         27
  46.8323         22
  46.8694         31
  46.9066         25
  46.9437         24
  46.9809         22
  47.0180         23
  47.0552         23
  47.0923         20
  47.1295         18
  47.1666         31
  47.2038         30
  47.2409         13
  47.2781         22
  47.3152         25
  47.3524         17
  47.3895         24
  47.4267         21
  47.4638         21
  47.5010         26
  47.5381         33
  47.5753         24
  47.6124         27
  47.6496         19
  47.6867         34
  47.7239         18
  47.7610         24
  47.7982         28
  47.8353         24
  47.8725         29
  47.9096         26
  47.9468         19
  47.9839         22
  48.0211         25
  48.0582         29
  48.0954         29
  48.1325         17
  48.1697         26
  48.2068         24
  48.2440         25
  48.2811         28
  48.3183         27
  48.3555         25
  48.3926         27
  48.4298         21
  48.4669         26
  48.5041         27
  48.5412         24
  48.5784         24
  48.6155         24
  48.6527         23
  48.6898         28
  48.7270         23
  48.7641         19
  48.8013         30
  48.8384         18
  48.8756         32
  48.9127         21
  48.9499         48
  48.9870         30
  49.0242         29
  49.0613         22
  49.0985         35
  49.1356         25
  49.1728         21
  49.2099         24
  49.2471         18
  49.2842         27
  49.3214         19
  49.3585         14
  49.3957         26
  49.4328         21
  49.4700         25
  49.5071         19
  49.5443         24
  49.5814         20
  49.6186         19
  49.6557         20
  49.6929         29
  49.7300         19
  49.7672         27
  49.8043         24
  49.8415         26
  49.8786         14
  49.9158         18
  49.9530         19
  49.9901         22
  50.0273         30
  50.0644         26
  50.1016         20
  50.1387         25
  50.1759         20
  50.2130         24
  50.2502         24
  50.2873         31
  50.3245         27
  50.3616         27
  50.3988         16
  50.4359         25
  50.4731         18
  50.5102         21
  50.5474         20
  50.5845         25
  50.6217         22
  50.6588         22
  50.6960         28
  50.7331         19
  50.7703         24
  50.8074         30
  50.8446         22
  50.8817         19
  50.9189         24
  50.9560         26
  50.9932         17
  51.0303         18
  51.0675         18
  51.1046         25
  51.1418         23
  51.1789         20
  51.2161         19
  51.2532         25
  51.2904         21
  51.3275         32
  51.3647         19
  51.4018         35
  51.4390         22
  51.4762         24
  51.5133         29
  51.5505         16
  51.5876         23
  51.6248         30
  51.6619         17
  51.6991         20
  51.7362         25
  51.7734         25
  51.8105         31
  51.8477         19
  51.8848         27
  51.9220         22
  51.9591         23
  51.9963         34
  52.0334         22
  52.0706         21
  52.1077         23
  52.1449         16
  52.1820         17
  52.2192         28
  52.2563         25
  52.2935         21
  52.3306         28
  52.3678         20
  52.4049         29
  52.4421         21
  52.4792         23
  52.5164         24
  52.5535         11
  52.5907         21
  52.6278         17
  52.6650         19
  52.7021         19
  52.7393         24
  52.7764         16
  52.8136         15
  52.8507         21
  52.8879         20
  52.9250         18
  52.9622         20
  52.9994         20
  53.0365         27
  53.0737         22
  53.1108         24
  53.1480         20
  53.1851         21
  53.2223         30
  53.2594         21
  53.2966         16
  53.3337         21
  53.3709         24
  53.4080         16
  53.4452         17
  53.4823         28
  53.5195         21
  53.5566         21
  53.5938         20
  53.6309         22
  53.6681         16
  53.7052         19
  53.7424         20
  53.7795         13
  53.8167         17
  53.8538         20
  53.8910         23
  53.9281         17
  53.9653         25
  54.0024         32
  54.0396         21
  54.0767         20
  54.1139         26
  54.1510         27
  54.1882         33
  54.2253         24
  54.2625         23
  54.2996         16
  54.3368         18
  54.3739         17
  54.4111         20
  54.4482         21
  54.4854         20
  54.5225         23
  54.5597         27
  54.5969         24
  54.6340         24
  54.6712         20
  54.7083         27
  54.7455         24
  54.7826         17
  54.8198         16
  54.8569         23
  54.8941         26
  54.9312         21
  54.9684         21
  55.0055         21
  55.0427         25
  55.0798         14
  55.1170         25
  55.1541         18
  55.1913         19
  55.2284         30
  55.2656         20
  55.3027         19
  55.3399         25
  55.3770         23
  55.4142         16
  55.4513         25
  55.4885         15
  55.5256         18
  55.5628         22
  55.5999         16
  55.6371         27
  55.6742         19
  55.7114         28
  55.7485         25
  55.7857         15
  55.8228         22
  55.8600         26
  55.8971         23
  55.9343         24
  55.9714         22
  56.0086         25
  56.0457         23
  56.0829         21
  56.1201         27
  56.1572         27
  56.1944         24
  56.2315         22
  56.2687         30
  56.3058         23
  56.3430         19
  56.3801         18
  56.4173         24
  56.4544         18
  56.4916         27
  56.5287         24
  56.5659         10
  56.6030         19
  56.6402         24
  56.6773         30
  56.7145         23
  56.7516         21
  56.7888         23
  56.8259         21
  56.8631         22
  56.9002         18
  56.9374         16
  56.9745         15
  57.0117         20
  57.0488         14
  57.0860         18
  57.1231         21
  57.1603         17
  57.1974         22
  57.2346         17
  57.2717         24
  57.3089         26
  57.3460         22
  57.3832         19
  57.4203         18
  57.4575         15
  57.4946         26
  57.5318         19
  57.5689         30
  57.6061         21
  57.6433         19
  57.6804         22
  57.7176         21
  57.7547         22
  57.7919         17
  57.8290         15
  57.8662         20
  57.9033         19
  57.9405         19
  57.9776         27
  58.0148         18
  58.0519         27
  58.0891         15
  58.1262         22
  58.1634         20
  58.2005         25
  58.2377         12
  58.2748         24
  58.3120         15
  58.3491         21
  58.3863         16
  58.4234         28
  58.4606         26
  58.4977         23
  58.5349         10
  58.5720         20
  58.6092         19
  58.6463         22
  58.6835         27
  58.7206         18
  58.7578         28
  58.7949         25
  58.8321         21
  58.8692         22
  58.9064         27
  58.9435         22
  58.9807         13
  59.0178         19
  59.0550         17
  59.0921         19
  59.1293         24
  59.1664         20
  59.2036         22
  59.2408         20
  59.2779         11
  59.3151         27
  59.3522         27
  59.3894         27
  59.4265         17
  59.4637         23
  59.5008         22
  59.5380         24
  59.5751         14
  59.6123         14
  59.6494         18
  59.6866         22
  59.7237         27
  59.7609         16
  59.7980         22
  59.8352         16
  59.8723         14
  59.9095         16
  59.9466         18
  59.9838         23
  60.0024         19