File: notebooks/data/xrd_data/ML_20220721_26_SJD_4_LaB6-4min.csv
;,2THETA,
5.0000,289
5.0372,273
5.0743,264
5.1115,265
5.1486,260
5.1858,240
5.2229,256
5.2601,247
5.2972,252
5.3344,246
5.3715,223
5.4087,204
5.4458,235
5.4830,227
5.5201,231
5.5573,224
5.5944,224
5.6316,219
5.6687,221
5.7059,199
5.7430,238
5.7802,221
5.8173,203
5.8545,200
5.8916,213
5.9288,204
5.9659,219
6.0031,205
6.0402,200
6.0774,182
6.1145,206
6.1517,213
6.1888,174
6.2260,193
6.2631,206
6.3003,169
6.3374,166
6.3746,180
6.4117,191
6.4489,170
6.4860,177
6.5232,178
6.5604,177
6.5975,178
6.6347,179
6.6718,174
6.7090,169
6.7461,170
6.7833,177
6.8204,167
6.8576,152
6.8947,168
6.9319,161
6.9690,178
7.0062,180
7.0433,168
7.0805,142
7.1176,176
7.1548,162
7.1919,162
7.2291,157
7.2662,151
7.3034,159
7.3405,145
7.3777,152
7.4148,149
7.4520,186
7.4891,176
7.5263,177
7.5634,182
7.6006,169
7.6377,168
7.6749,205
7.7120,187
7.7492,197
7.7863,177
7.8235,189
7.8606,185
7.8978,165
7.9349,193
7.9721,204
8.0092,197
8.0464,195
8.0835,184
8.1207,219
8.1579,191
8.1950,199
8.2322,172
8.2693,171
8.3065,192
8.3436,189
8.3808,207
8.4179,192
8.4551,191
8.4922,183
8.5294,181
8.5665,199
8.6037,207
8.6408,202
8.6780,201
8.7151,212
8.7523,196
8.7894,203
8.8266,205
8.8637,216
8.9009,205
8.9380,236
8.9752,215
9.0123,201
9.0495,223
9.0866,226
9.1238,176
9.1609,207
9.1981,221
9.2352,215
9.2724,211
9.3095,212
9.3467,241
9.3838,200
9.4210,218
9.4581,225
9.4953,211
9.5324,225
9.5696,229
9.6067,204
9.6439,226
9.6811,216
9.7182,251
9.7554,257
9.7925,220
9.8297,228
9.8668,245
9.9040,243
9.9411,253
9.9783,259
10.0154,225
10.0526,207
10.0897,239
10.1269,217
10.1640,252
10.2012,240
10.2383,249
10.2755,246
10.3126,224
10.3498,220
10.3869,227
10.4241,264
10.4612,228
10.4984,254
10.5355,228
10.5727,234
10.6098,232
10.6470,239
10.6841,238
10.7213,235
10.7584,260
10.7956,236
10.8327,265
10.8699,250
10.9070,264
10.9442,226
10.9813,252
11.0185,267
11.0556,256
11.0928,224
11.1299,221
11.1671,238
11.2043,235
11.2414,271
11.2786,254
11.3157,230
11.3529,254
11.3900,220
11.4272,233
11.4643,234
11.5015,235
11.5386,249
11.5758,230
11.6129,250
11.6501,255
11.6872,237
11.7244,248
11.7615,235
11.7987,241
11.8358,226
11.8730,228
11.9101,241
11.9473,211
11.9844,215
12.0216,231
12.0587,192
12.0959,252
12.1330,201
12.1702,233
12.2073,221
12.2445,212
12.2816,227
12.3188,219
12.3559,231
12.3931,231
12.4302,205
12.4674,248
12.5045,222
12.5417,215
12.5788,207
12.6160,246
12.6531,229
12.6903,201
12.7274,198
12.7646,205
12.8018,191
12.8389,217
12.8761,194
12.9132,199
12.9504,187
12.9875,230
13.0247,222
13.0618,224
13.0990,206
13.1361,217
13.1733,199
13.2104,199
13.2476,214
13.2847,194
13.3219,195
13.3590,181
13.3962,197
13.4333,197
13.4705,177
13.5076,204
13.5448,182
13.5819,214
13.6191,193
13.6562,197
13.6934,210
13.7305,196
13.7677,201
13.8048,159
13.8420,187
13.8791,197
13.9163,162
13.9534,183
13.9906,216
14.0277,187
14.0649,188
14.1020,155
14.1392,174
14.1763,178
14.2135,177
14.2506,178
14.2878,194
14.3250,175
14.3621,195
14.3993,160
14.4364,181
14.4736,152
14.5107,202
14.5479,183
14.5850,169
14.6222,170
14.6593,154
14.6965,173
14.7336,186
14.7708,175
14.8079,194
14.8451,163
14.8822,177
14.9194,161
14.9565,180
14.9937,162
15.0308,170
15.0680,154
15.1051,185
15.1423,166
15.1794,166
15.2166,166
15.2537,163
15.2909,164
15.3280,176
15.3652,158
15.4023,164
15.4395,151
15.4766,177
15.5138,155
15.5509,167
15.5881,161
15.6252,173
15.6624,178
15.6995,149
15.7367,174
15.7738,160
15.8110,163
15.8482,156
15.8853,157
15.9225,174
15.9596,146
15.9968,151
16.0339,183
16.0711,162
16.1082,175
16.1454,159
16.1825,155
16.2197,170
16.2568,156
16.2940,157
16.3311,173
16.3683,144
16.4054,155
16.4426,167
16.4797,173
16.5169,188
16.5540,166
16.5912,151
16.6283,159
16.6655,169
16.7026,152
16.7398,156
16.7769,159
16.8141,144
16.8512,171
16.8884,131
16.9255,175
16.9627,160
16.9998,159
17.0370,146
17.0741,157
17.1113,188
17.1484,175
17.1856,170
17.2227,169
17.2599,150
17.2970,172
17.3342,160
17.3713,178
17.4085,176
17.4457,166
17.4828,173
17.5200,173
17.5571,135
17.5943,182
17.6314,178
17.6686,170
17.7057,173
17.7429,153
17.7800,160
17.8172,156
17.8543,156
17.8915,158
17.9286,155
17.9658,163
18.0029,165
18.0401,174
18.0772,173
18.1144,156
18.1515,168
18.1887,183
18.2258,159
18.2630,152
18.3001,166
18.3373,144
18.3744,159
18.4116,160
18.4487,181
18.4859,166
18.5230,155
18.5602,154
18.5973,162
18.6345,170
18.6716,195
18.7088,168
18.7459,158
18.7831,148
18.8202,153
18.8574,163
18.8945,166
18.9317,186
18.9689,162
19.0060,166
19.0432,180
19.0803,180
19.1175,158
19.1546,180
19.1918,176
19.2289,180
19.2661,175
19.3032,193
19.3404,180
19.3775,158
19.4147,184
19.4518,187
19.4890,214
19.5261,179
19.5633,159
19.6004,169
19.6376,187
19.6747,167
19.7119,200
19.7490,191
19.7862,172
19.8233,179
19.8605,146
19.8976,170
19.9348,177
19.9719,190
20.0091,168
20.0462,199
20.0834,173
20.1205,184
20.1577,153
20.1948,182
20.2320,176
20.2691,192
20.3063,180
20.3434,167
20.3806,159
20.4177,187
20.4549,192
20.4921,187
20.5292,213
20.5664,203
20.6035,191
20.6407,217
20.6778,169
20.7150,178
20.7521,209
20.7893,187
20.8264,203
20.8636,196
20.9007,162
20.9379,177
20.9750,206
21.0122,181
21.0493,185
21.0865,240
21.1236,197
21.1608,226
21.1979,297
21.2351,325
21.2722,295
21.3094,315
21.3465,542
21.3837,428
21.4208,350
21.4580,239
21.4951,194
21.5323,205
21.5694,192
21.6066,223
21.6437,205
21.6809,210
21.7180,191
21.7552,180
21.7923,205
21.8295,213
21.8666,208
21.9038,229
21.9409,185
21.9781,168
22.0152,195
22.0524,219
22.0896,196
22.1267,207
22.1639,195
22.2010,199
22.2382,196
22.2753,197
22.3125,201
22.3496,198
22.3868,193
22.4239,204
22.4611,203
22.4982,187
22.5354,208
22.5725,194
22.6097,204
22.6468,212
22.6840,195
22.7211,202
22.7583,210
22.7954,218
22.8326,187
22.8697,224
22.9069,167
22.9440,189
22.9812,214
23.0183,190
23.0555,196
23.0926,204
23.1298,193
23.1669,191
23.2041,202
23.2412,209
23.2784,172
23.3155,207
23.3527,217
23.3898,188
23.4270,201
23.4641,205
23.5013,198
23.5384,192
23.5756,184
23.6128,185
23.6499,210
23.6871,196
23.7242,200
23.7614,235
23.7985,213
23.8357,219
23.8728,194
23.9100,187
23.9471,237
23.9843,211
24.0214,190
24.0586,245
24.0957,216
24.1329,204
24.1700,186
24.2072,210
24.2443,211
24.2815,265
24.3186,209
24.3558,240
24.3929,203
24.4301,207
24.4672,241
24.5044,179
24.5415,211
24.5787,195
24.6158,190
24.6530,209
24.6901,178
24.7273,187
24.7644,198
24.8016,204
24.8387,222
24.8759,221
24.9130,208
24.9502,200
24.9873,175
25.0245,198
25.0616,213
25.0988,196
25.1360,211
25.1731,200
25.2103,206
25.2474,185
25.2846,230
25.3217,191
25.3589,211
25.3960,208
25.4332,196
25.4703,190
25.5075,208
25.5446,214
25.5818,195
25.6189,202
25.6561,204
25.6932,215
25.7304,185
25.7675,196
25.8047,201
25.8418,229
25.8790,203
25.9161,219
25.9533,160
25.9904,186
26.0276,169
26.0647,201
26.1019,194
26.1390,196
26.1762,207
26.2133,193
26.2505,178
26.2876,183
26.3248,197
26.3619,188
26.3991,185
26.4362,200
26.4734,193
26.5105,166
26.5477,182
26.5848,193
26.6220,181
26.6591,174
26.6963,204
26.7335,212
26.7706,178
26.8078,180
26.8449,189
26.8821,201
26.9192,188
26.9564,183
26.9935,195
27.0307,194
27.0678,202
27.1050,168
27.1421,219
27.1793,215
27.2164,230
27.2536,233
27.2907,198
27.3279,241
27.3650,201
27.4022,176
27.4393,172
27.4765,200
27.5136,164
27.5508,167
27.5879,180
27.6251,192
27.6622,217
27.6994,194
27.7365,185
27.7737,166
27.8108,167
27.8480,177
27.8851,187
27.9223,176
27.9594,189
27.9966,205
28.0337,180
28.0709,169
28.1080,178
28.1452,167
28.1823,171
28.2195,174
28.2567,172
28.2938,171
28.3310,174
28.3681,180
28.4053,171
28.4424,190
28.4796,179
28.5167,175
28.5539,155
28.5910,188
28.6282,174
28.6653,181
28.7025,176
28.7396,166
28.7768,174
28.8139,182
28.8511,173
28.8882,181
28.9254,165
28.9625,158
28.9997,161
29.0368,174
29.0740,162
29.1111,133
29.1483,178
29.1854,160
29.2226,165
29.2597,155
29.2969,164
29.3340,157
29.3712,149
29.4083,185
29.4455,165
29.4826,149
29.5198,169
29.5569,162
29.5941,163
29.6312,142
29.6684,138
29.7055,164
29.7427,150
29.7799,154
29.8170,157
29.8542,153
29.8913,171
29.9285,178
29.9656,153
30.0028,167
30.0399,163
30.0771,164
30.1142,152
30.1514,148
30.1885,154
30.2257,176
30.2628,164
30.3000,158
30.3371,215
30.3743,312
30.4114,284
30.4486,239
30.4857,226
30.5229,192
30.5600,151
30.5972,159
30.6343,163
30.6715,158
30.7086,172
30.7458,155
30.7829,157
30.8201,166
30.8572,136
30.8944,133
30.9315,152
30.9687,140
31.0058,144
31.0430,133
31.0801,156
31.1173,123
31.1544,149
31.1916,143
31.2287,150
31.2659,144
31.3030,162
31.3402,151
31.3774,125
31.4145,153
31.4517,170
31.4888,136
31.5260,135
31.5631,127
31.6003,135
31.6374,129
31.6746,146
31.7117,160
31.7489,135
31.7860,132
31.8232,143
31.8603,139
31.8975,128
31.9346,134
31.9718,136
32.0089,143
32.0461,133
32.0832,153
32.1204,163
32.1575,119
32.1947,149
32.2318,144
32.2690,119
32.3061,114
32.3433,143
32.3804,139
32.4176,152
32.4547,160
32.4919,154
32.5290,148
32.5662,138
32.6033,140
32.6405,128
32.6776,125
32.7148,121
32.7519,122
32.7891,119
32.8262,120
32.8634,145
32.9006,124
32.9377,153
32.9749,146
33.0120,111
33.0492,119
33.0863,129
33.1235,134
33.1606,139
33.1978,100
33.2349,114
33.2721,145
33.3092,112
33.3464,106
33.3835,117
33.4207,133
33.4578,136
33.4950,130
33.5321,130
33.5693,129
33.6064,114
33.6436,121
33.6807,127
33.7179,132
33.7550,115
33.7922,112
33.8293,117
33.8665,89
33.9036,129
33.9408,113
33.9779,97
34.0151,121
34.0522,119
34.0894,127
34.1265,119
34.1637,112
34.2008,121
34.2380,122
34.2751,116
34.3123,125
34.3494,125
34.3866,116
34.4238,120
34.4609,105
34.4981,98
34.5352,108
34.5724,123
34.6095,112
34.6467,135
34.6838,128
34.7210,152
34.7581,147
34.7953,169
34.8324,164
34.8696,133
34.9067,136
34.9439,122
34.9810,115
35.0182,117
35.0553,100
35.0925,100
35.1296,113
35.1668,106
35.2039,105
35.2411,101
35.2782,94
35.3154,95
35.3525,108
35.3897,105
35.4268,97
35.4640,99
35.5011,103
35.5383,118
35.5754,125
35.6126,105
35.6497,117
35.6869,111
35.7240,102
35.7612,81
35.7983,92
35.8355,109
35.8726,117
35.9098,80
35.9469,101
35.9841,94
36.0213,107
36.0584,110
36.0956,115
36.1327,95
36.1699,105
36.2070,86
36.2442,91
36.2813,94
36.3185,84
36.3556,95
36.3928,95
36.4299,101
36.4671,104
36.5042,96
36.5414,111
36.5785,95
36.6157,104
36.6528,99
36.6900,94
36.7271,100
36.7643,90
36.8014,92
36.8386,100
36.8757,84
36.9129,101
36.9500,95
36.9872,86
37.0243,78
37.0615,91
37.0986,113
37.1358,98
37.1729,83
37.2101,72
37.2472,106
37.2844,88
37.3215,84
37.3587,98
37.3958,117
37.4330,133
37.4701,116
37.5073,109
37.5445,109
37.5816,116
37.6188,93
37.6559,90
37.6931,101
37.7302,85
37.7674,89
37.8045,88
37.8417,65
37.8788,74
37.9160,88
37.9531,94
37.9903,98
38.0274,86
38.0646,91
38.1017,88
38.1389,80
38.1760,82
38.2132,76
38.2503,89
38.2875,78
38.3246,88
38.3618,80
38.3989,75
38.4361,74
38.4732,76
38.5104,68
38.5475,84
38.5847,84
38.6218,97
38.6590,83
38.6961,81
38.7333,77
38.7704,69
38.8076,86
38.8447,89
38.8819,103
38.9190,81
38.9562,81
38.9933,83
39.0305,71
39.0677,93
39.1048,87
39.1420,113
39.1791,93
39.2163,84
39.2534,71
39.2906,84
39.3277,74
39.3649,80
39.4020,88
39.4392,98
39.4763,65
39.5135,62
39.5506,67
39.5878,92
39.6249,87
39.6621,68
39.6992,80
39.7364,75
39.7735,72
39.8107,87
39.8478,80
39.8850,73
39.9221,81
39.9593,78
39.9964,75
40.0336,99
40.0707,73
40.1079,90
40.1450,69
40.1822,91
40.2193,73
40.2565,67
40.2936,83
40.3308,103
40.3679,72
40.4051,74
40.4422,71
40.4794,96
40.5165,69
40.5537,76
40.5908,71
40.6280,91
40.6652,73
40.7023,75
40.7395,81
40.7766,78
40.8138,81
40.8509,88
40.8881,85
40.9252,108
40.9624,93
40.9995,75
41.0367,80
41.0738,80
41.1110,79
41.1481,97
41.1853,83
41.2224,74
41.2596,71
41.2967,84
41.3339,71
41.3710,83
41.4082,70
41.4453,84
41.4825,61
41.5196,74
41.5568,71
41.5939,67
41.6311,70
41.6682,56
41.7054,83
41.7425,76
41.7797,87
41.8168,79
41.8540,69
41.8911,78
41.9283,66
41.9654,61
42.0026,78
42.0397,93
42.0769,60
42.1140,77
42.1512,80
42.1884,61
42.2255,78
42.2627,76
42.2998,85
42.3370,76
42.3741,59
42.4113,77
42.4484,68
42.4856,52
42.5227,70
42.5599,102
42.5970,66
42.6342,80
42.6713,75
42.7085,68
42.7456,75
42.7828,86
42.8199,70
42.8571,75
42.8942,81
42.9314,75
42.9685,81
43.0057,78
43.0428,74
43.0800,72
43.1171,89
43.1543,88
43.1914,94
43.2286,85
43.2657,72
43.3029,83
43.3400,78
43.3772,80
43.4143,78
43.4515,99
43.4886,127
43.5258,136
43.5629,78
43.6001,86
43.6372,92
43.6744,69
43.7116,93
43.7487,98
43.7859,80
43.8230,79
43.8602,66
43.8973,65
43.9345,94
43.9716,87
44.0088,70
44.0459,92
44.0831,86
44.1202,76
44.1574,79
44.1945,74
44.2317,64
44.2688,78
44.3060,73
44.3431,85
44.3803,81
44.4174,69
44.4546,68
44.4917,73
44.5289,73
44.5660,60
44.6032,96
44.6403,82
44.6775,83
44.7146,79
44.7518,90
44.7889,74
44.8261,96
44.8632,74
44.9004,73
44.9375,67
44.9747,72
45.0118,86
45.0490,50
45.0861,77
45.1233,75
45.1604,65
45.1976,59
45.2347,78
45.2719,73
45.3091,58
45.3462,56
45.3834,67
45.4205,66
45.4577,70
45.4948,64
45.5320,76
45.5691,55
45.6063,71
45.6434,59
45.6806,69
45.7177,61
45.7549,70
45.7920,73
45.8292,65
45.8663,61
45.9035,62
45.9406,56
45.9778,77
46.0149,52
46.0521,62
46.0892,62
46.1264,66
46.1635,61
46.2007,68
46.2378,69
46.2750,73
46.3121,60
46.3493,63
46.3864,84
46.4236,45
46.4607,54
46.4979,66
46.5350,60
46.5722,61
46.6093,65
46.6465,70
46.6836,59
46.7208,62
46.7579,73
46.7951,65
46.8323,62
46.8694,90
46.9066,66
46.9437,51
46.9809,64
47.0180,63
47.0552,77
47.0923,68
47.1295,65
47.1666,84
47.2038,63
47.2409,61
47.2781,69
47.3152,52
47.3524,78
47.3895,71
47.4267,64
47.4638,81
47.5010,67
47.5381,78
47.5753,69
47.6124,69
47.6496,64
47.6867,63
47.7239,72
47.7610,68
47.7982,52
47.8353,59
47.8725,51
47.9096,55
47.9468,52
47.9839,63
48.0211,69
48.0582,58
48.0954,73
48.1325,78
48.1697,50
48.2068,65
48.2440,58
48.2811,66
48.3183,65
48.3555,58
48.3926,60
48.4298,71
48.4669,64
48.5041,58
48.5412,51
48.5784,78
48.6155,60
48.6527,55
48.6898,70
48.7270,64
48.7641,79
48.8013,89
48.8384,70
48.8756,53
48.9127,94
48.9499,107
48.9870,86
49.0242,85
49.0613,78
49.0985,96
49.1356,60
49.1728,56
49.2099,64
49.2471,67
49.2842,87
49.3214,65
49.3585,70
49.3957,68
49.4328,62
49.4700,59
49.5071,65
49.5443,65
49.5814,62
49.6186,47
49.6557,58
49.6929,62
49.7300,59
49.7672,59
49.8043,69
49.8415,57
49.8786,74
49.9158,54
49.9530,65
49.9901,59
50.0273,53
50.0644,52
50.1016,62
50.1387,76
50.1759,58
50.2130,68
50.2502,53
50.2873,63
50.3245,69
50.3616,58
50.3988,69
50.4359,71
50.4731,80
50.5102,68
50.5474,53
50.5845,63
50.6217,64
50.6588,58
50.6960,57
50.7331,54
50.7703,47
50.8074,56
50.8446,55
50.8817,67
50.9189,64
50.9560,55
50.9932,62
51.0303,75
51.0675,60
51.1046,56
51.1418,61
51.1789,52
51.2161,61
51.2532,65
51.2904,65
51.3275,67
51.3647,61
51.4018,70
51.4390,68
51.4762,78
51.5133,68
51.5505,66
51.5876,62
51.6248,69
51.6619,59
51.6991,50
51.7362,64
51.7734,52
51.8105,69
51.8477,64
51.8848,77
51.9220,69
51.9591,62
51.9963,70
52.0334,69
52.0706,62
52.1077,62
52.1449,62
52.1820,57
52.2192,53
52.2563,58
52.2935,68
52.3306,68
52.3678,72
52.4049,56
52.4421,54
52.4792,72
52.5164,61
52.5535,65
52.5907,58
52.6278,56
52.6650,62
52.7021,48
52.7393,55
52.7764,64
52.8136,51
52.8507,60
52.8879,56
52.9250,65
52.9622,60
52.9994,81
53.0365,64
53.0737,63
53.1108,43
53.1480,66
53.1851,59
53.2223,52
53.2594,80
53.2966,66
53.3337,46
53.3709,76
53.4080,53
53.4452,64
53.4823,67
53.5195,62
53.5566,43
53.5938,68
53.6309,69
53.6681,60
53.7052,54
53.7424,59
53.7795,63
53.8167,52
53.8538,54
53.8910,46
53.9281,70
53.9653,63
54.0024,104
54.0396,67
54.0767,58
54.1139,60
54.1510,61
54.1882,48
54.2253,64
54.2625,59
54.2996,48
54.3368,51
54.3739,55
54.4111,67
54.4482,64
54.4854,58
54.5225,71
54.5597,51
54.5969,59
54.6340,53
54.6712,46
54.7083,70
54.7455,61
54.7826,45
54.8198,62
54.8569,41
54.8941,67
54.9312,65
54.9684,65
55.0055,58
55.0427,66
55.0798,65
55.1170,56
55.1541,47
55.1913,61
55.2284,68
55.2656,54
55.3027,65
55.3399,49
55.3770,44
55.4142,54
55.4513,57
55.4885,53
55.5256,53
55.5628,61
55.5999,56
55.6371,45
55.6742,62
55.7114,52
55.7485,59
55.7857,64
55.8228,57
55.8600,52
55.8971,56
55.9343,61
55.9714,50
56.0086,51
56.0457,63
56.0829,60
56.1201,47
56.1572,51
56.1944,58
56.2315,62
56.2687,54
56.3058,74
56.3430,58
56.3801,58
56.4173,63
56.4544,56
56.4916,48
56.5287,48
56.5659,63
56.6030,66
56.6402,62
56.6773,51
56.7145,59
56.7516,52
56.7888,54
56.8259,52
56.8631,52
56.9002,55
56.9374,63
56.9745,48
57.0117,70
57.0488,51
57.0860,53
57.1231,59
57.1603,59
57.1974,52
57.2346,49
57.2717,41
57.3089,56
57.3460,55
57.3832,55
57.4203,59
57.4575,57
57.4946,56
57.5318,55
57.5689,50
57.6061,68
57.6433,65
57.6804,57
57.7176,65
57.7547,50
57.7919,47
57.8290,65
57.8662,51
57.9033,71
57.9405,60
57.9776,43
58.0148,50
58.0519,57
58.0891,53
58.1262,62
58.1634,53
58.2005,55
58.2377,55
58.2748,49
58.3120,54
58.3491,52
58.3863,45
58.4234,52
58.4606,53
58.4977,56
58.5349,58
58.5720,50
58.6092,60
58.6463,55
58.6835,50
58.7206,61
58.7578,42
58.7949,54
58.8321,53
58.8692,50
58.9064,53
58.9435,61
58.9807,66
59.0178,59
59.0550,60
59.0921,44
59.1293,66
59.1664,46
59.2036,40
59.2408,55
59.2779,54
59.3151,64
59.3522,59
59.3894,52
59.4265,49
59.4637,68
59.5008,53
59.5380,56
59.5751,59
59.6123,61
59.6494,59
59.6866,48
59.7237,56
59.7609,60
59.7980,48
59.8352,57
59.8723,53
59.9095,46
59.9466,53
59.9838,59
60.0024,52