File: notebooks/data/xrd_data/ML_20220718_52_SJD_4_LaB6-1min.csv
;,2THETA,
5.0000,88
5.0372,97
5.0743,94
5.1115,109
5.1486,94
5.1858,90
5.2229,100
5.2601,87
5.2972,84
5.3344,95
5.3715,88
5.4087,81
5.4458,68
5.4830,74
5.5201,79
5.5573,80
5.5944,75
5.6316,77
5.6687,68
5.7059,83
5.7430,72
5.7802,68
5.8173,78
5.8545,74
5.8916,79
5.9288,76
5.9659,73
6.0031,63
6.0402,60
6.0774,56
6.1145,60
6.1517,63
6.1888,70
6.2260,60
6.2631,73
6.3003,79
6.3374,57
6.3746,60
6.4117,65
6.4489,68
6.4860,60
6.5232,69
6.5604,67
6.5975,75
6.6347,60
6.6718,68
6.7090,49
6.7461,62
6.7833,66
6.8204,80
6.8576,50
6.8947,76
6.9319,55
6.9690,59
7.0062,40
7.0433,71
7.0805,75
7.1176,49
7.1548,54
7.1919,51
7.2291,57
7.2662,50
7.3034,59
7.3405,60
7.3777,68
7.4148,64
7.4520,53
7.4891,71
7.5263,64
7.5634,65
7.6006,51
7.6377,60
7.6749,57
7.7120,76
7.7492,77
7.7863,70
7.8235,60
7.8606,67
7.8978,60
7.9349,69
7.9721,60
8.0092,77
8.0464,66
8.0835,68
8.1207,65
8.1579,72
8.1950,77
8.2322,70
8.2693,90
8.3065,70
8.3436,80
8.3808,68
8.4179,84
8.4551,72
8.4922,80
8.5294,68
8.5665,76
8.6037,68
8.6408,65
8.6780,68
8.7151,85
8.7523,97
8.7894,74
8.8266,76
8.8637,101
8.9009,79
8.9380,77
8.9752,100
9.0123,83
9.0495,78
9.0866,84
9.1238,70
9.1609,81
9.1981,79
9.2352,73
9.2724,90
9.3095,74
9.3467,84
9.3838,95
9.4210,65
9.4581,88
9.4953,76
9.5324,95
9.5696,62
9.6067,108
9.6439,92
9.6811,86
9.7182,91
9.7554,86
9.7925,85
9.8297,85
9.8668,61
9.9040,88
9.9411,97
9.9783,93
10.0154,106
10.0526,79
10.0897,93
10.1269,86
10.1640,72
10.2012,81
10.2383,81
10.2755,84
10.3126,77
10.3498,94
10.3869,75
10.4241,85
10.4612,97
10.4984,82
10.5355,99
10.5727,88
10.6098,84
10.6470,84
10.6841,104
10.7213,96
10.7584,70
10.7956,82
10.8327,89
10.8699,87
10.9070,95
10.9442,80
10.9813,87
11.0185,81
11.0556,78
11.0928,92
11.1299,99
11.1671,84
11.2043,77
11.2414,79
11.2786,88
11.3157,89
11.3529,80
11.3900,74
11.4272,80
11.4643,90
11.5015,77
11.5386,83
11.5758,86
11.6129,92
11.6501,100
11.6872,95
11.7244,83
11.7615,85
11.7987,99
11.8358,104
11.8730,103
11.9101,83
11.9473,84
11.9844,84
12.0216,80
12.0587,75
12.0959,84
12.1330,89
12.1702,83
12.2073,79
12.2445,76
12.2816,79
12.3188,80
12.3559,82
12.3931,82
12.4302,67
12.4674,72
12.5045,67
12.5417,86
12.5788,80
12.6160,58
12.6531,65
12.6903,84
12.7274,78
12.7646,89
12.8018,77
12.8389,82
12.8761,68
12.9132,76
12.9504,65
12.9875,69
13.0247,86
13.0618,64
13.0990,72
13.1361,61
13.1733,86
13.2104,76
13.2476,79
13.2847,65
13.3219,72
13.3590,85
13.3962,87
13.4333,75
13.4705,59
13.5076,61
13.5448,69
13.5819,76
13.6191,65
13.6562,79
13.6934,88
13.7305,83
13.7677,70
13.8048,76
13.8420,70
13.8791,61
13.9163,68
13.9534,61
13.9906,39
14.0277,75
14.0649,91
14.1020,80
14.1392,74
14.1763,70
14.2135,75
14.2506,67
14.2878,66
14.3250,61
14.3621,66
14.3993,67
14.4364,58
14.4736,81
14.5107,58
14.5479,54
14.5850,56
14.6222,57
14.6593,56
14.6965,52
14.7336,66
14.7708,74
14.8079,53
14.8451,57
14.8822,78
14.9194,72
14.9565,60
14.9937,65
15.0308,71
15.0680,60
15.1051,57
15.1423,60
15.1794,66
15.2166,56
15.2537,74
15.2909,57
15.3280,60
15.3652,63
15.4023,61
15.4395,60
15.4766,64
15.5138,69
15.5509,64
15.5881,64
15.6252,65
15.6624,59
15.6995,54
15.7367,71
15.7738,64
15.8110,59
15.8482,54
15.8853,51
15.9225,54
15.9596,70
15.9968,52
16.0339,71
16.0711,46
16.1082,57
16.1454,54
16.1825,48
16.2197,50
16.2568,61
16.2940,58
16.3311,59
16.3683,63
16.4054,61
16.4426,60
16.4797,58
16.5169,56
16.5540,53
16.5912,55
16.6283,51
16.6655,60
16.7026,52
16.7398,67
16.7769,56
16.8141,58
16.8512,71
16.8884,66
16.9255,61
16.9627,65
16.9998,63
17.0370,78
17.0741,70
17.1113,62
17.1484,61
17.1856,55
17.2227,60
17.2599,67
17.2970,56
17.3342,61
17.3713,54
17.4085,65
17.4457,45
17.4828,57
17.5200,75
17.5571,56
17.5943,62
17.6314,64
17.6686,66
17.7057,38
17.7429,57
17.7800,56
17.8172,60
17.8543,69
17.8915,78
17.9286,75
17.9658,62
18.0029,65
18.0401,43
18.0772,64
18.1144,68
18.1515,64
18.1887,59
18.2258,70
18.2630,67
18.3001,70
18.3373,62
18.3744,62
18.4116,54
18.4487,47
18.4859,57
18.5230,55
18.5602,69
18.5973,63
18.6345,55
18.6716,48
18.7088,61
18.7459,58
18.7831,55
18.8202,61
18.8574,64
18.8945,52
18.9317,68
18.9689,75
19.0060,60
19.0432,69
19.0803,70
19.1175,60
19.1546,55
19.1918,55
19.2289,77
19.2661,68
19.3032,58
19.3404,75
19.3775,63
19.4147,58
19.4518,76
19.4890,61
19.5261,57
19.5633,70
19.6004,73
19.6376,67
19.6747,62
19.7119,64
19.7490,58
19.7862,72
19.8233,68
19.8605,66
19.8976,61
19.9348,72
19.9719,67
20.0091,73
20.0462,61
20.0834,58
20.1205,55
20.1577,55
20.1948,71
20.2320,73
20.2691,70
20.3063,77
20.3434,51
20.3806,86
20.4177,61
20.4549,65
20.4921,87
20.5292,61
20.5664,71
20.6035,59
20.6407,71
20.6778,63
20.7150,66
20.7521,68
20.7893,56
20.8264,69
20.8636,66
20.9007,61
20.9379,64
20.9750,98
21.0122,82
21.0493,66
21.0865,64
21.1236,87
21.1608,79
21.1979,110
21.2351,107
21.2722,104
21.3094,125
21.3465,187
21.3837,143
21.4208,117
21.4580,95
21.4951,76
21.5323,73
21.5694,84
21.6066,84
21.6437,59
21.6809,62
21.7180,78
21.7552,70
21.7923,84
21.8295,67
21.8666,53
21.9038,64
21.9409,63
21.9781,57
22.0152,77
22.0524,82
22.0896,68
22.1267,74
22.1639,70
22.2010,70
22.2382,69
22.2753,75
22.3125,67
22.3496,56
22.3868,85
22.4239,69
22.4611,66
22.4982,73
22.5354,84
22.5725,76
22.6097,70
22.6468,74
22.6840,69
22.7211,61
22.7583,65
22.7954,72
22.8326,81
22.8697,68
22.9069,79
22.9440,82
22.9812,71
23.0183,77
23.0555,61
23.0926,78
23.1298,82
23.1669,89
23.2041,63
23.2412,72
23.2784,64
23.3155,80
23.3527,79
23.3898,69
23.4270,67
23.4641,81
23.5013,83
23.5384,72
23.5756,70
23.6128,57
23.6499,71
23.6871,72
23.7242,81
23.7614,81
23.7985,71
23.8357,67
23.8728,71
23.9100,61
23.9471,64
23.9843,78
24.0214,72
24.0586,65
24.0957,92
24.1329,74
24.1700,69
24.2072,64
24.2443,68
24.2815,77
24.3186,86
24.3558,73
24.3929,75
24.4301,85
24.4672,86
24.5044,84
24.5415,74
24.5787,73
24.6158,66
24.6530,67
24.6901,72
24.7273,64
24.7644,75
24.8016,67
24.8387,82
24.8759,64
24.9130,75
24.9502,81
24.9873,69
25.0245,67
25.0616,60
25.0988,84
25.1360,69
25.1731,66
25.2103,62
25.2474,71
25.2846,90
25.3217,58
25.3589,79
25.3960,70
25.4332,70
25.4703,60
25.5075,76
25.5446,81
25.5818,59
25.6189,74
25.6561,77
25.6932,65
25.7304,58
25.7675,65
25.8047,61
25.8418,67
25.8790,65
25.9161,65
25.9533,72
25.9904,76
26.0276,69
26.0647,55
26.1019,78
26.1390,56
26.1762,63
26.2133,66
26.2505,74
26.2876,56
26.3248,60
26.3619,76
26.3991,63
26.4362,61
26.4734,51
26.5105,58
26.5477,69
26.5848,67
26.6220,72
26.6591,71
26.6963,66
26.7335,81
26.7706,67
26.8078,54
26.8449,65
26.8821,51
26.9192,68
26.9564,85
26.9935,56
27.0307,75
27.0678,65
27.1050,77
27.1421,80
27.1793,84
27.2164,62
27.2536,79
27.2907,78
27.3279,79
27.3650,72
27.4022,67
27.4393,70
27.4765,72
27.5136,59
27.5508,67
27.5879,59
27.6251,79
27.6622,72
27.6994,53
27.7365,52
27.7737,59
27.8108,65
27.8480,81
27.8851,58
27.9223,80
27.9594,62
27.9966,64
28.0337,78
28.0709,61
28.1080,64
28.1452,65
28.1823,55
28.2195,54
28.2567,57
28.2938,76
28.3310,59
28.3681,52
28.4053,50
28.4424,71
28.4796,66
28.5167,49
28.5539,66
28.5910,60
28.6282,59
28.6653,65
28.7025,60
28.7396,48
28.7768,73
28.8139,66
28.8511,70
28.8882,52
28.9254,62
28.9625,56
28.9997,58
29.0368,71
29.0740,68
29.1111,58
29.1483,47
29.1854,70
29.2226,59
29.2597,53
29.2969,52
29.3340,72
29.3712,43
29.4083,66
29.4455,54
29.4826,49
29.5198,58
29.5569,60
29.5941,58
29.6312,73
29.6684,58
29.7055,41
29.7427,56
29.7799,54
29.8170,52
29.8542,60
29.8913,64
29.9285,50
29.9656,50
30.0028,52
30.0399,66
30.0771,52
30.1142,66
30.1514,53
30.1885,53
30.2257,58
30.2628,64
30.3000,57
30.3371,55
30.3743,97
30.4114,98
30.4486,106
30.4857,80
30.5229,68
30.5600,52
30.5972,75
30.6343,56
30.6715,49
30.7086,64
30.7458,47
30.7829,50
30.8201,63
30.8572,42
30.8944,49
30.9315,57
30.9687,42
31.0058,67
31.0430,39
31.0801,45
31.1173,55
31.1544,49
31.1916,45
31.2287,63
31.2659,56
31.3030,51
31.3402,45
31.3774,49
31.4145,50
31.4517,45
31.4888,46
31.5260,37
31.5631,62
31.6003,51
31.6374,51
31.6746,45
31.7117,50
31.7489,43
31.7860,48
31.8232,58
31.8603,51
31.8975,54
31.9346,47
31.9718,45
32.0089,54
32.0461,54
32.0832,55
32.1204,43
32.1575,49
32.1947,41
32.2318,48
32.2690,42
32.3061,51
32.3433,41
32.3804,40
32.4176,54
32.4547,53
32.4919,51
32.5290,51
32.5662,58
32.6033,44
32.6405,51
32.6776,52
32.7148,51
32.7519,43
32.7891,46
32.8262,56
32.8634,51
32.9006,38
32.9377,35
32.9749,34
33.0120,34
33.0492,55
33.0863,32
33.1235,34
33.1606,54
33.1978,42
33.2349,50
33.2721,50
33.3092,45
33.3464,40
33.3835,46
33.4207,48
33.4578,32
33.4950,28
33.5321,42
33.5693,50
33.6064,53
33.6436,47
33.6807,36
33.7179,48
33.7550,42
33.7922,39
33.8293,41
33.8665,40
33.9036,42
33.9408,40
33.9779,36
34.0151,28
34.0522,47
34.0894,43
34.1265,40
34.1637,42
34.2008,41
34.2380,44
34.2751,37
34.3123,42
34.3494,42
34.3866,37
34.4238,32
34.4609,45
34.4981,52
34.5352,47
34.5724,35
34.6095,43
34.6467,47
34.6838,46
34.7210,57
34.7581,50
34.7953,63
34.8324,48
34.8696,50
34.9067,47
34.9439,46
34.9810,59
35.0182,35
35.0553,45
35.0925,43
35.1296,35
35.1668,34
35.2039,36
35.2411,45
35.2782,42
35.3154,44
35.3525,43
35.3897,34
35.4268,55
35.4640,40
35.5011,36
35.5383,29
35.5754,35
35.6126,36
35.6497,29
35.6869,28
35.7240,28
35.7612,38
35.7983,33
35.8355,41
35.8726,22
35.9098,36
35.9469,36
35.9841,41
36.0213,40
36.0584,32
36.0956,45
36.1327,33
36.1699,31
36.2070,42
36.2442,36
36.2813,38
36.3185,31
36.3556,33
36.3928,38
36.4299,42
36.4671,42
36.5042,41
36.5414,35
36.5785,40
36.6157,35
36.6528,29
36.6900,41
36.7271,38
36.7643,29
36.8014,35
36.8386,43
36.8757,34
36.9129,28
36.9500,34
36.9872,32
37.0243,38
37.0615,31
37.0986,21
37.1358,34
37.1729,49
37.2101,35
37.2472,37
37.2844,36
37.3215,32
37.3587,36
37.3958,31
37.4330,41
37.4701,35
37.5073,38
37.5445,35
37.5816,44
37.6188,30
37.6559,29
37.6931,34
37.7302,22
37.7674,38
37.8045,24
37.8417,30
37.8788,36
37.9160,24
37.9531,35
37.9903,19
38.0274,38
38.0646,31
38.1017,29
38.1389,28
38.1760,37
38.2132,29
38.2503,26
38.2875,30
38.3246,20
38.3618,31
38.3989,31
38.4361,23
38.4732,40
38.5104,38
38.5475,30
38.5847,27
38.6218,31
38.6590,32
38.6961,27
38.7333,41
38.7704,39
38.8076,37
38.8447,36
38.8819,29
38.9190,27
38.9562,22
38.9933,36
39.0305,29
39.0677,30
39.1048,28
39.1420,32
39.1791,38
39.2163,23
39.2534,26
39.2906,30
39.3277,29
39.3649,32
39.4020,22
39.4392,25
39.4763,31
39.5135,26
39.5506,23
39.5878,21
39.6249,25
39.6621,29
39.6992,31
39.7364,23
39.7735,20
39.8107,31
39.8478,22
39.8850,35
39.9221,28
39.9593,21
39.9964,34
40.0336,36
40.0707,32
40.1079,30
40.1450,26
40.1822,19
40.2193,38
40.2565,34
40.2936,28
40.3308,31
40.3679,30
40.4051,21
40.4422,30
40.4794,33
40.5165,36
40.5537,30
40.5908,40
40.6280,27
40.6652,26
40.7023,21
40.7395,34
40.7766,31
40.8138,27
40.8509,41
40.8881,31
40.9252,28
40.9624,25
40.9995,28
41.0367,38
41.0738,29
41.1110,21
41.1481,15
41.1853,26
41.2224,28
41.2596,31
41.2967,32
41.3339,26
41.3710,39
41.4082,27
41.4453,29
41.4825,17
41.5196,34
41.5568,31
41.5939,27
41.6311,30
41.6682,22
41.7054,29
41.7425,27
41.7797,25
41.8168,39
41.8540,32
41.8911,23
41.9283,20
41.9654,25
42.0026,28
42.0397,24
42.0769,26
42.1140,30
42.1512,26
42.1884,28
42.2255,20
42.2627,41
42.2998,25
42.3370,29
42.3741,30
42.4113,18
42.4484,21
42.4856,21
42.5227,31
42.5599,28
42.5970,26
42.6342,24
42.6713,41
42.7085,26
42.7456,33
42.7828,21
42.8199,23
42.8571,27
42.8942,18
42.9314,31
42.9685,23
43.0057,20
43.0428,24
43.0800,28
43.1171,32
43.1543,32
43.1914,30
43.2286,38
43.2657,20
43.3029,30
43.3400,34
43.3772,42
43.4143,27
43.4515,34
43.4886,35
43.5258,54
43.5629,32
43.6001,38
43.6372,42
43.6744,32
43.7116,26
43.7487,29
43.7859,29
43.8230,41
43.8602,30
43.8973,14
43.9345,29
43.9716,32
44.0088,24
44.0459,22
44.0831,27
44.1202,28
44.1574,34
44.1945,23
44.2317,30
44.2688,31
44.3060,28
44.3431,37
44.3803,34
44.4174,24
44.4546,32
44.4917,21
44.5289,24
44.5660,32
44.6032,25
44.6403,26
44.6775,27
44.7146,32
44.7518,25
44.7889,39
44.8261,25
44.8632,25
44.9004,30
44.9375,19
44.9747,30
45.0118,17
45.0490,25
45.0861,19
45.1233,36
45.1604,21
45.1976,26
45.2347,26
45.2719,25
45.3091,28
45.3462,26
45.3834,23
45.4205,24
45.4577,28
45.4948,21
45.5320,20
45.5691,27
45.6063,24
45.6434,32
45.6806,22
45.7177,31
45.7549,28
45.7920,18
45.8292,20
45.8663,24
45.9035,18
45.9406,26
45.9778,35
46.0149,18
46.0521,27
46.0892,23
46.1264,29
46.1635,27
46.2007,18
46.2378,20
46.2750,26
46.3121,16
46.3493,28
46.3864,15
46.4236,22
46.4607,23
46.4979,21
46.5350,25
46.5722,23
46.6093,27
46.6465,24
46.6836,20
46.7208,20
46.7579,21
46.7951,20
46.8323,28
46.8694,17
46.9066,27
46.9437,17
46.9809,31
47.0180,21
47.0552,33
47.0923,26
47.1295,22
47.1666,23
47.2038,22
47.2409,24
47.2781,23
47.3152,18
47.3524,27
47.3895,18
47.4267,23
47.4638,24
47.5010,30
47.5381,21
47.5753,21
47.6124,26
47.6496,29
47.6867,10
47.7239,27
47.7610,33
47.7982,23
47.8353,13
47.8725,25
47.9096,20
47.9468,22
47.9839,22
48.0211,21
48.0582,27
48.0954,27
48.1325,25
48.1697,37
48.2068,18
48.2440,17
48.2811,16
48.3183,28
48.3555,29
48.3926,14
48.4298,26
48.4669,19
48.5041,20
48.5412,22
48.5784,25
48.6155,23
48.6527,23
48.6898,25
48.7270,27
48.7641,20
48.8013,19
48.8384,23
48.8756,13
48.9127,39
48.9499,51
48.9870,52
49.0242,20
49.0613,26
49.0985,38
49.1356,23
49.1728,21
49.2099,27
49.2471,33
49.2842,23
49.3214,22
49.3585,25
49.3957,29
49.4328,20
49.4700,22
49.5071,21
49.5443,32
49.5814,18
49.6186,16
49.6557,26
49.6929,26
49.7300,22
49.7672,27
49.8043,20
49.8415,18
49.8786,27
49.9158,30
49.9530,13
49.9901,17
50.0273,26
50.0644,26
50.1016,29
50.1387,20
50.1759,20
50.2130,20
50.2502,20
50.2873,24
50.3245,20
50.3616,33
50.3988,19
50.4359,23
50.4731,21
50.5102,22
50.5474,22
50.5845,17
50.6217,19
50.6588,20
50.6960,24
50.7331,22
50.7703,23
50.8074,24
50.8446,36
50.8817,16
50.9189,21
50.9560,29
50.9932,23
51.0303,24
51.0675,15
51.1046,20
51.1418,20
51.1789,17
51.2161,23
51.2532,29
51.2904,23
51.3275,34
51.3647,28
51.4018,17
51.4390,21
51.4762,18
51.5133,17
51.5505,31
51.5876,20
51.6248,23
51.6619,26
51.6991,25
51.7362,30
51.7734,17
51.8105,22
51.8477,29
51.8848,34
51.9220,22
51.9591,23
51.9963,35
52.0334,27
52.0706,16
52.1077,23
52.1449,21
52.1820,35
52.2192,23
52.2563,25
52.2935,20
52.3306,18
52.3678,15
52.4049,22
52.4421,14
52.4792,17
52.5164,17
52.5535,21
52.5907,25
52.6278,27
52.6650,19
52.7021,26
52.7393,21
52.7764,21
52.8136,23
52.8507,29
52.8879,27
52.9250,9
52.9622,19
52.9994,25
53.0365,21
53.0737,17
53.1108,23
53.1480,24
53.1851,26
53.2223,17
53.2594,26
53.2966,14
53.3337,24
53.3709,16
53.4080,18
53.4452,22
53.4823,25
53.5195,19
53.5566,23
53.5938,24
53.6309,24
53.6681,27
53.7052,14
53.7424,20
53.7795,13
53.8167,20
53.8538,21
53.8910,21
53.9281,21
53.9653,23
54.0024,32
54.0396,20
54.0767,23
54.1139,25
54.1510,24
54.1882,18
54.2253,18
54.2625,25
54.2996,24
54.3368,20
54.3739,19
54.4111,30
54.4482,26
54.4854,17
54.5225,22
54.5597,15
54.5969,14
54.6340,16
54.6712,16
54.7083,26
54.7455,21
54.7826,27
54.8198,34
54.8569,19
54.8941,22
54.9312,21
54.9684,26
55.0055,24
55.0427,28
55.0798,22
55.1170,22
55.1541,20
55.1913,25
55.2284,20
55.2656,25
55.3027,27
55.3399,20
55.3770,10
55.4142,20
55.4513,14
55.4885,22
55.5256,15
55.5628,24
55.5999,30
55.6371,19
55.6742,15
55.7114,13
55.7485,21
55.7857,21
55.8228,19
55.8600,14
55.8971,20
55.9343,19
55.9714,21
56.0086,19
56.0457,23
56.0829,24
56.1201,23
56.1572,14
56.1944,27
56.2315,20
56.2687,29
56.3058,20
56.3430,21
56.3801,20
56.4173,22
56.4544,23
56.4916,21
56.5287,19
56.5659,19
56.6030,35
56.6402,19
56.6773,16
56.7145,25
56.7516,20
56.7888,28
56.8259,24
56.8631,17
56.9002,18
56.9374,16
56.9745,30
57.0117,26
57.0488,9
57.0860,19
57.1231,23
57.1603,19
57.1974,19
57.2346,20
57.2717,23
57.3089,36
57.3460,18
57.3832,17
57.4203,23
57.4575,22
57.4946,17
57.5318,11
57.5689,13
57.6061,12
57.6433,15
57.6804,18
57.7176,8
57.7547,24
57.7919,31
57.8290,14
57.8662,25
57.9033,16
57.9405,21
57.9776,13
58.0148,21
58.0519,17
58.0891,20
58.1262,21
58.1634,16
58.2005,25
58.2377,20
58.2748,21
58.3120,28
58.3491,16
58.3863,26
58.4234,6
58.4606,19
58.4977,14
58.5349,19
58.5720,19
58.6092,20
58.6463,21
58.6835,27
58.7206,19
58.7578,27
58.7949,28
58.8321,10
58.8692,17
58.9064,23
58.9435,24
58.9807,26
59.0178,22
59.0550,21
59.0921,19
59.1293,16
59.1664,23
59.2036,17
59.2408,17
59.2779,23
59.3151,15
59.3522,17
59.3894,23
59.4265,22
59.4637,27
59.5008,17
59.5380,17
59.5751,15
59.6123,17
59.6494,12
59.6866,23
59.7237,21
59.7609,14
59.7980,22
59.8352,29
59.8723,21
59.9095,23
59.9466,15
59.9838,17
60.0024,21