File: notebooks/data/xrd_data/ML_20220720_25_SJD_4_LaB6-1min.csv
;,2THETA,
5.0000,88
5.0372,91
5.0743,87
5.1115,78
5.1486,85
5.1858,114
5.2229,109
5.2601,97
5.2972,103
5.3344,80
5.3715,92
5.4087,74
5.4458,69
5.4830,84
5.5201,90
5.5573,83
5.5944,88
5.6316,78
5.6687,81
5.7059,83
5.7430,77
5.7802,67
5.8173,76
5.8545,92
5.8916,75
5.9288,84
5.9659,67
6.0031,80
6.0402,91
6.0774,63
6.1145,62
6.1517,73
6.1888,69
6.2260,78
6.2631,65
6.3003,67
6.3374,76
6.3746,61
6.4117,73
6.4489,68
6.4860,56
6.5232,64
6.5604,62
6.5975,82
6.6347,79
6.6718,70
6.7090,72
6.7461,79
6.7833,64
6.8204,53
6.8576,55
6.8947,65
6.9319,62
6.9690,75
7.0062,52
7.0433,55
7.0805,61
7.1176,67
7.1548,65
7.1919,64
7.2291,54
7.2662,60
7.3034,61
7.3405,49
7.3777,53
7.4148,72
7.4520,49
7.4891,48
7.5263,58
7.5634,66
7.6006,62
7.6377,48
7.6749,69
7.7120,51
7.7492,54
7.7863,69
7.8235,72
7.8606,76
7.8978,78
7.9349,61
7.9721,82
8.0092,55
8.0464,81
8.0835,75
8.1207,70
8.1579,79
8.1950,66
8.2322,68
8.2693,73
8.3065,64
8.3436,72
8.3808,73
8.4179,61
8.4551,85
8.4922,71
8.5294,70
8.5665,57
8.6037,70
8.6408,76
8.6780,71
8.7151,70
8.7523,82
8.7894,73
8.8266,70
8.8637,89
8.9009,75
8.9380,71
8.9752,56
9.0123,84
9.0495,87
9.0866,74
9.1238,88
9.1609,74
9.1981,74
9.2352,89
9.2724,70
9.3095,79
9.3467,94
9.3838,84
9.4210,78
9.4581,85
9.4953,94
9.5324,88
9.5696,81
9.6067,85
9.6439,74
9.6811,94
9.7182,88
9.7554,91
9.7925,74
9.8297,88
9.8668,80
9.9040,83
9.9411,85
9.9783,83
10.0154,95
10.0526,82
10.0897,83
10.1269,97
10.1640,91
10.2012,90
10.2383,85
10.2755,82
10.3126,93
10.3498,83
10.3869,96
10.4241,93
10.4612,102
10.4984,85
10.5355,97
10.5727,73
10.6098,98
10.6470,91
10.6841,99
10.7213,95
10.7584,96
10.7956,90
10.8327,89
10.8699,81
10.9070,84
10.9442,84
10.9813,99
11.0185,92
11.0556,81
11.0928,86
11.1299,82
11.1671,89
11.2043,104
11.2414,77
11.2786,81
11.3157,67
11.3529,88
11.3900,99
11.4272,90
11.4643,95
11.5015,94
11.5386,82
11.5758,90
11.6129,91
11.6501,89
11.6872,89
11.7244,91
11.7615,94
11.7987,84
11.8358,82
11.8730,73
11.9101,86
11.9473,82
11.9844,89
12.0216,86
12.0587,81
12.0959,89
12.1330,72
12.1702,71
12.2073,89
12.2445,95
12.2816,86
12.3188,86
12.3559,85
12.3931,104
12.4302,78
12.4674,88
12.5045,72
12.5417,91
12.5788,64
12.6160,71
12.6531,66
12.6903,77
12.7274,75
12.7646,73
12.8018,77
12.8389,75
12.8761,79
12.9132,66
12.9504,71
12.9875,68
13.0247,84
13.0618,71
13.0990,81
13.1361,78
13.1733,81
13.2104,73
13.2476,76
13.2847,79
13.3219,60
13.3590,76
13.3962,85
13.4333,74
13.4705,60
13.5076,75
13.5448,79
13.5819,72
13.6191,65
13.6562,64
13.6934,67
13.7305,79
13.7677,90
13.8048,64
13.8420,76
13.8791,67
13.9163,80
13.9534,58
13.9906,69
14.0277,89
14.0649,58
14.1020,52
14.1392,79
14.1763,80
14.2135,64
14.2506,73
14.2878,56
14.3250,72
14.3621,67
14.3993,67
14.4364,71
14.4736,63
14.5107,59
14.5479,55
14.5850,63
14.6222,74
14.6593,60
14.6965,67
14.7336,65
14.7708,64
14.8079,68
14.8451,61
14.8822,59
14.9194,64
14.9565,64
14.9937,54
15.0308,54
15.0680,51
15.1051,61
15.1423,54
15.1794,67
15.2166,55
15.2537,51
15.2909,55
15.3280,58
15.3652,52
15.4023,70
15.4395,64
15.4766,61
15.5138,56
15.5509,51
15.5881,59
15.6252,49
15.6624,56
15.6995,60
15.7367,63
15.7738,57
15.8110,67
15.8482,57
15.8853,52
15.9225,68
15.9596,62
15.9968,45
16.0339,63
16.0711,57
16.1082,57
16.1454,64
16.1825,54
16.2197,72
16.2568,78
16.2940,58
16.3311,69
16.3683,61
16.4054,53
16.4426,54
16.4797,74
16.5169,63
16.5540,63
16.5912,50
16.6283,67
16.6655,69
16.7026,64
16.7398,61
16.7769,58
16.8141,60
16.8512,61
16.8884,47
16.9255,64
16.9627,63
16.9998,56
17.0370,51
17.0741,66
17.1113,67
17.1484,52
17.1856,57
17.2227,65
17.2599,60
17.2970,74
17.3342,63
17.3713,57
17.4085,46
17.4457,48
17.4828,54
17.5200,59
17.5571,68
17.5943,59
17.6314,67
17.6686,65
17.7057,63
17.7429,57
17.7800,66
17.8172,61
17.8543,63
17.8915,64
17.9286,62
17.9658,57
18.0029,58
18.0401,51
18.0772,56
18.1144,55
18.1515,72
18.1887,70
18.2258,72
18.2630,61
18.3001,59
18.3373,69
18.3744,65
18.4116,54
18.4487,78
18.4859,55
18.5230,64
18.5602,61
18.5973,49
18.6345,60
18.6716,59
18.7088,67
18.7459,54
18.7831,68
18.8202,71
18.8574,54
18.8945,65
18.9317,62
18.9689,65
19.0060,67
19.0432,59
19.0803,53
19.1175,68
19.1546,65
19.1918,62
19.2289,63
19.2661,60
19.3032,70
19.3404,65
19.3775,73
19.4147,61
19.4518,58
19.4890,66
19.5261,60
19.5633,76
19.6004,61
19.6376,67
19.6747,69
19.7119,72
19.7490,63
19.7862,64
19.8233,44
19.8605,64
19.8976,69
19.9348,62
19.9719,62
20.0091,56
20.0462,70
20.0834,77
20.1205,47
20.1577,67
20.1948,68
20.2320,64
20.2691,68
20.3063,66
20.3434,60
20.3806,85
20.4177,72
20.4549,69
20.4921,75
20.5292,70
20.5664,74
20.6035,75
20.6407,59
20.6778,54
20.7150,77
20.7521,72
20.7893,71
20.8264,71
20.8636,60
20.9007,82
20.9379,81
20.9750,65
21.0122,82
21.0493,69
21.0865,76
21.1236,87
21.1608,103
21.1979,85
21.2351,123
21.2722,105
21.3094,115
21.3465,154
21.3837,175
21.4208,118
21.4580,68
21.4951,63
21.5323,77
21.5694,68
21.6066,70
21.6437,79
21.6809,88
21.7180,71
21.7552,58
21.7923,60
21.8295,80
21.8666,73
21.9038,71
21.9409,71
21.9781,83
22.0152,65
22.0524,74
22.0896,91
22.1267,85
22.1639,64
22.2010,71
22.2382,74
22.2753,70
22.3125,80
22.3496,69
22.3868,69
22.4239,83
22.4611,59
22.4982,74
22.5354,75
22.5725,63
22.6097,60
22.6468,76
22.6840,82
22.7211,76
22.7583,79
22.7954,79
22.8326,56
22.8697,66
22.9069,69
22.9440,77
22.9812,75
23.0183,86
23.0555,73
23.0926,75
23.1298,88
23.1669,87
23.2041,89
23.2412,72
23.2784,69
23.3155,79
23.3527,61
23.3898,73
23.4270,84
23.4641,74
23.5013,82
23.5384,71
23.5756,67
23.6128,86
23.6499,70
23.6871,73
23.7242,64
23.7614,66
23.7985,72
23.8357,78
23.8728,67
23.9100,80
23.9471,62
23.9843,64
24.0214,80
24.0586,78
24.0957,86
24.1329,83
24.1700,74
24.2072,72
24.2443,91
24.2815,78
24.3186,81
24.3558,93
24.3929,75
24.4301,70
24.4672,63
24.5044,78
24.5415,78
24.5787,77
24.6158,80
24.6530,72
24.6901,67
24.7273,62
24.7644,68
24.8016,72
24.8387,68
24.8759,77
24.9130,74
24.9502,76
24.9873,78
25.0245,72
25.0616,78
25.0988,89
25.1360,59
25.1731,76
25.2103,88
25.2474,59
25.2846,55
25.3217,75
25.3589,73
25.3960,59
25.4332,72
25.4703,57
25.5075,74
25.5446,78
25.5818,64
25.6189,76
25.6561,83
25.6932,68
25.7304,60
25.7675,82
25.8047,72
25.8418,75
25.8790,68
25.9161,61
25.9533,80
25.9904,69
26.0276,78
26.0647,65
26.1019,86
26.1390,66
26.1762,58
26.2133,62
26.2505,81
26.2876,81
26.3248,85
26.3619,59
26.3991,78
26.4362,71
26.4734,77
26.5105,68
26.5477,68
26.5848,73
26.6220,73
26.6591,78
26.6963,60
26.7335,79
26.7706,74
26.8078,64
26.8449,59
26.8821,61
26.9192,80
26.9564,56
26.9935,62
27.0307,73
27.0678,59
27.1050,72
27.1421,72
27.1793,87
27.2164,87
27.2536,85
27.2907,73
27.3279,79
27.3650,67
27.4022,63
27.4393,58
27.4765,70
27.5136,79
27.5508,56
27.5879,82
27.6251,72
27.6622,74
27.6994,70
27.7365,73
27.7737,62
27.8108,59
27.8480,76
27.8851,57
27.9223,65
27.9594,72
27.9966,56
28.0337,48
28.0709,54
28.1080,67
28.1452,71
28.1823,68
28.2195,58
28.2567,69
28.2938,72
28.3310,54
28.3681,75
28.4053,73
28.4424,52
28.4796,60
28.5167,52
28.5539,57
28.5910,49
28.6282,55
28.6653,69
28.7025,58
28.7396,63
28.7768,62
28.8139,45
28.8511,73
28.8882,54
28.9254,67
28.9625,56
28.9997,68
29.0368,53
29.0740,69
29.1111,49
29.1483,52
29.1854,63
29.2226,59
29.2597,55
29.2969,46
29.3340,63
29.3712,45
29.4083,57
29.4455,57
29.4826,70
29.5198,64
29.5569,45
29.5941,64
29.6312,62
29.6684,63
29.7055,59
29.7427,62
29.7799,50
29.8170,64
29.8542,63
29.8913,47
29.9285,64
29.9656,53
30.0028,55
30.0399,54
30.0771,69
30.1142,58
30.1514,57
30.1885,51
30.2257,55
30.2628,58
30.3000,56
30.3371,72
30.3743,106
30.4114,120
30.4486,105
30.4857,86
30.5229,71
30.5600,53
30.5972,72
30.6343,61
30.6715,54
30.7086,68
30.7458,59
30.7829,54
30.8201,52
30.8572,51
30.8944,50
30.9315,46
30.9687,41
31.0058,47
31.0430,47
31.0801,49
31.1173,49
31.1544,51
31.1916,64
31.2287,47
31.2659,45
31.3030,60
31.3402,50
31.3774,40
31.4145,40
31.4517,54
31.4888,48
31.5260,32
31.5631,52
31.6003,54
31.6374,49
31.6746,51
31.7117,48
31.7489,40
31.7860,65
31.8232,46
31.8603,54
31.8975,43
31.9346,45
31.9718,52
32.0089,53
32.0461,68
32.0832,43
32.1204,49
32.1575,45
32.1947,40
32.2318,47
32.2690,39
32.3061,45
32.3433,53
32.3804,56
32.4176,36
32.4547,53
32.4919,47
32.5290,59
32.5662,55
32.6033,35
32.6405,57
32.6776,45
32.7148,39
32.7519,32
32.7891,55
32.8262,42
32.8634,43
32.9006,52
32.9377,44
32.9749,48
33.0120,42
33.0492,39
33.0863,45
33.1235,45
33.1606,47
33.1978,47
33.2349,46
33.2721,47
33.3092,46
33.3464,35
33.3835,43
33.4207,48
33.4578,42
33.4950,45
33.5321,34
33.5693,40
33.6064,47
33.6436,48
33.6807,35
33.7179,28
33.7550,47
33.7922,39
33.8293,39
33.8665,40
33.9036,25
33.9408,45
33.9779,36
34.0151,45
34.0522,32
34.0894,41
34.1265,41
34.1637,40
34.2008,39
34.2380,44
34.2751,36
34.3123,44
34.3494,51
34.3866,36
34.4238,39
34.4609,42
34.4981,43
34.5352,37
34.5724,44
34.6095,38
34.6467,50
34.6838,54
34.7210,50
34.7581,57
34.7953,67
34.8324,50
34.8696,39
34.9067,44
34.9439,47
34.9810,45
35.0182,48
35.0553,33
35.0925,41
35.1296,39
35.1668,42
35.2039,38
35.2411,50
35.2782,43
35.3154,38
35.3525,41
35.3897,34
35.4268,37
35.4640,39
35.5011,51
35.5383,44
35.5754,28
35.6126,30
35.6497,37
35.6869,34
35.7240,40
35.7612,44
35.7983,32
35.8355,31
35.8726,34
35.9098,41
35.9469,36
35.9841,35
36.0213,44
36.0584,36
36.0956,33
36.1327,43
36.1699,30
36.2070,35
36.2442,30
36.2813,30
36.3185,40
36.3556,32
36.3928,25
36.4299,26
36.4671,38
36.5042,40
36.5414,30
36.5785,44
36.6157,34
36.6528,38
36.6900,32
36.7271,35
36.7643,39
36.8014,27
36.8386,31
36.8757,30
36.9129,22
36.9500,36
36.9872,25
37.0243,31
37.0615,31
37.0986,45
37.1358,26
37.1729,41
37.2101,31
37.2472,37
37.2844,31
37.3215,31
37.3587,29
37.3958,46
37.4330,56
37.4701,60
37.5073,45
37.5445,46
37.5816,38
37.6188,41
37.6559,39
37.6931,25
37.7302,30
37.7674,31
37.8045,30
37.8417,28
37.8788,33
37.9160,30
37.9531,32
37.9903,38
38.0274,29
38.0646,34
38.1017,31
38.1389,28
38.1760,24
38.2132,30
38.2503,29
38.2875,42
38.3246,31
38.3618,39
38.3989,28
38.4361,40
38.4732,22
38.5104,29
38.5475,26
38.5847,21
38.6218,25
38.6590,35
38.6961,30
38.7333,38
38.7704,26
38.8076,27
38.8447,49
38.8819,27
38.9190,30
38.9562,38
38.9933,29
39.0305,33
39.0677,27
39.1048,34
39.1420,34
39.1791,24
39.2163,26
39.2534,36
39.2906,29
39.3277,32
39.3649,31
39.4020,24
39.4392,40
39.4763,28
39.5135,33
39.5506,31
39.5878,40
39.6249,32
39.6621,31
39.6992,25
39.7364,28
39.7735,28
39.8107,30
39.8478,21
39.8850,28
39.9221,26
39.9593,38
39.9964,37
40.0336,25
40.0707,34
40.1079,35
40.1450,38
40.1822,34
40.2193,29
40.2565,30
40.2936,33
40.3308,20
40.3679,37
40.4051,24
40.4422,20
40.4794,36
40.5165,29
40.5537,23
40.5908,27
40.6280,22
40.6652,34
40.7023,32
40.7395,24
40.7766,29
40.8138,34
40.8509,22
40.8881,22
40.9252,34
40.9624,31
40.9995,30
41.0367,23
41.0738,38
41.1110,32
41.1481,31
41.1853,37
41.2224,29
41.2596,16
41.2967,28
41.3339,34
41.3710,33
41.4082,21
41.4453,23
41.4825,32
41.5196,30
41.5568,34
41.5939,35
41.6311,32
41.6682,33
41.7054,21
41.7425,21
41.7797,27
41.8168,37
41.8540,26
41.8911,30
41.9283,26
41.9654,26
42.0026,27
42.0397,27
42.0769,28
42.1140,21
42.1512,21
42.1884,26
42.2255,39
42.2627,24
42.2998,24
42.3370,22
42.3741,23
42.4113,32
42.4484,28
42.4856,23
42.5227,26
42.5599,21
42.5970,21
42.6342,32
42.6713,30
42.7085,35
42.7456,27
42.7828,22
42.8199,23
42.8571,29
42.8942,30
42.9314,30
42.9685,26
43.0057,32
43.0428,27
43.0800,31
43.1171,28
43.1543,30
43.1914,32
43.2286,35
43.2657,34
43.3029,25
43.3400,33
43.3772,34
43.4143,33
43.4515,41
43.4886,48
43.5258,52
43.5629,44
43.6001,27
43.6372,46
43.6744,28
43.7116,25
43.7487,30
43.7859,21
43.8230,27
43.8602,21
43.8973,33
43.9345,24
43.9716,19
44.0088,26
44.0459,24
44.0831,20
44.1202,24
44.1574,23
44.1945,34
44.2317,23
44.2688,31
44.3060,22
44.3431,29
44.3803,26
44.4174,25
44.4546,21
44.4917,41
44.5289,25
44.5660,25
44.6032,28
44.6403,35
44.6775,24
44.7146,28
44.7518,46
44.7889,31
44.8261,28
44.8632,20
44.9004,24
44.9375,25
44.9747,22
45.0118,25
45.0490,29
45.0861,16
45.1233,25
45.1604,15
45.1976,22
45.2347,28
45.2719,30
45.3091,20
45.3462,31
45.3834,32
45.4205,29
45.4577,37
45.4948,22
45.5320,32
45.5691,28
45.6063,29
45.6434,26
45.6806,28
45.7177,20
45.7549,22
45.7920,21
45.8292,16
45.8663,16
45.9035,37
45.9406,23
45.9778,20
46.0149,28
46.0521,25
46.0892,16
46.1264,30
46.1635,20
46.2007,31
46.2378,18
46.2750,19
46.3121,23
46.3493,33
46.3864,24
46.4236,24
46.4607,36
46.4979,27
46.5350,17
46.5722,24
46.6093,26
46.6465,31
46.6836,25
46.7208,22
46.7579,19
46.7951,24
46.8323,31
46.8694,23
46.9066,33
46.9437,26
46.9809,20
47.0180,20
47.0552,20
47.0923,19
47.1295,29
47.1666,18
47.2038,35
47.2409,29
47.2781,24
47.3152,31
47.3524,19
47.3895,26
47.4267,16
47.4638,18
47.5010,26
47.5381,23
47.5753,34
47.6124,27
47.6496,36
47.6867,17
47.7239,34
47.7610,26
47.7982,18
47.8353,25
47.8725,19
47.9096,23
47.9468,24
47.9839,25
48.0211,33
48.0582,21
48.0954,31
48.1325,21
48.1697,25
48.2068,29
48.2440,22
48.2811,22
48.3183,26
48.3555,30
48.3926,33
48.4298,14
48.4669,17
48.5041,27
48.5412,18
48.5784,19
48.6155,17
48.6527,20
48.6898,22
48.7270,29
48.7641,21
48.8013,21
48.8384,24
48.8756,32
48.9127,31
48.9499,36
48.9870,35
49.0242,27
49.0613,32
49.0985,41
49.1356,27
49.1728,25
49.2099,32
49.2471,31
49.2842,26
49.3214,28
49.3585,15
49.3957,33
49.4328,11
49.4700,22
49.5071,27
49.5443,28
49.5814,22
49.6186,27
49.6557,35
49.6929,18
49.7300,16
49.7672,23
49.8043,13
49.8415,21
49.8786,20
49.9158,27
49.9530,18
49.9901,18
50.0273,19
50.0644,26
50.1016,27
50.1387,21
50.1759,17
50.2130,26
50.2502,24
50.2873,26
50.3245,26
50.3616,24
50.3988,13
50.4359,25
50.4731,26
50.5102,25
50.5474,26
50.5845,19
50.6217,20
50.6588,29
50.6960,20
50.7331,23
50.7703,21
50.8074,26
50.8446,33
50.8817,23
50.9189,29
50.9560,25
50.9932,16
51.0303,20
51.0675,18
51.1046,16
51.1418,14
51.1789,27
51.2161,17
51.2532,26
51.2904,15
51.3275,20
51.3647,29
51.4018,25
51.4390,28
51.4762,21
51.5133,19
51.5505,25
51.5876,14
51.6248,20
51.6619,24
51.6991,21
51.7362,16
51.7734,25
51.8105,29
51.8477,29
51.8848,19
51.9220,26
51.9591,29
51.9963,27
52.0334,21
52.0706,26
52.1077,20
52.1449,22
52.1820,24
52.2192,23
52.2563,25
52.2935,17
52.3306,16
52.3678,24
52.4049,17
52.4421,20
52.4792,28
52.5164,18
52.5535,30
52.5907,21
52.6278,20
52.6650,10
52.7021,25
52.7393,15
52.7764,23
52.8136,31
52.8507,11
52.8879,21
52.9250,19
52.9622,15
52.9994,22
53.0365,24
53.0737,16
53.1108,26
53.1480,27
53.1851,13
53.2223,18
53.2594,23
53.2966,24
53.3337,26
53.3709,20
53.4080,19
53.4452,26
53.4823,15
53.5195,29
53.5566,19
53.5938,20
53.6309,19
53.6681,18
53.7052,36
53.7424,19
53.7795,22
53.8167,24
53.8538,17
53.8910,19
53.9281,29
53.9653,33
54.0024,33
54.0396,17
54.0767,19
54.1139,21
54.1510,31
54.1882,21
54.2253,25
54.2625,16
54.2996,19
54.3368,20
54.3739,22
54.4111,28
54.4482,25
54.4854,24
54.5225,20
54.5597,22
54.5969,20
54.6340,25
54.6712,26
54.7083,21
54.7455,17
54.7826,17
54.8198,8
54.8569,15
54.8941,15
54.9312,14
54.9684,23
55.0055,22
55.0427,19
55.0798,20
55.1170,18
55.1541,18
55.1913,22
55.2284,15
55.2656,20
55.3027,19
55.3399,22
55.3770,25
55.4142,25
55.4513,16
55.4885,15
55.5256,18
55.5628,22
55.5999,28
55.6371,23
55.6742,22
55.7114,25
55.7485,18
55.7857,25
55.8228,20
55.8600,19
55.8971,22
55.9343,13
55.9714,20
56.0086,23
56.0457,22
56.0829,19
56.1201,17
56.1572,25
56.1944,23
56.2315,34
56.2687,13
56.3058,29
56.3430,22
56.3801,17
56.4173,18
56.4544,15
56.4916,22
56.5287,19
56.5659,25
56.6030,31
56.6402,25
56.6773,19
56.7145,19
56.7516,22
56.7888,23
56.8259,15
56.8631,26
56.9002,31
56.9374,14
56.9745,22
57.0117,13
57.0488,16
57.0860,17
57.1231,19
57.1603,21
57.1974,18
57.2346,17
57.2717,16
57.3089,20
57.3460,24
57.3832,22
57.4203,27
57.4575,17
57.4946,17
57.5318,30
57.5689,22
57.6061,25
57.6433,14
57.6804,17
57.7176,23
57.7547,22
57.7919,17
57.8290,22
57.8662,27
57.9033,19
57.9405,15
57.9776,13
58.0148,17
58.0519,15
58.0891,16
58.1262,22
58.1634,16
58.2005,13
58.2377,21
58.2748,26
58.3120,15
58.3491,31
58.3863,24
58.4234,22
58.4606,16
58.4977,15
58.5349,22
58.5720,21
58.6092,30
58.6463,19
58.6835,19
58.7206,25
58.7578,15
58.7949,24
58.8321,25
58.8692,18
58.9064,14
58.9435,19
58.9807,16
59.0178,27
59.0550,25
59.0921,12
59.1293,15
59.1664,18
59.2036,22
59.2408,16
59.2779,21
59.3151,24
59.3522,21
59.3894,20
59.4265,20
59.4637,16
59.5008,24
59.5380,18
59.5751,23
59.6123,28
59.6494,27
59.6866,13
59.7237,18
59.7609,20
59.7980,21
59.8352,19
59.8723,18
59.9095,29
59.9466,20
59.9838,22
60.0024,31