File: notebooks/data/xrd_data/ML_20220720_21_SJD_4_LaB6-1min.csv
;,2THETA,
5.0000,106
5.0372,91
5.0743,85
5.1115,87
5.1486,105
5.1858,74
5.2229,84
5.2601,79
5.2972,89
5.3344,84
5.3715,88
5.4087,78
5.4458,90
5.4830,112
5.5201,106
5.5573,77
5.5944,79
5.6316,79
5.6687,90
5.7059,73
5.7430,70
5.7802,61
5.8173,85
5.8545,82
5.8916,76
5.9288,75
5.9659,77
6.0031,77
6.0402,79
6.0774,80
6.1145,66
6.1517,62
6.1888,66
6.2260,76
6.2631,65
6.3003,66
6.3374,71
6.3746,63
6.4117,77
6.4489,61
6.4860,74
6.5232,56
6.5604,84
6.5975,61
6.6347,52
6.6718,55
6.7090,65
6.7461,43
6.7833,67
6.8204,58
6.8576,53
6.8947,63
6.9319,46
6.9690,55
7.0062,67
7.0433,62
7.0805,38
7.1176,69
7.1548,57
7.1919,56
7.2291,67
7.2662,51
7.3034,67
7.3405,49
7.3777,50
7.4148,51
7.4520,58
7.4891,52
7.5263,63
7.5634,79
7.6006,63
7.6377,63
7.6749,60
7.7120,52
7.7492,57
7.7863,57
7.8235,74
7.8606,67
7.8978,76
7.9349,64
7.9721,59
8.0092,74
8.0464,77
8.0835,66
8.1207,73
8.1579,67
8.1950,84
8.2322,61
8.2693,59
8.3065,71
8.3436,72
8.3808,80
8.4179,69
8.4551,92
8.4922,82
8.5294,85
8.5665,69
8.6037,81
8.6408,89
8.6780,66
8.7151,76
8.7523,84
8.7894,77
8.8266,86
8.8637,86
8.9009,80
8.9380,68
8.9752,84
9.0123,90
9.0495,84
9.0866,81
9.1238,85
9.1609,68
9.1981,75
9.2352,71
9.2724,79
9.3095,79
9.3467,76
9.3838,79
9.4210,83
9.4581,86
9.4953,66
9.5324,76
9.5696,77
9.6067,83
9.6439,86
9.6811,97
9.7182,70
9.7554,77
9.7925,80
9.8297,75
9.8668,94
9.9040,82
9.9411,82
9.9783,79
10.0154,95
10.0526,83
10.0897,86
10.1269,78
10.1640,96
10.2012,94
10.2383,70
10.2755,94
10.3126,80
10.3498,76
10.3869,74
10.4241,92
10.4612,83
10.4984,77
10.5355,90
10.5727,116
10.6098,91
10.6470,91
10.6841,76
10.7213,92
10.7584,76
10.7956,86
10.8327,90
10.8699,101
10.9070,77
10.9442,79
10.9813,100
11.0185,83
11.0556,82
11.0928,88
11.1299,81
11.1671,71
11.2043,109
11.2414,88
11.2786,87
11.3157,91
11.3529,90
11.3900,89
11.4272,84
11.4643,95
11.5015,95
11.5386,103
11.5758,73
11.6129,80
11.6501,105
11.6872,87
11.7244,81
11.7615,87
11.7987,82
11.8358,91
11.8730,84
11.9101,84
11.9473,69
11.9844,88
12.0216,96
12.0587,79
12.0959,89
12.1330,79
12.1702,68
12.2073,72
12.2445,81
12.2816,91
12.3188,83
12.3559,77
12.3931,75
12.4302,83
12.4674,77
12.5045,84
12.5417,78
12.5788,72
12.6160,75
12.6531,77
12.6903,70
12.7274,73
12.7646,85
12.8018,86
12.8389,71
12.8761,72
12.9132,79
12.9504,88
12.9875,69
13.0247,77
13.0618,78
13.0990,69
13.1361,69
13.1733,76
13.2104,84
13.2476,71
13.2847,78
13.3219,78
13.3590,77
13.3962,72
13.4333,63
13.4705,84
13.5076,72
13.5448,79
13.5819,61
13.6191,71
13.6562,73
13.6934,68
13.7305,62
13.7677,65
13.8048,68
13.8420,68
13.8791,59
13.9163,82
13.9534,65
13.9906,59
14.0277,69
14.0649,57
14.1020,69
14.1392,61
14.1763,65
14.2135,75
14.2506,65
14.2878,68
14.3250,76
14.3621,77
14.3993,53
14.4364,58
14.4736,58
14.5107,62
14.5479,72
14.5850,74
14.6222,54
14.6593,68
14.6965,66
14.7336,60
14.7708,63
14.8079,49
14.8451,65
14.8822,60
14.9194,80
14.9565,55
14.9937,64
15.0308,53
15.0680,56
15.1051,52
15.1423,44
15.1794,67
15.2166,69
15.2537,68
15.2909,44
15.3280,69
15.3652,57
15.4023,57
15.4395,60
15.4766,49
15.5138,71
15.5509,55
15.5881,58
15.6252,56
15.6624,58
15.6995,52
15.7367,61
15.7738,50
15.8110,65
15.8482,65
15.8853,53
15.9225,54
15.9596,59
15.9968,62
16.0339,47
16.0711,57
16.1082,59
16.1454,45
16.1825,69
16.2197,73
16.2568,59
16.2940,48
16.3311,50
16.3683,59
16.4054,66
16.4426,59
16.4797,57
16.5169,57
16.5540,65
16.5912,55
16.6283,55
16.6655,59
16.7026,62
16.7398,57
16.7769,49
16.8141,49
16.8512,66
16.8884,67
16.9255,63
16.9627,51
16.9998,52
17.0370,39
17.0741,57
17.1113,65
17.1484,58
17.1856,52
17.2227,70
17.2599,64
17.2970,63
17.3342,52
17.3713,54
17.4085,63
17.4457,48
17.4828,60
17.5200,57
17.5571,55
17.5943,56
17.6314,65
17.6686,50
17.7057,70
17.7429,60
17.7800,59
17.8172,61
17.8543,75
17.8915,59
17.9286,66
17.9658,50
18.0029,54
18.0401,70
18.0772,59
18.1144,47
18.1515,59
18.1887,50
18.2258,60
18.2630,63
18.3001,58
18.3373,62
18.3744,62
18.4116,63
18.4487,66
18.4859,64
18.5230,66
18.5602,75
18.5973,73
18.6345,57
18.6716,79
18.7088,54
18.7459,67
18.7831,74
18.8202,69
18.8574,45
18.8945,66
18.9317,74
18.9689,61
19.0060,61
19.0432,65
19.0803,53
19.1175,66
19.1546,62
19.1918,79
19.2289,70
19.2661,54
19.3032,55
19.3404,65
19.3775,60
19.4147,64
19.4518,63
19.4890,73
19.5261,60
19.5633,54
19.6004,77
19.6376,53
19.6747,70
19.7119,64
19.7490,59
19.7862,67
19.8233,57
19.8605,77
19.8976,62
19.9348,72
19.9719,60
20.0091,82
20.0462,62
20.0834,59
20.1205,69
20.1577,72
20.1948,65
20.2320,78
20.2691,67
20.3063,68
20.3434,68
20.3806,63
20.4177,68
20.4549,75
20.4921,67
20.5292,69
20.5664,71
20.6035,72
20.6407,76
20.6778,78
20.7150,74
20.7521,60
20.7893,67
20.8264,62
20.8636,77
20.9007,63
20.9379,74
20.9750,79
21.0122,52
21.0493,73
21.0865,85
21.1236,95
21.1608,71
21.1979,94
21.2351,109
21.2722,101
21.3094,121
21.3465,176
21.3837,174
21.4208,141
21.4580,84
21.4951,66
21.5323,65
21.5694,93
21.6066,68
21.6437,75
21.6809,73
21.7180,70
21.7552,73
21.7923,78
21.8295,86
21.8666,82
21.9038,70
21.9409,69
21.9781,76
22.0152,67
22.0524,65
22.0896,80
22.1267,69
22.1639,76
22.2010,64
22.2382,76
22.2753,89
22.3125,70
22.3496,71
22.3868,60
22.4239,61
22.4611,77
22.4982,75
22.5354,54
22.5725,81
22.6097,86
22.6468,86
22.6840,65
22.7211,82
22.7583,94
22.7954,88
22.8326,80
22.8697,81
22.9069,75
22.9440,72
22.9812,71
23.0183,61
23.0555,66
23.0926,67
23.1298,69
23.1669,80
23.2041,52
23.2412,61
23.2784,77
23.3155,63
23.3527,75
23.3898,55
23.4270,80
23.4641,62
23.5013,66
23.5384,79
23.5756,83
23.6128,72
23.6499,70
23.6871,78
23.7242,65
23.7614,66
23.7985,68
23.8357,72
23.8728,66
23.9100,76
23.9471,67
23.9843,60
24.0214,61
24.0586,93
24.0957,65
24.1329,74
24.1700,65
24.2072,74
24.2443,75
24.2815,84
24.3186,76
24.3558,66
24.3929,100
24.4301,69
24.4672,63
24.5044,86
24.5415,73
24.5787,90
24.6158,68
24.6530,78
24.6901,78
24.7273,65
24.7644,73
24.8016,71
24.8387,79
24.8759,85
24.9130,73
24.9502,76
24.9873,74
25.0245,68
25.0616,71
25.0988,88
25.1360,72
25.1731,71
25.2103,67
25.2474,67
25.2846,73
25.3217,75
25.3589,84
25.3960,71
25.4332,86
25.4703,80
25.5075,66
25.5446,69
25.5818,78
25.6189,60
25.6561,79
25.6932,69
25.7304,74
25.7675,79
25.8047,68
25.8418,67
25.8790,66
25.9161,72
25.9533,77
25.9904,81
26.0276,81
26.0647,92
26.1019,65
26.1390,72
26.1762,63
26.2133,67
26.2505,69
26.2876,64
26.3248,73
26.3619,59
26.3991,71
26.4362,75
26.4734,71
26.5105,66
26.5477,71
26.5848,78
26.6220,74
26.6591,65
26.6963,72
26.7335,89
26.7706,63
26.8078,67
26.8449,61
26.8821,78
26.9192,75
26.9564,75
26.9935,80
27.0307,60
27.0678,72
27.1050,67
27.1421,80
27.1793,96
27.2164,107
27.2536,86
27.2907,92
27.3279,66
27.3650,76
27.4022,46
27.4393,61
27.4765,54
27.5136,73
27.5508,61
27.5879,67
27.6251,59
27.6622,63
27.6994,84
27.7365,77
27.7737,75
27.8108,79
27.8480,56
27.8851,67
27.9223,56
27.9594,73
27.9966,63
28.0337,51
28.0709,55
28.1080,64
28.1452,60
28.1823,69
28.2195,53
28.2567,59
28.2938,63
28.3310,70
28.3681,66
28.4053,59
28.4424,62
28.4796,73
28.5167,57
28.5539,53
28.5910,65
28.6282,60
28.6653,67
28.7025,56
28.7396,68
28.7768,70
28.8139,61
28.8511,71
28.8882,56
28.9254,67
28.9625,72
28.9997,54
29.0368,67
29.0740,60
29.1111,62
29.1483,57
29.1854,56
29.2226,59
29.2597,48
29.2969,63
29.3340,57
29.3712,45
29.4083,68
29.4455,61
29.4826,50
29.5198,73
29.5569,54
29.5941,66
29.6312,76
29.6684,56
29.7055,70
29.7427,59
29.7799,59
29.8170,50
29.8542,57
29.8913,62
29.9285,61
29.9656,64
30.0028,52
30.0399,62
30.0771,53
30.1142,55
30.1514,59
30.1885,61
30.2257,67
30.2628,54
30.3000,61
30.3371,74
30.3743,128
30.4114,107
30.4486,98
30.4857,67
30.5229,56
30.5600,65
30.5972,40
30.6343,68
30.6715,49
30.7086,44
30.7458,48
30.7829,62
30.8201,60
30.8572,47
30.8944,45
30.9315,62
30.9687,67
31.0058,52
31.0430,59
31.0801,40
31.1173,66
31.1544,45
31.1916,54
31.2287,56
31.2659,52
31.3030,63
31.3402,56
31.3774,54
31.4145,48
31.4517,39
31.4888,59
31.5260,45
31.5631,55
31.6003,38
31.6374,44
31.6746,59
31.7117,36
31.7489,43
31.7860,54
31.8232,66
31.8603,40
31.8975,53
31.9346,50
31.9718,47
32.0089,57
32.0461,48
32.0832,47
32.1204,39
32.1575,51
32.1947,52
32.2318,37
32.2690,52
32.3061,40
32.3433,44
32.3804,52
32.4176,45
32.4547,59
32.4919,53
32.5290,53
32.5662,58
32.6033,63
32.6405,51
32.6776,55
32.7148,37
32.7519,51
32.7891,36
32.8262,39
32.8634,35
32.9006,41
32.9377,59
32.9749,43
33.0120,41
33.0492,55
33.0863,50
33.1235,40
33.1606,41
33.1978,41
33.2349,47
33.2721,50
33.3092,32
33.3464,43
33.3835,36
33.4207,35
33.4578,43
33.4950,47
33.5321,36
33.5693,44
33.6064,44
33.6436,50
33.6807,48
33.7179,47
33.7550,28
33.7922,39
33.8293,43
33.8665,43
33.9036,39
33.9408,58
33.9779,43
34.0151,43
34.0522,42
34.0894,47
34.1265,35
34.1637,47
34.2008,31
34.2380,38
34.2751,34
34.3123,46
34.3494,38
34.3866,37
34.4238,47
34.4609,49
34.4981,52
34.5352,31
34.5724,54
34.6095,52
34.6467,50
34.6838,49
34.7210,36
34.7581,55
34.7953,63
34.8324,65
34.8696,49
34.9067,55
34.9439,42
34.9810,38
35.0182,35
35.0553,31
35.0925,41
35.1296,43
35.1668,30
35.2039,40
35.2411,48
35.2782,37
35.3154,54
35.3525,47
35.3897,30
35.4268,34
35.4640,39
35.5011,33
35.5383,28
35.5754,41
35.6126,31
35.6497,30
35.6869,40
35.7240,45
35.7612,33
35.7983,41
35.8355,30
35.8726,53
35.9098,36
35.9469,38
35.9841,34
36.0213,39
36.0584,37
36.0956,50
36.1327,48
36.1699,26
36.2070,44
36.2442,29
36.2813,38
36.3185,34
36.3556,25
36.3928,30
36.4299,31
36.4671,34
36.5042,31
36.5414,43
36.5785,33
36.6157,34
36.6528,34
36.6900,26
36.7271,35
36.7643,32
36.8014,36
36.8386,38
36.8757,27
36.9129,32
36.9500,31
36.9872,35
37.0243,28
37.0615,38
37.0986,36
37.1358,28
37.1729,32
37.2101,24
37.2472,24
37.2844,38
37.3215,39
37.3587,39
37.3958,42
37.4330,72
37.4701,62
37.5073,47
37.5445,39
37.5816,39
37.6188,30
37.6559,34
37.6931,29
37.7302,27
37.7674,30
37.8045,22
37.8417,27
37.8788,40
37.9160,37
37.9531,30
37.9903,36
38.0274,29
38.0646,32
38.1017,26
38.1389,29
38.1760,26
38.2132,24
38.2503,33
38.2875,44
38.3246,27
38.3618,26
38.3989,31
38.4361,35
38.4732,32
38.5104,34
38.5475,30
38.5847,28
38.6218,33
38.6590,40
38.6961,24
38.7333,29
38.7704,23
38.8076,31
38.8447,29
38.8819,24
38.9190,27
38.9562,43
38.9933,33
39.0305,23
39.0677,41
39.1048,26
39.1420,30
39.1791,20
39.2163,30
39.2534,22
39.2906,27
39.3277,32
39.3649,39
39.4020,28
39.4392,39
39.4763,29
39.5135,29
39.5506,34
39.5878,29
39.6249,28
39.6621,27
39.6992,38
39.7364,31
39.7735,33
39.8107,32
39.8478,29
39.8850,25
39.9221,22
39.9593,25
39.9964,32
40.0336,27
40.0707,30
40.1079,31
40.1450,27
40.1822,25
40.2193,34
40.2565,29
40.2936,13
40.3308,35
40.3679,27
40.4051,30
40.4422,26
40.4794,31
40.5165,24
40.5537,30
40.5908,25
40.6280,27
40.6652,28
40.7023,34
40.7395,27
40.7766,29
40.8138,31
40.8509,36
40.8881,36
40.9252,26
40.9624,31
40.9995,23
41.0367,20
41.0738,25
41.1110,29
41.1481,29
41.1853,28
41.2224,24
41.2596,24
41.2967,24
41.3339,26
41.3710,34
41.4082,32
41.4453,23
41.4825,30
41.5196,22
41.5568,31
41.5939,24
41.6311,29
41.6682,25
41.7054,25
41.7425,32
41.7797,25
41.8168,26
41.8540,29
41.8911,24
41.9283,25
41.9654,34
42.0026,27
42.0397,26
42.0769,31
42.1140,26
42.1512,30
42.1884,41
42.2255,30
42.2627,22
42.2998,23
42.3370,24
42.3741,16
42.4113,28
42.4484,32
42.4856,24
42.5227,36
42.5599,24
42.5970,27
42.6342,23
42.6713,25
42.7085,25
42.7456,32
42.7828,29
42.8199,35
42.8571,26
42.8942,27
42.9314,20
42.9685,30
43.0057,24
43.0428,18
43.0800,37
43.1171,29
43.1543,33
43.1914,22
43.2286,48
43.2657,39
43.3029,36
43.3400,35
43.3772,39
43.4143,33
43.4515,28
43.4886,50
43.5258,41
43.5629,28
43.6001,24
43.6372,37
43.6744,23
43.7116,30
43.7487,40
43.7859,30
43.8230,27
43.8602,29
43.8973,28
43.9345,23
43.9716,29
44.0088,23
44.0459,38
44.0831,21
44.1202,28
44.1574,22
44.1945,22
44.2317,25
44.2688,23
44.3060,27
44.3431,40
44.3803,31
44.4174,26
44.4546,29
44.4917,24
44.5289,34
44.5660,35
44.6032,23
44.6403,22
44.6775,24
44.7146,24
44.7518,34
44.7889,26
44.8261,30
44.8632,22
44.9004,33
44.9375,21
44.9747,37
45.0118,21
45.0490,21
45.0861,23
45.1233,17
45.1604,33
45.1976,15
45.2347,33
45.2719,23
45.3091,22
45.3462,27
45.3834,20
45.4205,23
45.4577,26
45.4948,20
45.5320,19
45.5691,24
45.6063,27
45.6434,23
45.6806,24
45.7177,32
45.7549,27
45.7920,25
45.8292,13
45.8663,24
45.9035,32
45.9406,25
45.9778,21
46.0149,24
46.0521,19
46.0892,23
46.1264,20
46.1635,20
46.2007,29
46.2378,27
46.2750,20
46.3121,27
46.3493,31
46.3864,25
46.4236,17
46.4607,24
46.4979,25
46.5350,13
46.5722,23
46.6093,33
46.6465,25
46.6836,24
46.7208,29
46.7579,24
46.7951,21
46.8323,24
46.8694,20
46.9066,30
46.9437,19
46.9809,20
47.0180,27
47.0552,17
47.0923,20
47.1295,29
47.1666,27
47.2038,21
47.2409,29
47.2781,20
47.3152,24
47.3524,21
47.3895,15
47.4267,28
47.4638,24
47.5010,20
47.5381,21
47.5753,30
47.6124,32
47.6496,17
47.6867,22
47.7239,27
47.7610,24
47.7982,22
47.8353,23
47.8725,22
47.9096,22
47.9468,27
47.9839,19
48.0211,26
48.0582,30
48.0954,26
48.1325,22
48.1697,19
48.2068,32
48.2440,20
48.2811,22
48.3183,22
48.3555,19
48.3926,16
48.4298,16
48.4669,14
48.5041,25
48.5412,16
48.5784,24
48.6155,24
48.6527,14
48.6898,21
48.7270,27
48.7641,23
48.8013,32
48.8384,18
48.8756,24
48.9127,36
48.9499,42
48.9870,40
49.0242,26
49.0613,21
49.0985,33
49.1356,21
49.1728,19
49.2099,29
49.2471,17
49.2842,17
49.3214,30
49.3585,24
49.3957,19
49.4328,20
49.4700,22
49.5071,22
49.5443,25
49.5814,23
49.6186,21
49.6557,20
49.6929,17
49.7300,21
49.7672,26
49.8043,20
49.8415,14
49.8786,22
49.9158,29
49.9530,16
49.9901,20
50.0273,21
50.0644,17
50.1016,26
50.1387,16
50.1759,24
50.2130,28
50.2502,28
50.2873,37
50.3245,25
50.3616,36
50.3988,27
50.4359,22
50.4731,15
50.5102,24
50.5474,27
50.5845,17
50.6217,24
50.6588,17
50.6960,14
50.7331,16
50.7703,26
50.8074,12
50.8446,18
50.8817,30
50.9189,22
50.9560,15
50.9932,24
51.0303,25
51.0675,21
51.1046,19
51.1418,26
51.1789,26
51.2161,21
51.2532,19
51.2904,18
51.3275,23
51.3647,31
51.4018,25
51.4390,21
51.4762,21
51.5133,22
51.5505,23
51.5876,25
51.6248,22
51.6619,23
51.6991,18
51.7362,17
51.7734,14
51.8105,23
51.8477,26
51.8848,20
51.9220,32
51.9591,18
51.9963,22
52.0334,24
52.0706,21
52.1077,19
52.1449,25
52.1820,23
52.2192,17
52.2563,23
52.2935,24
52.3306,20
52.3678,17
52.4049,27
52.4421,24
52.4792,28
52.5164,24
52.5535,20
52.5907,19
52.6278,30
52.6650,23
52.7021,17
52.7393,24
52.7764,13
52.8136,16
52.8507,26
52.8879,20
52.9250,18
52.9622,31
52.9994,23
53.0365,19
53.0737,22
53.1108,26
53.1480,22
53.1851,29
53.2223,21
53.2594,21
53.2966,22
53.3337,20
53.3709,14
53.4080,20
53.4452,23
53.4823,21
53.5195,18
53.5566,22
53.5938,17
53.6309,19
53.6681,18
53.7052,19
53.7424,20
53.7795,18
53.8167,20
53.8538,24
53.8910,19
53.9281,24
53.9653,35
54.0024,36
54.0396,28
54.0767,19
54.1139,21
54.1510,29
54.1882,21
54.2253,28
54.2625,21
54.2996,22
54.3368,27
54.3739,25
54.4111,32
54.4482,30
54.4854,23
54.5225,20
54.5597,18
54.5969,19
54.6340,25
54.6712,22
54.7083,21
54.7455,23
54.7826,19
54.8198,26
54.8569,17
54.8941,20
54.9312,19
54.9684,19
55.0055,19
55.0427,19
55.0798,24
55.1170,18
55.1541,23
55.1913,21
55.2284,16
55.2656,22
55.3027,25
55.3399,22
55.3770,22
55.4142,24
55.4513,21
55.4885,25
55.5256,30
55.5628,26
55.5999,22
55.6371,16
55.6742,23
55.7114,25
55.7485,14
55.7857,13
55.8228,25
55.8600,19
55.8971,22
55.9343,29
55.9714,28
56.0086,19
56.0457,23
56.0829,19
56.1201,18
56.1572,25
56.1944,19
56.2315,33
56.2687,17
56.3058,25
56.3430,26
56.3801,12
56.4173,21
56.4544,16
56.4916,21
56.5287,27
56.5659,26
56.6030,27
56.6402,13
56.6773,17
56.7145,27
56.7516,15
56.7888,28
56.8259,20
56.8631,20
56.9002,21
56.9374,17
56.9745,29
57.0117,18
57.0488,27
57.0860,28
57.1231,18
57.1603,22
57.1974,19
57.2346,22
57.2717,16
57.3089,20
57.3460,21
57.3832,22
57.4203,17
57.4575,15
57.4946,19
57.5318,18
57.5689,19
57.6061,27
57.6433,19
57.6804,27
57.7176,22
57.7547,23
57.7919,18
57.8290,21
57.8662,23
57.9033,22
57.9405,16
57.9776,24
58.0148,23
58.0519,25
58.0891,24
58.1262,20
58.1634,19
58.2005,25
58.2377,17
58.2748,28
58.3120,23
58.3491,21
58.3863,21
58.4234,17
58.4606,27
58.4977,20
58.5349,15
58.5720,20
58.6092,23
58.6463,21
58.6835,13
58.7206,21
58.7578,22
58.7949,25
58.8321,19
58.8692,19
58.9064,15
58.9435,21
58.9807,28
59.0178,19
59.0550,20
59.0921,22
59.1293,17
59.1664,16
59.2036,16
59.2408,10
59.2779,19
59.3151,21
59.3522,16
59.3894,15
59.4265,20
59.4637,23
59.5008,20
59.5380,11
59.5751,21
59.6123,13
59.6494,17
59.6866,22
59.7237,16
59.7609,25
59.7980,15
59.8352,27
59.8723,17
59.9095,24
59.9466,17
59.9838,16
60.0024,21