File: notebooks/data/xrd_data/ML_20220718_28_SJD_4_LaB6-2min.csv
;,2THETA,
5.0000,133
5.0372,127
5.0743,132
5.1115,121
5.1486,144
5.1858,132
5.2229,107
5.2601,123
5.2972,100
5.3344,131
5.3715,116
5.4087,119
5.4458,112
5.4830,142
5.5201,106
5.5573,127
5.5944,99
5.6316,107
5.6687,111
5.7059,137
5.7430,83
5.7802,100
5.8173,106
5.8545,115
5.8916,101
5.9288,124
5.9659,121
6.0031,116
6.0402,123
6.0774,92
6.1145,81
6.1517,75
6.1888,98
6.2260,71
6.2631,108
6.3003,98
6.3374,92
6.3746,79
6.4117,99
6.4489,94
6.4860,99
6.5232,86
6.5604,98
6.5975,86
6.6347,94
6.6718,85
6.7090,91
6.7461,69
6.7833,78
6.8204,93
6.8576,80
6.8947,74
6.9319,81
6.9690,91
7.0062,104
7.0433,75
7.0805,70
7.1176,78
7.1548,60
7.1919,80
7.2291,67
7.2662,84
7.3034,85
7.3405,83
7.3777,92
7.4148,89
7.4520,90
7.4891,90
7.5263,82
7.5634,76
7.6006,89
7.6377,91
7.6749,71
7.7120,99
7.7492,94
7.7863,84
7.8235,97
7.8606,80
7.8978,82
7.9349,90
7.9721,91
8.0092,103
8.0464,109
8.0835,82
8.1207,90
8.1579,98
8.1950,104
8.2322,93
8.2693,101
8.3065,106
8.3436,111
8.3808,96
8.4179,98
8.4551,101
8.4922,88
8.5294,101
8.5665,95
8.6037,90
8.6408,101
8.6780,103
8.7151,105
8.7523,105
8.7894,101
8.8266,88
8.8637,90
8.9009,98
8.9380,104
8.9752,81
9.0123,112
9.0495,93
9.0866,104
9.1238,116
9.1609,75
9.1981,99
9.2352,121
9.2724,97
9.3095,96
9.3467,120
9.3838,119
9.4210,131
9.4581,116
9.4953,104
9.5324,121
9.5696,119
9.6067,107
9.6439,90
9.6811,101
9.7182,122
9.7554,118
9.7925,107
9.8297,112
9.8668,119
9.9040,117
9.9411,109
9.9783,133
10.0154,125
10.0526,131
10.0897,94
10.1269,129
10.1640,102
10.2012,132
10.2383,120
10.2755,125
10.3126,125
10.3498,126
10.3869,101
10.4241,97
10.4612,114
10.4984,106
10.5355,135
10.5727,125
10.6098,119
10.6470,121
10.6841,108
10.7213,121
10.7584,116
10.7956,110
10.8327,109
10.8699,128
10.9070,123
10.9442,107
10.9813,129
11.0185,114
11.0556,111
11.0928,114
11.1299,103
11.1671,126
11.2043,121
11.2414,105
11.2786,118
11.3157,120
11.3529,125
11.3900,123
11.4272,108
11.4643,116
11.5015,114
11.5386,135
11.5758,109
11.6129,116
11.6501,131
11.6872,112
11.7244,91
11.7615,133
11.7987,128
11.8358,121
11.8730,109
11.9101,98
11.9473,114
11.9844,113
12.0216,128
12.0587,104
12.0959,114
12.1330,103
12.1702,115
12.2073,107
12.2445,102
12.2816,110
12.3188,120
12.3559,100
12.3931,123
12.4302,98
12.4674,110
12.5045,118
12.5417,120
12.5788,112
12.6160,119
12.6531,106
12.6903,116
12.7274,86
12.7646,111
12.8018,110
12.8389,82
12.8761,111
12.9132,113
12.9504,105
12.9875,102
13.0247,112
13.0618,77
13.0990,98
13.1361,85
13.1733,122
13.2104,89
13.2476,92
13.2847,106
13.3219,102
13.3590,119
13.3962,89
13.4333,102
13.4705,102
13.5076,108
13.5448,79
13.5819,76
13.6191,94
13.6562,91
13.6934,94
13.7305,100
13.7677,87
13.8048,94
13.8420,75
13.8791,85
13.9163,92
13.9534,74
13.9906,88
14.0277,76
14.0649,93
14.1020,93
14.1392,76
14.1763,84
14.2135,94
14.2506,86
14.2878,92
14.3250,75
14.3621,87
14.3993,87
14.4364,120
14.4736,92
14.5107,96
14.5479,94
14.5850,87
14.6222,96
14.6593,98
14.6965,108
14.7336,84
14.7708,78
14.8079,80
14.8451,78
14.8822,81
14.9194,86
14.9565,87
14.9937,95
15.0308,77
15.0680,74
15.1051,76
15.1423,89
15.1794,73
15.2166,80
15.2537,79
15.2909,97
15.3280,94
15.3652,95
15.4023,93
15.4395,92
15.4766,74
15.5138,74
15.5509,94
15.5881,70
15.6252,89
15.6624,89
15.6995,105
15.7367,72
15.7738,85
15.8110,79
15.8482,82
15.8853,88
15.9225,81
15.9596,90
15.9968,86
16.0339,82
16.0711,89
16.1082,80
16.1454,73
16.1825,83
16.2197,77
16.2568,77
16.2940,92
16.3311,86
16.3683,77
16.4054,88
16.4426,81
16.4797,72
16.5169,90
16.5540,76
16.5912,83
16.6283,82
16.6655,75
16.7026,96
16.7398,71
16.7769,62
16.8141,68
16.8512,84
16.8884,71
16.9255,87
16.9627,66
16.9998,68
17.0370,90
17.0741,90
17.1113,84
17.1484,71
17.1856,85
17.2227,78
17.2599,86
17.2970,86
17.3342,88
17.3713,78
17.4085,75
17.4457,71
17.4828,90
17.5200,95
17.5571,86
17.5943,96
17.6314,79
17.6686,76
17.7057,74
17.7429,83
17.7800,77
17.8172,71
17.8543,87
17.8915,97
17.9286,70
17.9658,82
18.0029,69
18.0401,79
18.0772,76
18.1144,79
18.1515,86
18.1887,73
18.2258,77
18.2630,82
18.3001,75
18.3373,82
18.3744,76
18.4116,85
18.4487,74
18.4859,66
18.5230,72
18.5602,86
18.5973,81
18.6345,97
18.6716,91
18.7088,84
18.7459,87
18.7831,76
18.8202,94
18.8574,97
18.8945,82
18.9317,85
18.9689,66
19.0060,82
19.0432,94
19.0803,95
19.1175,85
19.1546,89
19.1918,89
19.2289,86
19.2661,86
19.3032,99
19.3404,96
19.3775,80
19.4147,89
19.4518,101
19.4890,89
19.5261,89
19.5633,87
19.6004,81
19.6376,97
19.6747,83
19.7119,102
19.7490,96
19.7862,95
19.8233,82
19.8605,86
19.8976,91
19.9348,88
19.9719,90
20.0091,94
20.0462,98
20.0834,98
20.1205,84
20.1577,88
20.1948,95
20.2320,90
20.2691,92
20.3063,76
20.3434,98
20.3806,70
20.4177,80
20.4549,80
20.4921,91
20.5292,89
20.5664,101
20.6035,80
20.6407,97
20.6778,74
20.7150,94
20.7521,97
20.7893,109
20.8264,91
20.8636,88
20.9007,94
20.9379,99
20.9750,91
21.0122,104
21.0493,102
21.0865,92
21.1236,98
21.1608,116
21.1979,142
21.2351,154
21.2722,157
21.3094,148
21.3465,238
21.3837,217
21.4208,175
21.4580,122
21.4951,96
21.5323,99
21.5694,88
21.6066,82
21.6437,102
21.6809,92
21.7180,91
21.7552,82
21.7923,90
21.8295,119
21.8666,84
21.9038,107
21.9409,97
21.9781,92
22.0152,96
22.0524,97
22.0896,119
22.1267,77
22.1639,92
22.2010,93
22.2382,102
22.2753,107
22.3125,101
22.3496,95
22.3868,90
22.4239,89
22.4611,105
22.4982,107
22.5354,117
22.5725,91
22.6097,82
22.6468,84
22.6840,86
22.7211,116
22.7583,83
22.7954,111
22.8326,106
22.8697,95
22.9069,93
22.9440,90
22.9812,100
23.0183,112
23.0555,109
23.0926,92
23.1298,91
23.1669,111
23.2041,111
23.2412,98
23.2784,98
23.3155,103
23.3527,96
23.3898,93
23.4270,100
23.4641,91
23.5013,108
23.5384,107
23.5756,99
23.6128,125
23.6499,103
23.6871,96
23.7242,111
23.7614,101
23.7985,106
23.8357,93
23.8728,80
23.9100,92
23.9471,96
23.9843,108
24.0214,83
24.0586,104
24.0957,107
24.1329,102
24.1700,118
24.2072,83
24.2443,106
24.2815,109
24.3186,134
24.3558,102
24.3929,94
24.4301,88
24.4672,96
24.5044,114
24.5415,110
24.5787,112
24.6158,103
24.6530,92
24.6901,91
24.7273,99
24.7644,91
24.8016,105
24.8387,92
24.8759,115
24.9130,103
24.9502,104
24.9873,94
25.0245,86
25.0616,103
25.0988,98
25.1360,97
25.1731,107
25.2103,96
25.2474,90
25.2846,96
25.3217,105
25.3589,92
25.3960,93
25.4332,83
25.4703,97
25.5075,99
25.5446,108
25.5818,81
25.6189,93
25.6561,99
25.6932,86
25.7304,87
25.7675,109
25.8047,88
25.8418,88
25.8790,89
25.9161,117
25.9533,91
25.9904,92
26.0276,98
26.0647,102
26.1019,81
26.1390,97
26.1762,80
26.2133,77
26.2505,95
26.2876,99
26.3248,97
26.3619,99
26.3991,104
26.4362,106
26.4734,95
26.5105,89
26.5477,78
26.5848,96
26.6220,94
26.6591,83
26.6963,88
26.7335,78
26.7706,87
26.8078,96
26.8449,83
26.8821,86
26.9192,96
26.9564,88
26.9935,102
27.0307,96
27.0678,91
27.1050,94
27.1421,100
27.1793,95
27.2164,126
27.2536,101
27.2907,93
27.3279,94
27.3650,94
27.4022,104
27.4393,87
27.4765,97
27.5136,104
27.5508,78
27.5879,88
27.6251,79
27.6622,99
27.6994,97
27.7365,88
27.7737,95
27.8108,93
27.8480,99
27.8851,83
27.9223,85
27.9594,104
27.9966,87
28.0337,93
28.0709,83
28.1080,75
28.1452,91
28.1823,68
28.2195,74
28.2567,78
28.2938,84
28.3310,83
28.3681,79
28.4053,78
28.4424,82
28.4796,85
28.5167,82
28.5539,85
28.5910,69
28.6282,65
28.6653,81
28.7025,74
28.7396,84
28.7768,79
28.8139,90
28.8511,84
28.8882,108
28.9254,87
28.9625,88
28.9997,96
29.0368,81
29.0740,86
29.1111,76
29.1483,95
29.1854,67
29.2226,80
29.2597,86
29.2969,75
29.3340,101
29.3712,77
29.4083,89
29.4455,61
29.4826,80
29.5198,87
29.5569,71
29.5941,76
29.6312,87
29.6684,69
29.7055,63
29.7427,79
29.7799,86
29.8170,88
29.8542,93
29.8913,70
29.9285,67
29.9656,80
30.0028,76
30.0399,70
30.0771,78
30.1142,77
30.1514,81
30.1885,80
30.2257,82
30.2628,71
30.3000,88
30.3371,95
30.3743,166
30.4114,150
30.4486,114
30.4857,114
30.5229,64
30.5600,83
30.5972,82
30.6343,52
30.6715,71
30.7086,69
30.7458,78
30.7829,77
30.8201,61
30.8572,77
30.8944,59
30.9315,74
30.9687,87
31.0058,87
31.0430,78
31.0801,56
31.1173,75
31.1544,75
31.1916,78
31.2287,64
31.2659,76
31.3030,69
31.3402,76
31.3774,85
31.4145,62
31.4517,77
31.4888,64
31.5260,64
31.5631,78
31.6003,62
31.6374,67
31.6746,66
31.7117,77
31.7489,68
31.7860,60
31.8232,73
31.8603,49
31.8975,69
31.9346,51
31.9718,77
32.0089,70
32.0461,80
32.0832,76
32.1204,57
32.1575,64
32.1947,57
32.2318,60
32.2690,80
32.3061,81
32.3433,77
32.3804,76
32.4176,71
32.4547,73
32.4919,101
32.5290,66
32.5662,70
32.6033,50
32.6405,57
32.6776,64
32.7148,56
32.7519,55
32.7891,60
32.8262,52
32.8634,71
32.9006,77
32.9377,54
32.9749,53
33.0120,44
33.0492,63
33.0863,85
33.1235,61
33.1606,60
33.1978,62
33.2349,58
33.2721,57
33.3092,50
33.3464,61
33.3835,56
33.4207,70
33.4578,59
33.4950,46
33.5321,54
33.5693,73
33.6064,63
33.6436,60
33.6807,56
33.7179,55
33.7550,62
33.7922,51
33.8293,37
33.8665,53
33.9036,73
33.9408,57
33.9779,65
34.0151,51
34.0522,54
34.0894,64
34.1265,55
34.1637,49
34.2008,55
34.2380,54
34.2751,56
34.3123,62
34.3494,66
34.3866,52
34.4238,54
34.4609,73
34.4981,69
34.5352,64
34.5724,62
34.6095,54
34.6467,56
34.6838,59
34.7210,75
34.7581,72
34.7953,71
34.8324,65
34.8696,75
34.9067,55
34.9439,50
34.9810,64
35.0182,53
35.0553,51
35.0925,49
35.1296,43
35.1668,54
35.2039,48
35.2411,47
35.2782,54
35.3154,57
35.3525,50
35.3897,49
35.4268,57
35.4640,56
35.5011,41
35.5383,48
35.5754,56
35.6126,44
35.6497,46
35.6869,56
35.7240,51
35.7612,46
35.7983,56
35.8355,50
35.8726,45
35.9098,63
35.9469,44
35.9841,35
36.0213,48
36.0584,46
36.0956,50
36.1327,43
36.1699,42
36.2070,55
36.2442,43
36.2813,44
36.3185,45
36.3556,54
36.3928,39
36.4299,60
36.4671,49
36.5042,54
36.5414,38
36.5785,49
36.6157,53
36.6528,48
36.6900,46
36.7271,40
36.7643,45
36.8014,46
36.8386,44
36.8757,41
36.9129,38
36.9500,43
36.9872,41
37.0243,44
37.0615,37
37.0986,44
37.1358,38
37.1729,42
37.2101,45
37.2472,47
37.2844,56
37.3215,43
37.3587,42
37.3958,52
37.4330,74
37.4701,70
37.5073,54
37.5445,65
37.5816,60
37.6188,41
37.6559,49
37.6931,43
37.7302,43
37.7674,41
37.8045,56
37.8417,45
37.8788,38
37.9160,41
37.9531,41
37.9903,48
38.0274,50
38.0646,36
38.1017,38
38.1389,35
38.1760,41
38.2132,38
38.2503,44
38.2875,41
38.3246,51
38.3618,34
38.3989,38
38.4361,47
38.4732,46
38.5104,35
38.5475,37
38.5847,47
38.6218,35
38.6590,35
38.6961,48
38.7333,48
38.7704,48
38.8076,35
38.8447,45
38.8819,46
38.9190,45
38.9562,48
38.9933,49
39.0305,43
39.0677,41
39.1048,47
39.1420,52
39.1791,39
39.2163,39
39.2534,42
39.2906,34
39.3277,33
39.3649,35
39.4020,27
39.4392,47
39.4763,40
39.5135,45
39.5506,34
39.5878,31
39.6249,42
39.6621,41
39.6992,38
39.7364,46
39.7735,40
39.8107,44
39.8478,46
39.8850,47
39.9221,26
39.9593,35
39.9964,30
40.0336,47
40.0707,45
40.1079,40
40.1450,47
40.1822,42
40.2193,38
40.2565,35
40.2936,43
40.3308,31
40.3679,32
40.4051,35
40.4422,42
40.4794,43
40.5165,34
40.5537,42
40.5908,42
40.6280,32
40.6652,42
40.7023,33
40.7395,41
40.7766,35
40.8138,43
40.8509,52
40.8881,39
40.9252,48
40.9624,34
40.9995,39
41.0367,43
41.0738,35
41.1110,32
41.1481,43
41.1853,41
41.2224,33
41.2596,48
41.2967,35
41.3339,30
41.3710,24
41.4082,35
41.4453,35
41.4825,36
41.5196,36
41.5568,30
41.5939,36
41.6311,36
41.6682,43
41.7054,34
41.7425,41
41.7797,33
41.8168,39
41.8540,43
41.8911,44
41.9283,40
41.9654,42
42.0026,35
42.0397,39
42.0769,42
42.1140,30
42.1512,47
42.1884,45
42.2255,37
42.2627,39
42.2998,36
42.3370,38
42.3741,46
42.4113,32
42.4484,31
42.4856,41
42.5227,49
42.5599,46
42.5970,27
42.6342,33
42.6713,43
42.7085,28
42.7456,35
42.7828,32
42.8199,34
42.8571,45
42.8942,40
42.9314,35
42.9685,23
43.0057,38
43.0428,48
43.0800,39
43.1171,37
43.1543,37
43.1914,51
43.2286,38
43.2657,50
43.3029,50
43.3400,45
43.3772,41
43.4143,47
43.4515,47
43.4886,56
43.5258,66
43.5629,42
43.6001,67
43.6372,47
43.6744,22
43.7116,41
43.7487,34
43.7859,36
43.8230,36
43.8602,36
43.8973,49
43.9345,42
43.9716,30
44.0088,41
44.0459,39
44.0831,35
44.1202,36
44.1574,28
44.1945,38
44.2317,30
44.2688,44
44.3060,32
44.3431,37
44.3803,42
44.4174,30
44.4546,37
44.4917,40
44.5289,35
44.5660,41
44.6032,40
44.6403,33
44.6775,49
44.7146,27
44.7518,37
44.7889,36
44.8261,35
44.8632,35
44.9004,49
44.9375,32
44.9747,36
45.0118,40
45.0490,28
45.0861,39
45.1233,28
45.1604,42
45.1976,37
45.2347,32
45.2719,42
45.3091,37
45.3462,36
45.3834,35
45.4205,37
45.4577,43
45.4948,42
45.5320,28
45.5691,30
45.6063,28
45.6434,43
45.6806,36
45.7177,34
45.7549,28
45.7920,30
45.8292,28
45.8663,39
45.9035,25
45.9406,23
45.9778,39
46.0149,29
46.0521,25
46.0892,37
46.1264,26
46.1635,34
46.2007,33
46.2378,24
46.2750,34
46.3121,29
46.3493,27
46.3864,38
46.4236,33
46.4607,29
46.4979,32
46.5350,27
46.5722,34
46.6093,33
46.6465,27
46.6836,35
46.7208,30
46.7579,28
46.7951,37
46.8323,24
46.8694,25
46.9066,25
46.9437,31
46.9809,29
47.0180,45
47.0552,25
47.0923,35
47.1295,31
47.1666,34
47.2038,39
47.2409,28
47.2781,32
47.3152,28
47.3524,27
47.3895,31
47.4267,25
47.4638,22
47.5010,28
47.5381,26
47.5753,35
47.6124,36
47.6496,28
47.6867,24
47.7239,26
47.7610,25
47.7982,40
47.8353,36
47.8725,23
47.9096,22
47.9468,24
47.9839,25
48.0211,44
48.0582,25
48.0954,37
48.1325,32
48.1697,24
48.2068,26
48.2440,26
48.2811,24
48.3183,28
48.3555,33
48.3926,39
48.4298,45
48.4669,34
48.5041,29
48.5412,27
48.5784,36
48.6155,28
48.6527,34
48.6898,30
48.7270,35
48.7641,27
48.8013,28
48.8384,33
48.8756,45
48.9127,45
48.9499,72
48.9870,54
49.0242,34
49.0613,37
49.0985,51
49.1356,43
49.1728,21
49.2099,34
49.2471,32
49.2842,30
49.3214,37
49.3585,33
49.3957,27
49.4328,34
49.4700,32
49.5071,28
49.5443,38
49.5814,29
49.6186,33
49.6557,35
49.6929,38
49.7300,28
49.7672,35
49.8043,26
49.8415,29
49.8786,25
49.9158,26
49.9530,35
49.9901,28
50.0273,28
50.0644,28
50.1016,27
50.1387,31
50.1759,32
50.2130,24
50.2502,36
50.2873,37
50.3245,35
50.3616,32
50.3988,31
50.4359,33
50.4731,28
50.5102,28
50.5474,36
50.5845,25
50.6217,27
50.6588,31
50.6960,36
50.7331,25
50.7703,35
50.8074,30
50.8446,21
50.8817,31
50.9189,28
50.9560,27
50.9932,33
51.0303,26
51.0675,20
51.1046,27
51.1418,28
51.1789,22
51.2161,32
51.2532,36
51.2904,31
51.3275,33
51.3647,36
51.4018,28
51.4390,35
51.4762,30
51.5133,40
51.5505,31
51.5876,30
51.6248,33
51.6619,32
51.6991,25
51.7362,33
51.7734,33
51.8105,44
51.8477,36
51.8848,30
51.9220,43
51.9591,38
51.9963,34
52.0334,27
52.0706,40
52.1077,18
52.1449,31
52.1820,29
52.2192,33
52.2563,31
52.2935,23
52.3306,34
52.3678,28
52.4049,29
52.4421,23
52.4792,31
52.5164,24
52.5535,30
52.5907,20
52.6278,29
52.6650,31
52.7021,35
52.7393,32
52.7764,21
52.8136,32
52.8507,32
52.8879,29
52.9250,25
52.9622,37
52.9994,39
53.0365,41
53.0737,32
53.1108,34
53.1480,28
53.1851,39
53.2223,29
53.2594,29
53.2966,27
53.3337,32
53.3709,25
53.4080,30
53.4452,21
53.4823,32
53.5195,31
53.5566,30
53.5938,21
53.6309,23
53.6681,24
53.7052,18
53.7424,29
53.7795,28
53.8167,28
53.8538,29
53.8910,21
53.9281,29
53.9653,33
54.0024,36
54.0396,29
54.0767,33
54.1139,39
54.1510,18
54.1882,28
54.2253,27
54.2625,26
54.2996,34
54.3368,32
54.3739,27
54.4111,28
54.4482,32
54.4854,22
54.5225,27
54.5597,25
54.5969,24
54.6340,21
54.6712,24
54.7083,21
54.7455,22
54.7826,37
54.8198,19
54.8569,20
54.8941,36
54.9312,27
54.9684,23
55.0055,35
55.0427,31
55.0798,34
55.1170,34
55.1541,31
55.1913,26
55.2284,25
55.2656,29
55.3027,21
55.3399,33
55.3770,24
55.4142,25
55.4513,29
55.4885,23
55.5256,31
55.5628,26
55.5999,28
55.6371,26
55.6742,34
55.7114,33
55.7485,37
55.7857,27
55.8228,25
55.8600,31
55.8971,32
55.9343,28
55.9714,27
56.0086,32
56.0457,30
56.0829,24
56.1201,28
56.1572,33
56.1944,37
56.2315,36
56.2687,30
56.3058,34
56.3430,24
56.3801,36
56.4173,31
56.4544,28
56.4916,31
56.5287,24
56.5659,23
56.6030,27
56.6402,35
56.6773,27
56.7145,25
56.7516,36
56.7888,23
56.8259,30
56.8631,19
56.9002,27
56.9374,22
56.9745,32
57.0117,26
57.0488,23
57.0860,26
57.1231,37
57.1603,29
57.1974,34
57.2346,20
57.2717,24
57.3089,27
57.3460,29
57.3832,22
57.4203,26
57.4575,31
57.4946,11
57.5318,24
57.5689,23
57.6061,23
57.6433,24
57.6804,29
57.7176,28
57.7547,31
57.7919,20
57.8290,25
57.8662,17
57.9033,41
57.9405,19
57.9776,27
58.0148,27
58.0519,24
58.0891,30
58.1262,33
58.1634,32
58.2005,27
58.2377,28
58.2748,33
58.3120,24
58.3491,23
58.3863,29
58.4234,25
58.4606,36
58.4977,29
58.5349,25
58.5720,38
58.6092,27
58.6463,23
58.6835,30
58.7206,26
58.7578,22
58.7949,32
58.8321,28
58.8692,28
58.9064,25
58.9435,31
58.9807,34
59.0178,28
59.0550,26
59.0921,39
59.1293,33
59.1664,25
59.2036,32
59.2408,33
59.2779,28
59.3151,30
59.3522,22
59.3894,23
59.4265,30
59.4637,38
59.5008,39
59.5380,19
59.5751,31
59.6123,28
59.6494,22
59.6866,19
59.7237,35
59.7609,37
59.7980,26
59.8352,26
59.8723,33
59.9095,23
59.9466,19
59.9838,28
60.0024,26