File: notebooks/data/xrd_data/ML_20220718_42_SJD_4_LaB6-4min.csv
;,2THETA,
5.0000,275
5.0372,272
5.0743,279
5.1115,255
5.1486,279
5.1858,244
5.2229,257
5.2601,239
5.2972,251
5.3344,239
5.3715,250
5.4087,209
5.4458,220
5.4830,227
5.5201,209
5.5573,244
5.5944,216
5.6316,221
5.6687,221
5.7059,195
5.7430,193
5.7802,216
5.8173,197
5.8545,197
5.8916,209
5.9288,204
5.9659,192
6.0031,209
6.0402,215
6.0774,197
6.1145,198
6.1517,198
6.1888,202
6.2260,183
6.2631,203
6.3003,181
6.3374,202
6.3746,160
6.4117,184
6.4489,207
6.4860,165
6.5232,185
6.5604,184
6.5975,176
6.6347,154
6.6718,159
6.7090,168
6.7461,195
6.7833,154
6.8204,161
6.8576,202
6.8947,163
6.9319,164
6.9690,165
7.0062,175
7.0433,146
7.0805,148
7.1176,150
7.1548,173
7.1919,163
7.2291,160
7.2662,138
7.3034,158
7.3405,165
7.3777,169
7.4148,169
7.4520,165
7.4891,178
7.5263,173
7.5634,187
7.6006,171
7.6377,182
7.6749,175
7.7120,171
7.7492,179
7.7863,203
7.8235,201
7.8606,163
7.8978,172
7.9349,174
7.9721,195
8.0092,203
8.0464,186
8.0835,171
8.1207,199
8.1579,219
8.1950,197
8.2322,175
8.2693,171
8.3065,184
8.3436,213
8.3808,205
8.4179,184
8.4551,190
8.4922,211
8.5294,220
8.5665,212
8.6037,195
8.6408,194
8.6780,220
8.7151,190
8.7523,203
8.7894,210
8.8266,232
8.8637,212
8.9009,202
8.9380,211
8.9752,237
9.0123,218
9.0495,231
9.0866,206
9.1238,215
9.1609,235
9.1981,215
9.2352,239
9.2724,225
9.3095,209
9.3467,202
9.3838,237
9.4210,191
9.4581,212
9.4953,224
9.5324,220
9.5696,220
9.6067,243
9.6439,222
9.6811,198
9.7182,243
9.7554,238
9.7925,236
9.8297,256
9.8668,254
9.9040,210
9.9411,251
9.9783,254
10.0154,234
10.0526,234
10.0897,224
10.1269,250
10.1640,243
10.2012,259
10.2383,236
10.2755,224
10.3126,247
10.3498,258
10.3869,243
10.4241,222
10.4612,251
10.4984,226
10.5355,254
10.5727,254
10.6098,234
10.6470,239
10.6841,223
10.7213,245
10.7584,243
10.7956,239
10.8327,239
10.8699,239
10.9070,251
10.9442,228
10.9813,210
11.0185,242
11.0556,267
11.0928,239
11.1299,232
11.1671,250
11.2043,202
11.2414,265
11.2786,209
11.3157,228
11.3529,246
11.3900,254
11.4272,249
11.4643,220
11.5015,216
11.5386,227
11.5758,261
11.6129,230
11.6501,226
11.6872,242
11.7244,258
11.7615,202
11.7987,241
11.8358,259
11.8730,225
11.9101,233
11.9473,224
11.9844,235
12.0216,236
12.0587,233
12.0959,235
12.1330,249
12.1702,218
12.2073,221
12.2445,230
12.2816,224
12.3188,218
12.3559,232
12.3931,189
12.4302,205
12.4674,233
12.5045,234
12.5417,227
12.5788,249
12.6160,196
12.6531,214
12.6903,212
12.7274,222
12.7646,221
12.8018,204
12.8389,199
12.8761,210
12.9132,189
12.9504,218
12.9875,206
13.0247,211
13.0618,205
13.0990,195
13.1361,183
13.1733,201
13.2104,239
13.2476,207
13.2847,200
13.3219,226
13.3590,194
13.3962,197
13.4333,212
13.4705,208
13.5076,208
13.5448,203
13.5819,192
13.6191,207
13.6562,233
13.6934,181
13.7305,211
13.7677,209
13.8048,189
13.8420,180
13.8791,181
13.9163,182
13.9534,202
13.9906,204
14.0277,196
14.0649,176
14.1020,183
14.1392,171
14.1763,185
14.2135,200
14.2506,182
14.2878,165
14.3250,199
14.3621,163
14.3993,190
14.4364,194
14.4736,164
14.5107,168
14.5479,165
14.5850,197
14.6222,167
14.6593,175
14.6965,168
14.7336,178
14.7708,175
14.8079,195
14.8451,151
14.8822,180
14.9194,175
14.9565,152
14.9937,160
15.0308,192
15.0680,171
15.1051,176
15.1423,147
15.1794,150
15.2166,160
15.2537,160
15.2909,156
15.3280,157
15.3652,159
15.4023,160
15.4395,158
15.4766,159
15.5138,170
15.5509,162
15.5881,149
15.6252,159
15.6624,163
15.6995,169
15.7367,165
15.7738,158
15.8110,176
15.8482,170
15.8853,150
15.9225,160
15.9596,156
15.9968,154
16.0339,147
16.0711,178
16.1082,172
16.1454,144
16.1825,164
16.2197,144
16.2568,149
16.2940,163
16.3311,169
16.3683,157
16.4054,158
16.4426,159
16.4797,162
16.5169,155
16.5540,157
16.5912,153
16.6283,172
16.6655,186
16.7026,151
16.7398,147
16.7769,178
16.8141,162
16.8512,147
16.8884,175
16.9255,186
16.9627,159
16.9998,163
17.0370,149
17.0741,177
17.1113,147
17.1484,162
17.1856,143
17.2227,191
17.2599,168
17.2970,160
17.3342,191
17.3713,163
17.4085,161
17.4457,145
17.4828,164
17.5200,184
17.5571,156
17.5943,163
17.6314,189
17.6686,166
17.7057,150
17.7429,144
17.7800,150
17.8172,171
17.8543,164
17.8915,152
17.9286,164
17.9658,158
18.0029,149
18.0401,170
18.0772,163
18.1144,174
18.1515,163
18.1887,155
18.2258,168
18.2630,169
18.3001,165
18.3373,176
18.3744,147
18.4116,182
18.4487,169
18.4859,174
18.5230,174
18.5602,162
18.5973,171
18.6345,181
18.6716,174
18.7088,166
18.7459,176
18.7831,159
18.8202,179
18.8574,170
18.8945,180
18.9317,172
18.9689,170
19.0060,191
19.0432,141
19.0803,165
19.1175,192
19.1546,171
19.1918,141
19.2289,178
19.2661,173
19.3032,160
19.3404,181
19.3775,167
19.4147,162
19.4518,189
19.4890,165
19.5261,175
19.5633,183
19.6004,193
19.6376,184
19.6747,170
19.7119,158
19.7490,164
19.7862,181
19.8233,171
19.8605,193
19.8976,187
19.9348,208
19.9719,178
20.0091,166
20.0462,171
20.0834,181
20.1205,181
20.1577,183
20.1948,176
20.2320,183
20.2691,183
20.3063,192
20.3434,185
20.3806,176
20.4177,200
20.4549,188
20.4921,185
20.5292,173
20.5664,187
20.6035,171
20.6407,194
20.6778,192
20.7150,184
20.7521,188
20.7893,169
20.8264,200
20.8636,150
20.9007,181
20.9379,195
20.9750,174
21.0122,184
21.0493,212
21.0865,207
21.1236,214
21.1608,221
21.1979,299
21.2351,314
21.2722,317
21.3094,309
21.3465,491
21.3837,439
21.4208,330
21.4580,242
21.4951,208
21.5323,186
21.5694,221
21.6066,186
21.6437,155
21.6809,179
21.7180,217
21.7552,207
21.7923,169
21.8295,187
21.8666,202
21.9038,203
21.9409,207
21.9781,191
22.0152,211
22.0524,189
22.0896,228
22.1267,181
22.1639,190
22.2010,196
22.2382,201
22.2753,197
22.3125,193
22.3496,205
22.3868,184
22.4239,220
22.4611,209
22.4982,196
22.5354,195
22.5725,197
22.6097,194
22.6468,180
22.6840,206
22.7211,188
22.7583,198
22.7954,203
22.8326,225
22.8697,171
22.9069,182
22.9440,186
22.9812,175
23.0183,218
23.0555,189
23.0926,199
23.1298,171
23.1669,227
23.2041,181
23.2412,213
23.2784,192
23.3155,181
23.3527,210
23.3898,211
23.4270,194
23.4641,198
23.5013,213
23.5384,217
23.5756,201
23.6128,197
23.6499,198
23.6871,188
23.7242,207
23.7614,202
23.7985,183
23.8357,213
23.8728,185
23.9100,223
23.9471,192
23.9843,194
24.0214,206
24.0586,217
24.0957,179
24.1329,214
24.1700,202
24.2072,193
24.2443,226
24.2815,221
24.3186,225
24.3558,214
24.3929,215
24.4301,212
24.4672,208
24.5044,208
24.5415,204
24.5787,195
24.6158,202
24.6530,191
24.6901,212
24.7273,192
24.7644,195
24.8016,221
24.8387,198
24.8759,189
24.9130,197
24.9502,196
24.9873,230
25.0245,200
25.0616,201
25.0988,205
25.1360,206
25.1731,188
25.2103,197
25.2474,207
25.2846,205
25.3217,248
25.3589,189
25.3960,199
25.4332,204
25.4703,185
25.5075,191
25.5446,196
25.5818,175
25.6189,183
25.6561,162
25.6932,180
25.7304,181
25.7675,191
25.8047,195
25.8418,178
25.8790,188
25.9161,219
25.9533,188
25.9904,180
26.0276,163
26.0647,184
26.1019,185
26.1390,183
26.1762,188
26.2133,221
26.2505,194
26.2876,193
26.3248,178
26.3619,193
26.3991,210
26.4362,191
26.4734,194
26.5105,149
26.5477,189
26.5848,207
26.6220,174
26.6591,191
26.6963,185
26.7335,206
26.7706,170
26.8078,187
26.8449,206
26.8821,198
26.9192,211
26.9564,188
26.9935,174
27.0307,194
27.0678,177
27.1050,192
27.1421,204
27.1793,230
27.2164,220
27.2536,208
27.2907,183
27.3279,217
27.3650,179
27.4022,192
27.4393,190
27.4765,183
27.5136,203
27.5508,159
27.5879,176
27.6251,157
27.6622,179
27.6994,170
27.7365,153
27.7737,167
27.8108,166
27.8480,179
27.8851,166
27.9223,195
27.9594,175
27.9966,185
28.0337,162
28.0709,186
28.1080,170
28.1452,162
28.1823,158
28.2195,161
28.2567,168
28.2938,173
28.3310,171
28.3681,178
28.4053,139
28.4424,155
28.4796,165
28.5167,187
28.5539,174
28.5910,139
28.6282,154
28.6653,170
28.7025,154
28.7396,186
28.7768,163
28.8139,143
28.8511,159
28.8882,164
28.9254,165
28.9625,160
28.9997,160
29.0368,171
29.0740,158
29.1111,168
29.1483,147
29.1854,165
29.2226,154
29.2597,171
29.2969,164
29.3340,142
29.3712,168
29.4083,169
29.4455,178
29.4826,147
29.5198,150
29.5569,160
29.5941,154
29.6312,144
29.6684,138
29.7055,139
29.7427,157
29.7799,148
29.8170,158
29.8542,157
29.8913,146
29.9285,152
29.9656,141
30.0028,182
30.0399,162
30.0771,144
30.1142,166
30.1514,188
30.1885,157
30.2257,138
30.2628,159
30.3000,144
30.3371,182
30.3743,325
30.4114,292
30.4486,247
30.4857,228
30.5229,174
30.5600,148
30.5972,145
30.6343,156
30.6715,172
30.7086,146
30.7458,143
30.7829,139
30.8201,140
30.8572,128
30.8944,163
30.9315,150
30.9687,150
31.0058,141
31.0430,164
31.0801,152
31.1173,157
31.1544,134
31.1916,153
31.2287,150
31.2659,140
31.3030,149
31.3402,140
31.3774,130
31.4145,135
31.4517,132
31.4888,153
31.5260,152
31.5631,136
31.6003,129
31.6374,146
31.6746,114
31.7117,110
31.7489,148
31.7860,155
31.8232,144
31.8603,142
31.8975,138
31.9346,145
31.9718,124
32.0089,120
32.0461,133
32.0832,127
32.1204,119
32.1575,143
32.1947,116
32.2318,142
32.2690,123
32.3061,122
32.3433,155
32.3804,146
32.4176,135
32.4547,167
32.4919,126
32.5290,158
32.5662,150
32.6033,132
32.6405,127
32.6776,124
32.7148,131
32.7519,112
32.7891,118
32.8262,114
32.8634,112
32.9006,125
32.9377,124
32.9749,141
33.0120,134
33.0492,106
33.0863,135
33.1235,131
33.1606,122
33.1978,127
33.2349,127
33.2721,126
33.3092,109
33.3464,114
33.3835,126
33.4207,119
33.4578,108
33.4950,120
33.5321,129
33.5693,125
33.6064,118
33.6436,132
33.6807,114
33.7179,113
33.7550,126
33.7922,125
33.8293,131
33.8665,133
33.9036,131
33.9408,122
33.9779,104
34.0151,108
34.0522,100
34.0894,113
34.1265,122
34.1637,111
34.2008,110
34.2380,115
34.2751,114
34.3123,109
34.3494,114
34.3866,117
34.4238,112
34.4609,120
34.4981,118
34.5352,135
34.5724,125
34.6095,122
34.6467,116
34.6838,138
34.7210,139
34.7581,154
34.7953,164
34.8324,123
34.8696,125
34.9067,109
34.9439,129
34.9810,107
35.0182,108
35.0553,109
35.0925,104
35.1296,107
35.1668,116
35.2039,113
35.2411,102
35.2782,87
35.3154,110
35.3525,112
35.3897,119
35.4268,114
35.4640,119
35.5011,92
35.5383,107
35.5754,101
35.6126,102
35.6497,118
35.6869,99
35.7240,91
35.7612,85
35.7983,106
35.8355,110
35.8726,96
35.9098,105
35.9469,97
35.9841,77
36.0213,96
36.0584,103
36.0956,110
36.1327,121
36.1699,92
36.2070,94
36.2442,114
36.2813,94
36.3185,108
36.3556,95
36.3928,124
36.4299,103
36.4671,85
36.5042,106
36.5414,104
36.5785,96
36.6157,101
36.6528,103
36.6900,90
36.7271,81
36.7643,83
36.8014,100
36.8386,83
36.8757,91
36.9129,92
36.9500,68
36.9872,107
37.0243,105
37.0615,97
37.0986,88
37.1358,98
37.1729,82
37.2101,83
37.2472,89
37.2844,81
37.3215,99
37.3587,113
37.3958,117
37.4330,170
37.4701,147
37.5073,121
37.5445,102
37.5816,113
37.6188,105
37.6559,85
37.6931,85
37.7302,87
37.7674,89
37.8045,79
37.8417,81
37.8788,82
37.9160,90
37.9531,75
37.9903,78
38.0274,89
38.0646,88
38.1017,83
38.1389,97
38.1760,86
38.2132,91
38.2503,74
38.2875,70
38.3246,97
38.3618,82
38.3989,84
38.4361,72
38.4732,71
38.5104,95
38.5475,76
38.5847,94
38.6218,99
38.6590,76
38.6961,79
38.7333,93
38.7704,80
38.8076,86
38.8447,96
38.8819,76
38.9190,81
38.9562,78
38.9933,93
39.0305,84
39.0677,79
39.1048,72
39.1420,77
39.1791,71
39.2163,74
39.2534,75
39.2906,66
39.3277,73
39.3649,77
39.4020,80
39.4392,71
39.4763,83
39.5135,63
39.5506,76
39.5878,84
39.6249,88
39.6621,91
39.6992,77
39.7364,82
39.7735,73
39.8107,84
39.8478,82
39.8850,82
39.9221,69
39.9593,61
39.9964,73
40.0336,79
40.0707,66
40.1079,71
40.1450,78
40.1822,63
40.2193,81
40.2565,83
40.2936,66
40.3308,73
40.3679,71
40.4051,67
40.4422,83
40.4794,81
40.5165,86
40.5537,69
40.5908,64
40.6280,84
40.6652,69
40.7023,73
40.7395,74
40.7766,75
40.8138,72
40.8509,77
40.8881,97
40.9252,82
40.9624,94
40.9995,80
41.0367,81
41.0738,83
41.1110,85
41.1481,76
41.1853,83
41.2224,65
41.2596,66
41.2967,75
41.3339,70
41.3710,77
41.4082,73
41.4453,81
41.4825,75
41.5196,67
41.5568,84
41.5939,75
41.6311,80
41.6682,73
41.7054,75
41.7425,80
41.7797,76
41.8168,63
41.8540,78
41.8911,83
41.9283,72
41.9654,83
42.0026,77
42.0397,71
42.0769,69
42.1140,79
42.1512,70
42.1884,65
42.2255,88
42.2627,83
42.2998,71
42.3370,87
42.3741,73
42.4113,57
42.4484,72
42.4856,70
42.5227,58
42.5599,75
42.5970,81
42.6342,79
42.6713,66
42.7085,74
42.7456,72
42.7828,68
42.8199,80
42.8571,68
42.8942,81
42.9314,78
42.9685,72
43.0057,68
43.0428,70
43.0800,79
43.1171,78
43.1543,83
43.1914,84
43.2286,92
43.2657,89
43.3029,88
43.3400,94
43.3772,81
43.4143,75
43.4515,95
43.4886,105
43.5258,109
43.5629,84
43.6001,97
43.6372,97
43.6744,86
43.7116,77
43.7487,68
43.7859,74
43.8230,77
43.8602,71
43.8973,76
43.9345,63
43.9716,64
44.0088,68
44.0459,64
44.0831,78
44.1202,69
44.1574,80
44.1945,68
44.2317,77
44.2688,59
44.3060,73
44.3431,71
44.3803,75
44.4174,73
44.4546,73
44.4917,73
44.5289,78
44.5660,67
44.6032,68
44.6403,65
44.6775,79
44.7146,72
44.7518,84
44.7889,90
44.8261,75
44.8632,69
44.9004,77
44.9375,65
44.9747,69
45.0118,74
45.0490,77
45.0861,75
45.1233,78
45.1604,53
45.1976,46
45.2347,72
45.2719,74
45.3091,70
45.3462,77
45.3834,77
45.4205,64
45.4577,87
45.4948,55
45.5320,78
45.5691,72
45.6063,60
45.6434,57
45.6806,74
45.7177,71
45.7549,79
45.7920,51
45.8292,68
45.8663,70
45.9035,71
45.9406,72
45.9778,76
46.0149,67
46.0521,81
46.0892,59
46.1264,77
46.1635,60
46.2007,64
46.2378,68
46.2750,61
46.3121,81
46.3493,60
46.3864,65
46.4236,64
46.4607,66
46.4979,59
46.5350,86
46.5722,61
46.6093,60
46.6465,64
46.6836,65
46.7208,68
46.7579,67
46.7951,82
46.8323,49
46.8694,77
46.9066,58
46.9437,56
46.9809,66
47.0180,59
47.0552,59
47.0923,75
47.1295,62
47.1666,70
47.2038,62
47.2409,64
47.2781,60
47.3152,68
47.3524,71
47.3895,57
47.4267,54
47.4638,73
47.5010,64
47.5381,71
47.5753,65
47.6124,61
47.6496,71
47.6867,56
47.7239,62
47.7610,58
47.7982,84
47.8353,58
47.8725,72
47.9096,65
47.9468,53
47.9839,63
48.0211,62
48.0582,79
48.0954,67
48.1325,64
48.1697,62
48.2068,52
48.2440,61
48.2811,65
48.3183,63
48.3555,66
48.3926,67
48.4298,70
48.4669,59
48.5041,54
48.5412,58
48.5784,68
48.6155,63
48.6527,61
48.6898,54
48.7270,74
48.7641,62
48.8013,61
48.8384,75
48.8756,67
48.9127,71
48.9499,124
48.9870,105
49.0242,61
49.0613,73
49.0985,83
49.1356,77
49.1728,67
49.2099,61
49.2471,60
49.2842,57
49.3214,82
49.3585,58
49.3957,65
49.4328,71
49.4700,65
49.5071,56
49.5443,56
49.5814,49
49.6186,54
49.6557,72
49.6929,61
49.7300,59
49.7672,64
49.8043,54
49.8415,66
49.8786,61
49.9158,57
49.9530,58
49.9901,72
50.0273,70
50.0644,66
50.1016,69
50.1387,82
50.1759,53
50.2130,66
50.2502,68
50.2873,61
50.3245,56
50.3616,56
50.3988,46
50.4359,47
50.4731,55
50.5102,70
50.5474,47
50.5845,60
50.6217,53
50.6588,65
50.6960,58
50.7331,61
50.7703,68
50.8074,63
50.8446,68
50.8817,58
50.9189,61
50.9560,70
50.9932,53
51.0303,62
51.0675,54
51.1046,57
51.1418,62
51.1789,55
51.2161,65
51.2532,80
51.2904,58
51.3275,70
51.3647,47
51.4018,61
51.4390,69
51.4762,60
51.5133,67
51.5505,82
51.5876,60
51.6248,63
51.6619,61
51.6991,55
51.7362,57
51.7734,64
51.8105,81
51.8477,64
51.8848,64
51.9220,71
51.9591,62
51.9963,54
52.0334,54
52.0706,73
52.1077,52
52.1449,63
52.1820,58
52.2192,62
52.2563,63
52.2935,58
52.3306,72
52.3678,50
52.4049,59
52.4421,44
52.4792,62
52.5164,50
52.5535,32
52.5907,50
52.6278,52
52.6650,65
52.7021,55
52.7393,51
52.7764,59
52.8136,59
52.8507,58
52.8879,58
52.9250,62
52.9622,55
52.9994,65
53.0365,68
53.0737,54
53.1108,61
53.1480,50
53.1851,65
53.2223,60
53.2594,69
53.2966,51
53.3337,57
53.3709,41
53.4080,45
53.4452,53
53.4823,56
53.5195,55
53.5566,55
53.5938,72
53.6309,44
53.6681,58
53.7052,71
53.7424,54
53.7795,67
53.8167,59
53.8538,51
53.8910,77
53.9281,61
53.9653,67
54.0024,93
54.0396,70
54.0767,55
54.1139,57
54.1510,61
54.1882,72
54.2253,54
54.2625,57
54.2996,50
54.3368,54
54.3739,80
54.4111,74
54.4482,60
54.4854,48
54.5225,62
54.5597,61
54.5969,47
54.6340,66
54.6712,48
54.7083,67
54.7455,53
54.7826,62
54.8198,46
54.8569,55
54.8941,49
54.9312,60
54.9684,56
55.0055,63
55.0427,45
55.0798,39
55.1170,57
55.1541,60
55.1913,54
55.2284,58
55.2656,48
55.3027,56
55.3399,55
55.3770,57
55.4142,52
55.4513,39
55.4885,55
55.5256,71
55.5628,56
55.5999,57
55.6371,72
55.6742,55
55.7114,55
55.7485,68
55.7857,48
55.8228,60
55.8600,62
55.8971,36
55.9343,56
55.9714,51
56.0086,61
56.0457,64
56.0829,58
56.1201,53
56.1572,61
56.1944,63
56.2315,64
56.2687,65
56.3058,65
56.3430,64
56.3801,73
56.4173,54
56.4544,59
56.4916,59
56.5287,60
56.5659,71
56.6030,59
56.6402,55
56.6773,68
56.7145,60
56.7516,64
56.7888,56
56.8259,57
56.8631,50
56.9002,59
56.9374,55
56.9745,63
57.0117,56
57.0488,56
57.0860,53
57.1231,52
57.1603,46
57.1974,55
57.2346,48
57.2717,53
57.3089,52
57.3460,48
57.3832,49
57.4203,40
57.4575,51
57.4946,55
57.5318,63
57.5689,53
57.6061,57
57.6433,57
57.6804,55
57.7176,58
57.7547,63
57.7919,53
57.8290,65
57.8662,61
57.9033,62
57.9405,53
57.9776,51
58.0148,54
58.0519,42
58.0891,44
58.1262,53
58.1634,59
58.2005,60
58.2377,46
58.2748,49
58.3120,52
58.3491,66
58.3863,62
58.4234,50
58.4606,65
58.4977,63
58.5349,55
58.5720,59
58.6092,56
58.6463,53
58.6835,63
58.7206,66
58.7578,45
58.7949,58
58.8321,50
58.8692,56
58.9064,50
58.9435,51
58.9807,50
59.0178,49
59.0550,51
59.0921,55
59.1293,50
59.1664,52
59.2036,47
59.2408,54
59.2779,46
59.3151,57
59.3522,53
59.3894,50
59.4265,53
59.4637,50
59.5008,53
59.5380,53
59.5751,63
59.6123,58
59.6494,55
59.6866,61
59.7237,54
59.7609,58
59.7980,60
59.8352,48
59.8723,50
59.9095,48
59.9466,51
59.9838,53
60.0024,59