File: notebooks/data/xrd_data/ML_20220720_9_SJD_4_LaB6-1min.csv
;,2THETA,
5.0000,92
5.0372,80
5.0743,114
5.1115,80
5.1486,87
5.1858,98
5.2229,77
5.2601,86
5.2972,91
5.3344,84
5.3715,70
5.4087,93
5.4458,73
5.4830,90
5.5201,79
5.5573,95
5.5944,73
5.6316,65
5.6687,70
5.7059,82
5.7430,76
5.7802,66
5.8173,85
5.8545,74
5.8916,68
5.9288,77
5.9659,65
6.0031,73
6.0402,70
6.0774,55
6.1145,64
6.1517,61
6.1888,71
6.2260,75
6.2631,66
6.3003,62
6.3374,62
6.3746,79
6.4117,62
6.4489,67
6.4860,70
6.5232,65
6.5604,64
6.5975,63
6.6347,60
6.6718,57
6.7090,63
6.7461,50
6.7833,60
6.8204,56
6.8576,48
6.8947,53
6.9319,58
6.9690,47
7.0062,63
7.0433,52
7.0805,60
7.1176,61
7.1548,48
7.1919,45
7.2291,51
7.2662,65
7.3034,61
7.3405,62
7.3777,60
7.4148,67
7.4520,67
7.4891,54
7.5263,49
7.5634,55
7.6006,58
7.6377,59
7.6749,62
7.7120,62
7.7492,66
7.7863,74
7.8235,65
7.8606,69
7.8978,58
7.9349,76
7.9721,69
8.0092,67
8.0464,63
8.0835,54
8.1207,73
8.1579,66
8.1950,58
8.2322,67
8.2693,68
8.3065,68
8.3436,68
8.3808,63
8.4179,67
8.4551,77
8.4922,72
8.5294,67
8.5665,70
8.6037,78
8.6408,65
8.6780,77
8.7151,70
8.7523,57
8.7894,63
8.8266,70
8.8637,73
8.9009,98
8.9380,82
8.9752,76
9.0123,49
9.0495,84
9.0866,74
9.1238,82
9.1609,74
9.1981,73
9.2352,77
9.2724,84
9.3095,73
9.3467,67
9.3838,82
9.4210,80
9.4581,88
9.4953,86
9.5324,90
9.5696,80
9.6067,83
9.6439,61
9.6811,84
9.7182,85
9.7554,81
9.7925,86
9.8297,80
9.8668,92
9.9040,75
9.9411,65
9.9783,91
10.0154,89
10.0526,107
10.0897,79
10.1269,82
10.1640,78
10.2012,78
10.2383,98
10.2755,83
10.3126,104
10.3498,95
10.3869,75
10.4241,87
10.4612,106
10.4984,84
10.5355,89
10.5727,79
10.6098,71
10.6470,112
10.6841,87
10.7213,82
10.7584,96
10.7956,84
10.8327,80
10.8699,87
10.9070,104
10.9442,89
10.9813,99
11.0185,83
11.0556,90
11.0928,79
11.1299,107
11.1671,82
11.2043,115
11.2414,69
11.2786,93
11.3157,100
11.3529,83
11.3900,93
11.4272,90
11.4643,77
11.5015,81
11.5386,88
11.5758,54
11.6129,75
11.6501,74
11.6872,80
11.7244,86
11.7615,72
11.7987,75
11.8358,85
11.8730,79
11.9101,73
11.9473,89
11.9844,78
12.0216,72
12.0587,65
12.0959,85
12.1330,89
12.1702,74
12.2073,77
12.2445,89
12.2816,81
12.3188,82
12.3559,66
12.3931,81
12.4302,77
12.4674,78
12.5045,91
12.5417,98
12.5788,68
12.6160,75
12.6531,84
12.6903,91
12.7274,79
12.7646,70
12.8018,68
12.8389,75
12.8761,76
12.9132,77
12.9504,71
12.9875,79
13.0247,69
13.0618,85
13.0990,56
13.1361,56
13.1733,54
13.2104,71
13.2476,91
13.2847,72
13.3219,67
13.3590,70
13.3962,68
13.4333,52
13.4705,64
13.5076,70
13.5448,63
13.5819,76
13.6191,78
13.6562,78
13.6934,80
13.7305,66
13.7677,56
13.8048,56
13.8420,67
13.8791,69
13.9163,67
13.9534,75
13.9906,74
14.0277,65
14.0649,76
14.1020,54
14.1392,53
14.1763,82
14.2135,75
14.2506,62
14.2878,55
14.3250,73
14.3621,56
14.3993,66
14.4364,62
14.4736,55
14.5107,69
14.5479,67
14.5850,59
14.6222,74
14.6593,70
14.6965,64
14.7336,58
14.7708,75
14.8079,67
14.8451,65
14.8822,58
14.9194,58
14.9565,53
14.9937,62
15.0308,61
15.0680,51
15.1051,53
15.1423,60
15.1794,50
15.2166,71
15.2537,58
15.2909,51
15.3280,57
15.3652,51
15.4023,66
15.4395,66
15.4766,59
15.5138,56
15.5509,70
15.5881,50
15.6252,57
15.6624,73
15.6995,58
15.7367,65
15.7738,70
15.8110,52
15.8482,46
15.8853,52
15.9225,50
15.9596,53
15.9968,51
16.0339,55
16.0711,64
16.1082,53
16.1454,51
16.1825,50
16.2197,57
16.2568,49
16.2940,65
16.3311,53
16.3683,57
16.4054,52
16.4426,65
16.4797,56
16.5169,62
16.5540,56
16.5912,59
16.6283,66
16.6655,65
16.7026,74
16.7398,49
16.7769,62
16.8141,62
16.8512,57
16.8884,52
16.9255,59
16.9627,61
16.9998,56
17.0370,63
17.0741,70
17.1113,66
17.1484,53
17.1856,65
17.2227,62
17.2599,49
17.2970,67
17.3342,50
17.3713,49
17.4085,68
17.4457,75
17.4828,54
17.5200,67
17.5571,52
17.5943,57
17.6314,59
17.6686,55
17.7057,50
17.7429,61
17.7800,57
17.8172,54
17.8543,44
17.8915,71
17.9286,61
17.9658,52
18.0029,57
18.0401,54
18.0772,60
18.1144,66
18.1515,65
18.1887,54
18.2258,60
18.2630,64
18.3001,70
18.3373,72
18.3744,53
18.4116,77
18.4487,62
18.4859,54
18.5230,50
18.5602,68
18.5973,58
18.6345,46
18.6716,58
18.7088,54
18.7459,70
18.7831,57
18.8202,46
18.8574,55
18.8945,57
18.9317,65
18.9689,59
19.0060,58
19.0432,61
19.0803,64
19.1175,65
19.1546,65
19.1918,69
19.2289,58
19.2661,72
19.3032,59
19.3404,48
19.3775,65
19.4147,60
19.4518,82
19.4890,58
19.5261,62
19.5633,72
19.6004,57
19.6376,64
19.6747,71
19.7119,56
19.7490,85
19.7862,44
19.8233,51
19.8605,59
19.8976,54
19.9348,55
19.9719,51
20.0091,62
20.0462,59
20.0834,71
20.1205,60
20.1577,63
20.1948,58
20.2320,81
20.2691,64
20.3063,52
20.3434,78
20.3806,78
20.4177,82
20.4549,75
20.4921,67
20.5292,72
20.5664,70
20.6035,66
20.6407,74
20.6778,75
20.7150,53
20.7521,55
20.7893,65
20.8264,65
20.8636,72
20.9007,67
20.9379,78
20.9750,86
21.0122,78
21.0493,65
21.0865,73
21.1236,62
21.1608,77
21.1979,114
21.2351,93
21.2722,111
21.3094,126
21.3465,191
21.3837,124
21.4208,76
21.4580,62
21.4951,73
21.5323,67
21.5694,78
21.6066,72
21.6437,74
21.6809,58
21.7180,56
21.7552,65
21.7923,71
21.8295,80
21.8666,64
21.9038,61
21.9409,63
21.9781,64
22.0152,69
22.0524,85
22.0896,65
22.1267,72
22.1639,51
22.2010,67
22.2382,72
22.2753,62
22.3125,76
22.3496,67
22.3868,49
22.4239,73
22.4611,70
22.4982,86
22.5354,70
22.5725,77
22.6097,61
22.6468,86
22.6840,80
22.7211,75
22.7583,64
22.7954,73
22.8326,95
22.8697,69
22.9069,73
22.9440,67
22.9812,70
23.0183,74
23.0555,64
23.0926,82
23.1298,73
23.1669,76
23.2041,89
23.2412,65
23.2784,72
23.3155,79
23.3527,78
23.3898,70
23.4270,83
23.4641,57
23.5013,67
23.5384,66
23.5756,63
23.6128,75
23.6499,85
23.6871,64
23.7242,69
23.7614,78
23.7985,64
23.8357,62
23.8728,63
23.9100,63
23.9471,70
23.9843,75
24.0214,64
24.0586,75
24.0957,75
24.1329,52
24.1700,70
24.2072,70
24.2443,84
24.2815,76
24.3186,82
24.3558,86
24.3929,56
24.4301,82
24.4672,81
24.5044,80
24.5415,67
24.5787,72
24.6158,79
24.6530,71
24.6901,69
24.7273,83
24.7644,76
24.8016,69
24.8387,68
24.8759,63
24.9130,70
24.9502,82
24.9873,71
25.0245,60
25.0616,68
25.0988,81
25.1360,58
25.1731,74
25.2103,72
25.2474,68
25.2846,57
25.3217,70
25.3589,56
25.3960,66
25.4332,63
25.4703,68
25.5075,67
25.5446,72
25.5818,70
25.6189,60
25.6561,59
25.6932,64
25.7304,81
25.7675,71
25.8047,59
25.8418,68
25.8790,62
25.9161,74
25.9533,60
25.9904,72
26.0276,61
26.0647,72
26.1019,68
26.1390,52
26.1762,77
26.2133,57
26.2505,68
26.2876,51
26.3248,72
26.3619,61
26.3991,55
26.4362,91
26.4734,51
26.5105,72
26.5477,62
26.5848,72
26.6220,64
26.6591,50
26.6963,76
26.7335,69
26.7706,62
26.8078,78
26.8449,68
26.8821,70
26.9192,74
26.9564,53
26.9935,65
27.0307,86
27.0678,63
27.1050,71
27.1421,74
27.1793,77
27.2164,67
27.2536,81
27.2907,60
27.3279,60
27.3650,79
27.4022,59
27.4393,61
27.4765,72
27.5136,77
27.5508,62
27.5879,62
27.6251,54
27.6622,67
27.6994,65
27.7365,62
27.7737,73
27.8108,67
27.8480,57
27.8851,62
27.9223,68
27.9594,65
27.9966,45
28.0337,56
28.0709,54
28.1080,65
28.1452,71
28.1823,56
28.2195,58
28.2567,48
28.2938,69
28.3310,52
28.3681,63
28.4053,67
28.4424,68
28.4796,50
28.5167,65
28.5539,71
28.5910,64
28.6282,63
28.6653,65
28.7025,71
28.7396,56
28.7768,56
28.8139,78
28.8511,51
28.8882,68
28.9254,61
28.9625,51
28.9997,60
29.0368,57
29.0740,63
29.1111,56
29.1483,58
29.1854,59
29.2226,48
29.2597,58
29.2969,67
29.3340,68
29.3712,80
29.4083,60
29.4455,64
29.4826,58
29.5198,57
29.5569,43
29.5941,52
29.6312,51
29.6684,63
29.7055,57
29.7427,56
29.7799,58
29.8170,60
29.8542,60
29.8913,64
29.9285,43
29.9656,70
30.0028,45
30.0399,63
30.0771,49
30.1142,45
30.1514,67
30.1885,64
30.2257,60
30.2628,55
30.3000,71
30.3371,97
30.3743,136
30.4114,77
30.4486,93
30.4857,72
30.5229,54
30.5600,59
30.5972,56
30.6343,40
30.6715,45
30.7086,64
30.7458,47
30.7829,49
30.8201,48
30.8572,57
30.8944,49
30.9315,57
30.9687,51
31.0058,48
31.0430,57
31.0801,41
31.1173,38
31.1544,54
31.1916,56
31.2287,51
31.2659,37
31.3030,56
31.3402,50
31.3774,43
31.4145,35
31.4517,44
31.4888,50
31.5260,40
31.5631,38
31.6003,51
31.6374,62
31.6746,48
31.7117,51
31.7489,42
31.7860,52
31.8232,66
31.8603,50
31.8975,43
31.9346,58
31.9718,50
32.0089,54
32.0461,41
32.0832,56
32.1204,45
32.1575,57
32.1947,34
32.2318,51
32.2690,43
32.3061,68
32.3433,40
32.3804,50
32.4176,48
32.4547,54
32.4919,50
32.5290,50
32.5662,63
32.6033,45
32.6405,40
32.6776,50
32.7148,47
32.7519,37
32.7891,48
32.8262,45
32.8634,38
32.9006,45
32.9377,52
32.9749,49
33.0120,36
33.0492,42
33.0863,48
33.1235,50
33.1606,55
33.1978,43
33.2349,37
33.2721,53
33.3092,51
33.3464,48
33.3835,42
33.4207,39
33.4578,38
33.4950,43
33.5321,47
33.5693,34
33.6064,49
33.6436,34
33.6807,42
33.7179,44
33.7550,40
33.7922,47
33.8293,41
33.8665,42
33.9036,53
33.9408,34
33.9779,32
34.0151,32
34.0522,39
34.0894,50
34.1265,48
34.1637,42
34.2008,33
34.2380,24
34.2751,42
34.3123,41
34.3494,43
34.3866,45
34.4238,34
34.4609,44
34.4981,51
34.5352,36
34.5724,43
34.6095,47
34.6467,54
34.6838,47
34.7210,66
34.7581,55
34.7953,62
34.8324,55
34.8696,38
34.9067,46
34.9439,49
34.9810,41
35.0182,45
35.0553,33
35.0925,40
35.1296,35
35.1668,34
35.2039,37
35.2411,31
35.2782,34
35.3154,34
35.3525,50
35.3897,29
35.4268,49
35.4640,28
35.5011,37
35.5383,49
35.5754,42
35.6126,34
35.6497,30
35.6869,32
35.7240,31
35.7612,35
35.7983,60
35.8355,35
35.8726,32
35.9098,32
35.9469,32
35.9841,43
36.0213,37
36.0584,29
36.0956,42
36.1327,34
36.1699,42
36.2070,39
36.2442,31
36.2813,43
36.3185,33
36.3556,40
36.3928,26
36.4299,31
36.4671,48
36.5042,26
36.5414,36
36.5785,33
36.6157,28
36.6528,29
36.6900,44
36.7271,39
36.7643,55
36.8014,30
36.8386,33
36.8757,34
36.9129,35
36.9500,44
36.9872,33
37.0243,35
37.0615,38
37.0986,26
37.1358,30
37.1729,37
37.2101,47
37.2472,34
37.2844,36
37.3215,34
37.3587,40
37.3958,54
37.4330,58
37.4701,47
37.5073,38
37.5445,48
37.5816,34
37.6188,33
37.6559,29
37.6931,35
37.7302,44
37.7674,28
37.8045,39
37.8417,37
37.8788,39
37.9160,40
37.9531,29
37.9903,29
38.0274,24
38.0646,31
38.1017,38
38.1389,35
38.1760,40
38.2132,25
38.2503,30
38.2875,29
38.3246,26
38.3618,34
38.3989,31
38.4361,35
38.4732,34
38.5104,37
38.5475,34
38.5847,30
38.6218,26
38.6590,29
38.6961,29
38.7333,23
38.7704,32
38.8076,33
38.8447,35
38.8819,35
38.9190,38
38.9562,31
38.9933,23
39.0305,37
39.0677,37
39.1048,32
39.1420,29
39.1791,24
39.2163,23
39.2534,21
39.2906,30
39.3277,21
39.3649,36
39.4020,29
39.4392,31
39.4763,29
39.5135,29
39.5506,27
39.5878,32
39.6249,35
39.6621,31
39.6992,30
39.7364,35
39.7735,18
39.8107,29
39.8478,27
39.8850,28
39.9221,36
39.9593,30
39.9964,27
40.0336,34
40.0707,39
40.1079,28
40.1450,38
40.1822,23
40.2193,27
40.2565,25
40.2936,35
40.3308,36
40.3679,31
40.4051,27
40.4422,34
40.4794,32
40.5165,26
40.5537,41
40.5908,27
40.6280,40
40.6652,30
40.7023,20
40.7395,23
40.7766,27
40.8138,26
40.8509,33
40.8881,30
40.9252,31
40.9624,35
40.9995,27
41.0367,33
41.0738,26
41.1110,39
41.1481,27
41.1853,33
41.2224,17
41.2596,26
41.2967,28
41.3339,35
41.3710,33
41.4082,28
41.4453,22
41.4825,38
41.5196,30
41.5568,29
41.5939,33
41.6311,21
41.6682,27
41.7054,28
41.7425,29
41.7797,37
41.8168,18
41.8540,19
41.8911,25
41.9283,31
41.9654,30
42.0026,23
42.0397,27
42.0769,32
42.1140,13
42.1512,25
42.1884,36
42.2255,23
42.2627,27
42.2998,25
42.3370,24
42.3741,18
42.4113,27
42.4484,30
42.4856,28
42.5227,13
42.5599,28
42.5970,35
42.6342,28
42.6713,23
42.7085,30
42.7456,26
42.7828,21
42.8199,25
42.8571,25
42.8942,25
42.9314,18
42.9685,28
43.0057,25
43.0428,23
43.0800,26
43.1171,24
43.1543,31
43.1914,35
43.2286,33
43.2657,34
43.3029,34
43.3400,39
43.3772,23
43.4143,26
43.4515,30
43.4886,60
43.5258,38
43.5629,46
43.6001,40
43.6372,32
43.6744,27
43.7116,30
43.7487,40
43.7859,25
43.8230,20
43.8602,17
43.8973,31
43.9345,22
43.9716,29
44.0088,28
44.0459,22
44.0831,24
44.1202,24
44.1574,27
44.1945,15
44.2317,25
44.2688,37
44.3060,22
44.3431,35
44.3803,30
44.4174,28
44.4546,29
44.4917,32
44.5289,21
44.5660,26
44.6032,31
44.6403,21
44.6775,25
44.7146,25
44.7518,17
44.7889,29
44.8261,23
44.8632,21
44.9004,30
44.9375,18
44.9747,18
45.0118,34
45.0490,31
45.0861,25
45.1233,35
45.1604,28
45.1976,32
45.2347,17
45.2719,24
45.3091,39
45.3462,21
45.3834,17
45.4205,32
45.4577,23
45.4948,29
45.5320,24
45.5691,24
45.6063,21
45.6434,23
45.6806,35
45.7177,25
45.7549,23
45.7920,20
45.8292,27
45.8663,24
45.9035,22
45.9406,27
45.9778,19
46.0149,30
46.0521,21
46.0892,30
46.1264,33
46.1635,20
46.2007,20
46.2378,29
46.2750,20
46.3121,29
46.3493,25
46.3864,25
46.4236,23
46.4607,20
46.4979,15
46.5350,32
46.5722,27
46.6093,23
46.6465,24
46.6836,25
46.7208,22
46.7579,29
46.7951,20
46.8323,22
46.8694,33
46.9066,18
46.9437,26
46.9809,22
47.0180,37
47.0552,27
47.0923,34
47.1295,14
47.1666,24
47.2038,19
47.2409,19
47.2781,12
47.3152,24
47.3524,25
47.3895,34
47.4267,19
47.4638,23
47.5010,23
47.5381,28
47.5753,20
47.6124,18
47.6496,26
47.6867,19
47.7239,24
47.7610,27
47.7982,22
47.8353,18
47.8725,16
47.9096,20
47.9468,20
47.9839,21
48.0211,25
48.0582,25
48.0954,25
48.1325,22
48.1697,22
48.2068,21
48.2440,25
48.2811,21
48.3183,29
48.3555,20
48.3926,23
48.4298,28
48.4669,25
48.5041,17
48.5412,18
48.5784,19
48.6155,24
48.6527,38
48.6898,24
48.7270,19
48.7641,27
48.8013,21
48.8384,16
48.8756,33
48.9127,41
48.9499,41
48.9870,34
49.0242,27
49.0613,26
49.0985,26
49.1356,28
49.1728,36
49.2099,22
49.2471,31
49.2842,20
49.3214,22
49.3585,27
49.3957,21
49.4328,35
49.4700,25
49.5071,21
49.5443,18
49.5814,22
49.6186,19
49.6557,16
49.6929,22
49.7300,29
49.7672,20
49.8043,21
49.8415,22
49.8786,26
49.9158,31
49.9530,18
49.9901,27
50.0273,18
50.0644,22
50.1016,28
50.1387,22
50.1759,19
50.2130,21
50.2502,18
50.2873,21
50.3245,26
50.3616,18
50.3988,24
50.4359,19
50.4731,19
50.5102,13
50.5474,24
50.5845,15
50.6217,28
50.6588,21
50.6960,19
50.7331,15
50.7703,18
50.8074,29
50.8446,23
50.8817,23
50.9189,15
50.9560,20
50.9932,23
51.0303,24
51.0675,17
51.1046,22
51.1418,24
51.1789,21
51.2161,19
51.2532,25
51.2904,24
51.3275,21
51.3647,30
51.4018,28
51.4390,17
51.4762,27
51.5133,18
51.5505,29
51.5876,21
51.6248,19
51.6619,21
51.6991,16
51.7362,25
51.7734,29
51.8105,26
51.8477,21
51.8848,25
51.9220,32
51.9591,19
51.9963,26
52.0334,26
52.0706,21
52.1077,19
52.1449,22
52.1820,23
52.2192,23
52.2563,14
52.2935,16
52.3306,15
52.3678,25
52.4049,23
52.4421,22
52.4792,19
52.5164,19
52.5535,18
52.5907,21
52.6278,14
52.6650,23
52.7021,23
52.7393,34
52.7764,25
52.8136,16
52.8507,12
52.8879,23
52.9250,18
52.9622,20
52.9994,19
53.0365,23
53.0737,22
53.1108,20
53.1480,24
53.1851,23
53.2223,21
53.2594,34
53.2966,21
53.3337,23
53.3709,29
53.4080,24
53.4452,15
53.4823,26
53.5195,24
53.5566,22
53.5938,25
53.6309,22
53.6681,20
53.7052,23
53.7424,28
53.7795,23
53.8167,28
53.8538,24
53.8910,13
53.9281,28
53.9653,26
54.0024,26
54.0396,27
54.0767,36
54.1139,34
54.1510,20
54.1882,25
54.2253,18
54.2625,26
54.2996,22
54.3368,31
54.3739,14
54.4111,19
54.4482,22
54.4854,16
54.5225,22
54.5597,24
54.5969,20
54.6340,23
54.6712,17
54.7083,23
54.7455,16
54.7826,24
54.8198,28
54.8569,25
54.8941,15
54.9312,13
54.9684,19
55.0055,11
55.0427,17
55.0798,23
55.1170,19
55.1541,28
55.1913,21
55.2284,17
55.2656,20
55.3027,24
55.3399,18
55.3770,24
55.4142,26
55.4513,22
55.4885,19
55.5256,20
55.5628,27
55.5999,21
55.6371,21
55.6742,17
55.7114,13
55.7485,18
55.7857,23
55.8228,19
55.8600,17
55.8971,18
55.9343,25
55.9714,25
56.0086,17
56.0457,24
56.0829,17
56.1201,17
56.1572,11
56.1944,22
56.2315,18
56.2687,23
56.3058,16
56.3430,26
56.3801,31
56.4173,29
56.4544,24
56.4916,16
56.5287,20
56.5659,24
56.6030,19
56.6402,19
56.6773,19
56.7145,17
56.7516,16
56.7888,23
56.8259,15
56.8631,18
56.9002,22
56.9374,17
56.9745,20
57.0117,23
57.0488,26
57.0860,14
57.1231,27
57.1603,20
57.1974,21
57.2346,20
57.2717,21
57.3089,24
57.3460,23
57.3832,28
57.4203,21
57.4575,22
57.4946,18
57.5318,22
57.5689,16
57.6061,20
57.6433,21
57.6804,22
57.7176,34
57.7547,18
57.7919,18
57.8290,21
57.8662,21
57.9033,21
57.9405,21
57.9776,18
58.0148,16
58.0519,16
58.0891,12
58.1262,26
58.1634,19
58.2005,18
58.2377,21
58.2748,21
58.3120,18
58.3491,24
58.3863,26
58.4234,23
58.4606,21
58.4977,16
58.5349,17
58.5720,17
58.6092,24
58.6463,22
58.6835,14
58.7206,17
58.7578,25
58.7949,18
58.8321,25
58.8692,20
58.9064,22
58.9435,21
58.9807,24
59.0178,21
59.0550,21
59.0921,18
59.1293,21
59.1664,22
59.2036,25
59.2408,11
59.2779,16
59.3151,24
59.3522,11
59.3894,21
59.4265,22
59.4637,16
59.5008,25
59.5380,21
59.5751,26
59.6123,21
59.6494,19
59.6866,11
59.7237,25
59.7609,17
59.7980,20
59.8352,22
59.8723,28
59.9095,27
59.9466,26
59.9838,20
60.0024,15