File: notebooks/data/xrd_data/ML_20220720_23_SJD_4_LaB6-1min.csv
;,2THETA,
5.0000,99
5.0372,126
5.0743,101
5.1115,77
5.1486,77
5.1858,84
5.2229,98
5.2601,105
5.2972,92
5.3344,77
5.3715,89
5.4087,87
5.4458,73
5.4830,90
5.5201,86
5.5573,100
5.5944,102
5.6316,88
5.6687,77
5.7059,82
5.7430,71
5.7802,74
5.8173,81
5.8545,83
5.8916,69
5.9288,81
5.9659,72
6.0031,74
6.0402,73
6.0774,57
6.1145,68
6.1517,63
6.1888,67
6.2260,71
6.2631,76
6.3003,72
6.3374,57
6.3746,81
6.4117,97
6.4489,63
6.4860,58
6.5232,60
6.5604,64
6.5975,63
6.6347,73
6.6718,61
6.7090,63
6.7461,56
6.7833,51
6.8204,68
6.8576,67
6.8947,58
6.9319,54
6.9690,62
7.0062,61
7.0433,67
7.0805,51
7.1176,56
7.1548,43
7.1919,58
7.2291,60
7.2662,59
7.3034,64
7.3405,56
7.3777,57
7.4148,75
7.4520,57
7.4891,50
7.5263,61
7.5634,63
7.6006,63
7.6377,63
7.6749,62
7.7120,75
7.7492,62
7.7863,58
7.8235,71
7.8606,66
7.8978,65
7.9349,73
7.9721,75
8.0092,64
8.0464,53
8.0835,59
8.1207,73
8.1579,57
8.1950,64
8.2322,79
8.2693,71
8.3065,68
8.3436,62
8.3808,70
8.4179,86
8.4551,78
8.4922,83
8.5294,81
8.5665,76
8.6037,66
8.6408,76
8.6780,71
8.7151,83
8.7523,80
8.7894,79
8.8266,64
8.8637,68
8.9009,77
8.9380,69
8.9752,82
9.0123,74
9.0495,84
9.0866,77
9.1238,80
9.1609,65
9.1981,92
9.2352,86
9.2724,81
9.3095,86
9.3467,83
9.3838,76
9.4210,80
9.4581,80
9.4953,86
9.5324,98
9.5696,81
9.6067,74
9.6439,76
9.6811,88
9.7182,87
9.7554,88
9.7925,78
9.8297,88
9.8668,104
9.9040,80
9.9411,93
9.9783,83
10.0154,84
10.0526,94
10.0897,82
10.1269,78
10.1640,101
10.2012,88
10.2383,94
10.2755,83
10.3126,86
10.3498,102
10.3869,93
10.4241,91
10.4612,101
10.4984,63
10.5355,91
10.5727,86
10.6098,91
10.6470,78
10.6841,87
10.7213,86
10.7584,72
10.7956,81
10.8327,69
10.8699,82
10.9070,83
10.9442,91
10.9813,83
11.0185,94
11.0556,89
11.0928,77
11.1299,91
11.1671,88
11.2043,99
11.2414,83
11.2786,84
11.3157,81
11.3529,79
11.3900,85
11.4272,69
11.4643,69
11.5015,94
11.5386,85
11.5758,91
11.6129,85
11.6501,73
11.6872,77
11.7244,100
11.7615,111
11.7987,91
11.8358,89
11.8730,92
11.9101,80
11.9473,94
11.9844,96
12.0216,90
12.0587,73
12.0959,59
12.1330,93
12.1702,77
12.2073,81
12.2445,85
12.2816,84
12.3188,80
12.3559,95
12.3931,99
12.4302,94
12.4674,80
12.5045,74
12.5417,96
12.5788,74
12.6160,76
12.6531,63
12.6903,79
12.7274,89
12.7646,80
12.8018,73
12.8389,68
12.8761,63
12.9132,73
12.9504,73
12.9875,73
13.0247,80
13.0618,85
13.0990,63
13.1361,63
13.1733,75
13.2104,77
13.2476,68
13.2847,79
13.3219,64
13.3590,65
13.3962,69
13.4333,81
13.4705,73
13.5076,61
13.5448,63
13.5819,51
13.6191,79
13.6562,69
13.6934,80
13.7305,66
13.7677,60
13.8048,60
13.8420,62
13.8791,65
13.9163,59
13.9534,55
13.9906,63
14.0277,69
14.0649,73
14.1020,68
14.1392,52
14.1763,72
14.2135,70
14.2506,78
14.2878,66
14.3250,53
14.3621,73
14.3993,64
14.4364,70
14.4736,81
14.5107,59
14.5479,72
14.5850,73
14.6222,77
14.6593,59
14.6965,79
14.7336,60
14.7708,57
14.8079,62
14.8451,54
14.8822,68
14.9194,72
14.9565,60
14.9937,59
15.0308,56
15.0680,61
15.1051,62
15.1423,70
15.1794,77
15.2166,58
15.2537,65
15.2909,56
15.3280,60
15.3652,54
15.4023,48
15.4395,67
15.4766,61
15.5138,62
15.5509,52
15.5881,66
15.6252,72
15.6624,64
15.6995,66
15.7367,58
15.7738,60
15.8110,58
15.8482,53
15.8853,60
15.9225,48
15.9596,78
15.9968,55
16.0339,70
16.0711,49
16.1082,79
16.1454,64
16.1825,72
16.2197,60
16.2568,50
16.2940,56
16.3311,55
16.3683,62
16.4054,61
16.4426,63
16.4797,69
16.5169,65
16.5540,57
16.5912,58
16.6283,58
16.6655,61
16.7026,54
16.7398,65
16.7769,80
16.8141,49
16.8512,56
16.8884,62
16.9255,52
16.9627,66
16.9998,64
17.0370,62
17.0741,65
17.1113,59
17.1484,55
17.1856,53
17.2227,59
17.2599,65
17.2970,71
17.3342,65
17.3713,56
17.4085,56
17.4457,60
17.4828,56
17.5200,58
17.5571,63
17.5943,49
17.6314,56
17.6686,55
17.7057,55
17.7429,62
17.7800,74
17.8172,79
17.8543,56
17.8915,62
17.9286,57
17.9658,57
18.0029,43
18.0401,65
18.0772,63
18.1144,75
18.1515,58
18.1887,53
18.2258,68
18.2630,77
18.3001,60
18.3373,57
18.3744,48
18.4116,63
18.4487,62
18.4859,63
18.5230,60
18.5602,63
18.5973,52
18.6345,61
18.6716,58
18.7088,64
18.7459,65
18.7831,55
18.8202,73
18.8574,50
18.8945,75
18.9317,64
18.9689,65
19.0060,46
19.0432,73
19.0803,63
19.1175,54
19.1546,62
19.1918,70
19.2289,57
19.2661,70
19.3032,59
19.3404,53
19.3775,47
19.4147,72
19.4518,72
19.4890,55
19.5261,66
19.5633,66
19.6004,64
19.6376,51
19.6747,67
19.7119,77
19.7490,66
19.7862,63
19.8233,71
19.8605,64
19.8976,65
19.9348,60
19.9719,60
20.0091,65
20.0462,65
20.0834,72
20.1205,77
20.1577,61
20.1948,83
20.2320,56
20.2691,61
20.3063,72
20.3434,55
20.3806,75
20.4177,70
20.4549,66
20.4921,81
20.5292,53
20.5664,58
20.6035,74
20.6407,61
20.6778,72
20.7150,69
20.7521,72
20.7893,51
20.8264,70
20.8636,80
20.9007,63
20.9379,86
20.9750,68
21.0122,68
21.0493,61
21.0865,70
21.1236,83
21.1608,82
21.1979,99
21.2351,116
21.2722,111
21.3094,108
21.3465,174
21.3837,140
21.4208,131
21.4580,75
21.4951,58
21.5323,78
21.5694,69
21.6066,64
21.6437,74
21.6809,71
21.7180,67
21.7552,77
21.7923,70
21.8295,94
21.8666,73
21.9038,82
21.9409,73
21.9781,75
22.0152,67
22.0524,74
22.0896,52
22.1267,49
22.1639,66
22.2010,70
22.2382,76
22.2753,70
22.3125,86
22.3496,91
22.3868,87
22.4239,80
22.4611,80
22.4982,64
22.5354,84
22.5725,88
22.6097,65
22.6468,72
22.6840,76
22.7211,81
22.7583,90
22.7954,84
22.8326,75
22.8697,84
22.9069,72
22.9440,64
22.9812,67
23.0183,77
23.0555,66
23.0926,73
23.1298,58
23.1669,73
23.2041,80
23.2412,67
23.2784,77
23.3155,61
23.3527,90
23.3898,78
23.4270,69
23.4641,59
23.5013,72
23.5384,71
23.5756,61
23.6128,81
23.6499,58
23.6871,66
23.7242,77
23.7614,76
23.7985,72
23.8357,77
23.8728,95
23.9100,68
23.9471,65
23.9843,76
24.0214,81
24.0586,67
24.0957,78
24.1329,70
24.1700,80
24.2072,82
24.2443,75
24.2815,85
24.3186,93
24.3558,84
24.3929,90
24.4301,72
24.4672,70
24.5044,77
24.5415,83
24.5787,72
24.6158,73
24.6530,81
24.6901,69
24.7273,82
24.7644,67
24.8016,81
24.8387,88
24.8759,68
24.9130,72
24.9502,69
24.9873,72
25.0245,71
25.0616,69
25.0988,76
25.1360,73
25.1731,75
25.2103,97
25.2474,74
25.2846,69
25.3217,83
25.3589,77
25.3960,74
25.4332,73
25.4703,64
25.5075,86
25.5446,71
25.5818,71
25.6189,66
25.6561,64
25.6932,75
25.7304,68
25.7675,82
25.8047,82
25.8418,72
25.8790,68
25.9161,66
25.9533,68
25.9904,81
26.0276,65
26.0647,69
26.1019,76
26.1390,77
26.1762,75
26.2133,84
26.2505,66
26.2876,70
26.3248,74
26.3619,66
26.3991,68
26.4362,74
26.4734,65
26.5105,72
26.5477,73
26.5848,66
26.6220,76
26.6591,74
26.6963,64
26.7335,70
26.7706,82
26.8078,62
26.8449,56
26.8821,65
26.9192,59
26.9564,70
26.9935,75
27.0307,66
27.0678,63
27.1050,70
27.1421,58
27.1793,86
27.2164,94
27.2536,85
27.2907,94
27.3279,65
27.3650,68
27.4022,76
27.4393,64
27.4765,70
27.5136,61
27.5508,71
27.5879,57
27.6251,59
27.6622,71
27.6994,66
27.7365,71
27.7737,76
27.8108,72
27.8480,64
27.8851,57
27.9223,56
27.9594,63
27.9966,51
28.0337,60
28.0709,64
28.1080,61
28.1452,63
28.1823,70
28.2195,61
28.2567,72
28.2938,57
28.3310,59
28.3681,72
28.4053,67
28.4424,70
28.4796,74
28.5167,66
28.5539,65
28.5910,45
28.6282,53
28.6653,62
28.7025,67
28.7396,64
28.7768,54
28.8139,58
28.8511,46
28.8882,69
28.9254,60
28.9625,64
28.9997,64
29.0368,51
29.0740,77
29.1111,73
29.1483,62
29.1854,64
29.2226,56
29.2597,55
29.2969,68
29.3340,72
29.3712,60
29.4083,68
29.4455,61
29.4826,67
29.5198,52
29.5569,54
29.5941,56
29.6312,49
29.6684,49
29.7055,52
29.7427,58
29.7799,62
29.8170,56
29.8542,63
29.8913,70
29.9285,60
29.9656,73
30.0028,62
30.0399,56
30.0771,56
30.1142,59
30.1514,52
30.1885,49
30.2257,66
30.2628,73
30.3000,72
30.3371,71
30.3743,126
30.4114,94
30.4486,90
30.4857,52
30.5229,62
30.5600,50
30.5972,60
30.6343,47
30.6715,67
30.7086,55
30.7458,55
30.7829,56
30.8201,56
30.8572,54
30.8944,50
30.9315,55
30.9687,51
31.0058,42
31.0430,57
31.0801,51
31.1173,59
31.1544,48
31.1916,54
31.2287,54
31.2659,53
31.3030,54
31.3402,52
31.3774,57
31.4145,55
31.4517,57
31.4888,62
31.5260,39
31.5631,54
31.6003,43
31.6374,51
31.6746,49
31.7117,53
31.7489,51
31.7860,46
31.8232,55
31.8603,47
31.8975,45
31.9346,44
31.9718,56
32.0089,62
32.0461,47
32.0832,58
32.1204,44
32.1575,59
32.1947,55
32.2318,53
32.2690,46
32.3061,47
32.3433,57
32.3804,52
32.4176,55
32.4547,49
32.4919,56
32.5290,49
32.5662,55
32.6033,50
32.6405,54
32.6776,56
32.7148,56
32.7519,40
32.7891,36
32.8262,37
32.8634,54
32.9006,45
32.9377,55
32.9749,38
33.0120,44
33.0492,43
33.0863,40
33.1235,45
33.1606,44
33.1978,39
33.2349,45
33.2721,49
33.3092,39
33.3464,54
33.3835,50
33.4207,50
33.4578,43
33.4950,53
33.5321,35
33.5693,49
33.6064,40
33.6436,34
33.6807,39
33.7179,38
33.7550,43
33.7922,41
33.8293,44
33.8665,43
33.9036,34
33.9408,41
33.9779,44
34.0151,39
34.0522,51
34.0894,45
34.1265,43
34.1637,32
34.2008,48
34.2380,31
34.2751,38
34.3123,50
34.3494,56
34.3866,34
34.4238,38
34.4609,34
34.4981,51
34.5352,53
34.5724,40
34.6095,59
34.6467,44
34.6838,30
34.7210,49
34.7581,58
34.7953,44
34.8324,48
34.8696,56
34.9067,38
34.9439,38
34.9810,54
35.0182,43
35.0553,42
35.0925,43
35.1296,32
35.1668,39
35.2039,42
35.2411,37
35.2782,31
35.3154,30
35.3525,49
35.3897,41
35.4268,42
35.4640,45
35.5011,23
35.5383,39
35.5754,38
35.6126,39
35.6497,33
35.6869,46
35.7240,36
35.7612,40
35.7983,37
35.8355,33
35.8726,34
35.9098,35
35.9469,29
35.9841,32
36.0213,38
36.0584,30
36.0956,40
36.1327,33
36.1699,28
36.2070,47
36.2442,23
36.2813,24
36.3185,29
36.3556,38
36.3928,37
36.4299,35
36.4671,38
36.5042,41
36.5414,37
36.5785,28
36.6157,28
36.6528,30
36.6900,34
36.7271,37
36.7643,35
36.8014,29
36.8386,36
36.8757,30
36.9129,48
36.9500,29
36.9872,35
37.0243,33
37.0615,24
37.0986,36
37.1358,35
37.1729,32
37.2101,42
37.2472,42
37.2844,29
37.3215,38
37.3587,35
37.3958,46
37.4330,59
37.4701,55
37.5073,35
37.5445,45
37.5816,36
37.6188,39
37.6559,32
37.6931,34
37.7302,34
37.7674,32
37.8045,33
37.8417,33
37.8788,38
37.9160,32
37.9531,38
37.9903,28
38.0274,28
38.0646,31
38.1017,33
38.1389,42
38.1760,31
38.2132,27
38.2503,18
38.2875,28
38.3246,30
38.3618,31
38.3989,33
38.4361,25
38.4732,25
38.5104,27
38.5475,33
38.5847,27
38.6218,33
38.6590,25
38.6961,34
38.7333,34
38.7704,18
38.8076,36
38.8447,33
38.8819,21
38.9190,30
38.9562,35
38.9933,41
39.0305,19
39.0677,30
39.1048,31
39.1420,27
39.1791,25
39.2163,31
39.2534,25
39.2906,26
39.3277,24
39.3649,30
39.4020,21
39.4392,28
39.4763,30
39.5135,23
39.5506,28
39.5878,28
39.6249,34
39.6621,23
39.6992,29
39.7364,28
39.7735,41
39.8107,31
39.8478,29
39.8850,38
39.9221,28
39.9593,31
39.9964,39
40.0336,28
40.0707,33
40.1079,27
40.1450,28
40.1822,28
40.2193,34
40.2565,26
40.2936,20
40.3308,32
40.3679,32
40.4051,26
40.4422,33
40.4794,32
40.5165,19
40.5537,25
40.5908,22
40.6280,31
40.6652,30
40.7023,29
40.7395,19
40.7766,27
40.8138,27
40.8509,35
40.8881,25
40.9252,28
40.9624,34
40.9995,33
41.0367,37
41.0738,29
41.1110,24
41.1481,19
41.1853,29
41.2224,24
41.2596,30
41.2967,24
41.3339,23
41.3710,36
41.4082,21
41.4453,21
41.4825,27
41.5196,26
41.5568,25
41.5939,26
41.6311,35
41.6682,27
41.7054,29
41.7425,27
41.7797,35
41.8168,21
41.8540,26
41.8911,35
41.9283,23
41.9654,21
42.0026,30
42.0397,30
42.0769,27
42.1140,32
42.1512,31
42.1884,26
42.2255,25
42.2627,28
42.2998,22
42.3370,35
42.3741,34
42.4113,22
42.4484,17
42.4856,21
42.5227,30
42.5599,31
42.5970,27
42.6342,28
42.6713,31
42.7085,32
42.7456,31
42.7828,29
42.8199,23
42.8571,20
42.8942,32
42.9314,19
42.9685,36
43.0057,17
43.0428,27
43.0800,31
43.1171,28
43.1543,29
43.1914,29
43.2286,27
43.2657,31
43.3029,34
43.3400,33
43.3772,29
43.4143,39
43.4515,26
43.4886,47
43.5258,42
43.5629,29
43.6001,32
43.6372,31
43.6744,24
43.7116,22
43.7487,32
43.7859,26
43.8230,27
43.8602,29
43.8973,38
43.9345,34
43.9716,22
44.0088,19
44.0459,23
44.0831,36
44.1202,30
44.1574,24
44.1945,22
44.2317,24
44.2688,21
44.3060,29
44.3431,33
44.3803,29
44.4174,27
44.4546,22
44.4917,20
44.5289,25
44.5660,41
44.6032,30
44.6403,26
44.6775,33
44.7146,32
44.7518,20
44.7889,18
44.8261,33
44.8632,34
44.9004,21
44.9375,36
44.9747,33
45.0118,25
45.0490,32
45.0861,25
45.1233,23
45.1604,25
45.1976,28
45.2347,33
45.2719,22
45.3091,22
45.3462,24
45.3834,19
45.4205,27
45.4577,21
45.4948,31
45.5320,27
45.5691,19
45.6063,25
45.6434,20
45.6806,26
45.7177,25
45.7549,23
45.7920,15
45.8292,27
45.8663,25
45.9035,32
45.9406,26
45.9778,28
46.0149,23
46.0521,31
46.0892,21
46.1264,25
46.1635,30
46.2007,26
46.2378,32
46.2750,25
46.3121,24
46.3493,23
46.3864,31
46.4236,23
46.4607,30
46.4979,28
46.5350,22
46.5722,23
46.6093,25
46.6465,29
46.6836,24
46.7208,15
46.7579,26
46.7951,29
46.8323,19
46.8694,36
46.9066,22
46.9437,29
46.9809,27
47.0180,24
47.0552,20
47.0923,28
47.1295,23
47.1666,21
47.2038,26
47.2409,22
47.2781,24
47.3152,21
47.3524,16
47.3895,19
47.4267,16
47.4638,24
47.5010,23
47.5381,21
47.5753,23
47.6124,24
47.6496,16
47.6867,21
47.7239,13
47.7610,16
47.7982,20
47.8353,20
47.8725,21
47.9096,18
47.9468,24
47.9839,18
48.0211,28
48.0582,17
48.0954,17
48.1325,29
48.1697,21
48.2068,18
48.2440,25
48.2811,18
48.3183,20
48.3555,31
48.3926,21
48.4298,26
48.4669,30
48.5041,24
48.5412,24
48.5784,18
48.6155,32
48.6527,25
48.6898,27
48.7270,21
48.7641,30
48.8013,20
48.8384,32
48.8756,24
48.9127,34
48.9499,38
48.9870,39
49.0242,21
49.0613,29
49.0985,42
49.1356,17
49.1728,19
49.2099,22
49.2471,24
49.2842,35
49.3214,22
49.3585,25
49.3957,23
49.4328,25
49.4700,20
49.5071,20
49.5443,29
49.5814,32
49.6186,21
49.6557,34
49.6929,20
49.7300,17
49.7672,24
49.8043,19
49.8415,15
49.8786,24
49.9158,22
49.9530,23
49.9901,13
50.0273,29
50.0644,20
50.1016,25
50.1387,23
50.1759,22
50.2130,18
50.2502,18
50.2873,28
50.3245,19
50.3616,23
50.3988,30
50.4359,19
50.4731,27
50.5102,18
50.5474,25
50.5845,16
50.6217,21
50.6588,33
50.6960,23
50.7331,16
50.7703,20
50.8074,20
50.8446,20
50.8817,14
50.9189,22
50.9560,21
50.9932,16
51.0303,24
51.0675,21
51.1046,23
51.1418,19
51.1789,28
51.2161,22
51.2532,25
51.2904,18
51.3275,37
51.3647,28
51.4018,24
51.4390,32
51.4762,25
51.5133,21
51.5505,21
51.5876,16
51.6248,22
51.6619,28
51.6991,18
51.7362,18
51.7734,26
51.8105,18
51.8477,22
51.8848,24
51.9220,24
51.9591,23
51.9963,21
52.0334,33
52.0706,21
52.1077,25
52.1449,17
52.1820,27
52.2192,21
52.2563,17
52.2935,23
52.3306,22
52.3678,13
52.4049,22
52.4421,21
52.4792,16
52.5164,29
52.5535,29
52.5907,26
52.6278,19
52.6650,20
52.7021,23
52.7393,21
52.7764,21
52.8136,16
52.8507,22
52.8879,19
52.9250,17
52.9622,24
52.9994,26
53.0365,18
53.0737,26
53.1108,25
53.1480,24
53.1851,21
53.2223,23
53.2594,21
53.2966,25
53.3337,26
53.3709,22
53.4080,20
53.4452,25
53.4823,14
53.5195,19
53.5566,21
53.5938,26
53.6309,21
53.6681,22
53.7052,19
53.7424,21
53.7795,15
53.8167,20
53.8538,23
53.8910,22
53.9281,24
53.9653,22
54.0024,47
54.0396,26
54.0767,24
54.1139,24
54.1510,23
54.1882,20
54.2253,23
54.2625,27
54.2996,21
54.3368,17
54.3739,22
54.4111,22
54.4482,19
54.4854,17
54.5225,24
54.5597,26
54.5969,13
54.6340,23
54.6712,21
54.7083,13
54.7455,16
54.7826,19
54.8198,21
54.8569,20
54.8941,26
54.9312,23
54.9684,27
55.0055,24
55.0427,21
55.0798,22
55.1170,22
55.1541,22
55.1913,19
55.2284,12
55.2656,19
55.3027,21
55.3399,30
55.3770,15
55.4142,17
55.4513,15
55.4885,15
55.5256,27
55.5628,25
55.5999,24
55.6371,17
55.6742,22
55.7114,18
55.7485,24
55.7857,18
55.8228,21
55.8600,11
55.8971,26
55.9343,21
55.9714,20
56.0086,23
56.0457,28
56.0829,24
56.1201,26
56.1572,22
56.1944,20
56.2315,20
56.2687,19
56.3058,22
56.3430,19
56.3801,24
56.4173,24
56.4544,18
56.4916,19
56.5287,29
56.5659,21
56.6030,19
56.6402,24
56.6773,23
56.7145,21
56.7516,22
56.7888,18
56.8259,24
56.8631,27
56.9002,22
56.9374,21
56.9745,18
57.0117,21
57.0488,12
57.0860,16
57.1231,18
57.1603,26
57.1974,19
57.2346,23
57.2717,23
57.3089,17
57.3460,30
57.3832,20
57.4203,20
57.4575,24
57.4946,17
57.5318,15
57.5689,18
57.6061,17
57.6433,22
57.6804,23
57.7176,26
57.7547,24
57.7919,11
57.8290,18
57.8662,15
57.9033,22
57.9405,23
57.9776,22
58.0148,20
58.0519,15
58.0891,29
58.1262,21
58.1634,15
58.2005,24
58.2377,16
58.2748,23
58.3120,17
58.3491,23
58.3863,26
58.4234,19
58.4606,13
58.4977,24
58.5349,21
58.5720,20
58.6092,26
58.6463,20
58.6835,13
58.7206,19
58.7578,18
58.7949,23
58.8321,28
58.8692,23
58.9064,29
58.9435,19
58.9807,24
59.0178,21
59.0550,23
59.0921,19
59.1293,19
59.1664,18
59.2036,26
59.2408,26
59.2779,27
59.3151,23
59.3522,18
59.3894,19
59.4265,19
59.4637,25
59.5008,25
59.5380,19
59.5751,22
59.6123,20
59.6494,15
59.6866,10
59.7237,15
59.7609,23
59.7980,27
59.8352,18
59.8723,24
59.9095,26
59.9466,14
59.9838,25
60.0024,18