File: notebooks/data/xrd_data/ML_20220718_7_SJD_4_LaB6-2min.csv
;,2THETA,
5.0000,139
5.0372,145
5.0743,145
5.1115,134
5.1486,129
5.1858,113
5.2229,118
5.2601,138
5.2972,97
5.3344,111
5.3715,120
5.4087,107
5.4458,102
5.4830,117
5.5201,101
5.5573,121
5.5944,92
5.6316,99
5.6687,133
5.7059,86
5.7430,110
5.7802,111
5.8173,122
5.8545,95
5.8916,113
5.9288,95
5.9659,100
6.0031,96
6.0402,98
6.0774,114
6.1145,87
6.1517,107
6.1888,100
6.2260,94
6.2631,106
6.3003,103
6.3374,100
6.3746,72
6.4117,91
6.4489,91
6.4860,77
6.5232,100
6.5604,86
6.5975,96
6.6347,85
6.6718,88
6.7090,98
6.7461,87
6.7833,75
6.8204,67
6.8576,86
6.8947,83
6.9319,79
6.9690,62
7.0062,87
7.0433,101
7.0805,78
7.1176,66
7.1548,86
7.1919,66
7.2291,71
7.2662,67
7.3034,69
7.3405,73
7.3777,80
7.4148,79
7.4520,86
7.4891,83
7.5263,97
7.5634,79
7.6006,95
7.6377,91
7.6749,97
7.7120,108
7.7492,105
7.7863,91
7.8235,74
7.8606,79
7.8978,95
7.9349,91
7.9721,92
8.0092,101
8.0464,82
8.0835,91
8.1207,100
8.1579,80
8.1950,85
8.2322,97
8.2693,100
8.3065,74
8.3436,106
8.3808,101
8.4179,93
8.4551,92
8.4922,94
8.5294,103
8.5665,92
8.6037,91
8.6408,95
8.6780,104
8.7151,119
8.7523,91
8.7894,117
8.8266,94
8.8637,93
8.9009,105
8.9380,108
8.9752,115
9.0123,105
9.0495,105
9.0866,103
9.1238,111
9.1609,110
9.1981,125
9.2352,106
9.2724,106
9.3095,107
9.3467,92
9.3838,117
9.4210,112
9.4581,118
9.4953,112
9.5324,90
9.5696,102
9.6067,90
9.6439,110
9.6811,101
9.7182,103
9.7554,99
9.7925,118
9.8297,97
9.8668,114
9.9040,111
9.9411,115
9.9783,123
10.0154,134
10.0526,125
10.0897,118
10.1269,120
10.1640,105
10.2012,120
10.2383,112
10.2755,103
10.3126,110
10.3498,155
10.3869,99
10.4241,113
10.4612,110
10.4984,112
10.5355,116
10.5727,125
10.6098,134
10.6470,102
10.6841,155
10.7213,119
10.7584,126
10.7956,124
10.8327,118
10.8699,124
10.9070,126
10.9442,110
10.9813,113
11.0185,129
11.0556,102
11.0928,122
11.1299,121
11.1671,108
11.2043,126
11.2414,98
11.2786,111
11.3157,124
11.3529,132
11.3900,115
11.4272,130
11.4643,114
11.5015,112
11.5386,119
11.5758,104
11.6129,105
11.6501,116
11.6872,111
11.7244,119
11.7615,118
11.7987,99
11.8358,118
11.8730,119
11.9101,122
11.9473,108
11.9844,113
12.0216,98
12.0587,115
12.0959,96
12.1330,100
12.1702,119
12.2073,111
12.2445,119
12.2816,111
12.3188,113
12.3559,109
12.3931,99
12.4302,84
12.4674,127
12.5045,100
12.5417,103
12.5788,110
12.6160,103
12.6531,107
12.6903,97
12.7274,104
12.7646,117
12.8018,87
12.8389,101
12.8761,117
12.9132,108
12.9504,110
12.9875,103
13.0247,105
13.0618,114
13.0990,96
13.1361,114
13.1733,102
13.2104,101
13.2476,97
13.2847,94
13.3219,89
13.3590,112
13.3962,97
13.4333,80
13.4705,80
13.5076,88
13.5448,119
13.5819,89
13.6191,89
13.6562,92
13.6934,90
13.7305,79
13.7677,94
13.8048,107
13.8420,91
13.8791,85
13.9163,68
13.9534,100
13.9906,99
14.0277,91
14.0649,107
14.1020,102
14.1392,88
14.1763,80
14.2135,91
14.2506,72
14.2878,83
14.3250,87
14.3621,85
14.3993,83
14.4364,95
14.4736,84
14.5107,91
14.5479,77
14.5850,76
14.6222,76
14.6593,96
14.6965,69
14.7336,91
14.7708,81
14.8079,75
14.8451,79
14.8822,84
14.9194,93
14.9565,73
14.9937,68
15.0308,89
15.0680,88
15.1051,73
15.1423,76
15.1794,78
15.2166,71
15.2537,84
15.2909,82
15.3280,90
15.3652,88
15.4023,86
15.4395,106
15.4766,87
15.5138,72
15.5509,78
15.5881,76
15.6252,82
15.6624,89
15.6995,69
15.7367,90
15.7738,70
15.8110,98
15.8482,94
15.8853,87
15.9225,82
15.9596,76
15.9968,83
16.0339,72
16.0711,84
16.1082,83
16.1454,80
16.1825,86
16.2197,67
16.2568,97
16.2940,76
16.3311,69
16.3683,70
16.4054,86
16.4426,89
16.4797,81
16.5169,72
16.5540,86
16.5912,85
16.6283,67
16.6655,94
16.7026,89
16.7398,61
16.7769,82
16.8141,59
16.8512,73
16.8884,64
16.9255,77
16.9627,80
16.9998,80
17.0370,90
17.0741,90
17.1113,87
17.1484,78
17.1856,76
17.2227,78
17.2599,64
17.2970,89
17.3342,73
17.3713,87
17.4085,90
17.4457,72
17.4828,72
17.5200,82
17.5571,89
17.5943,67
17.6314,89
17.6686,61
17.7057,85
17.7429,98
17.7800,88
17.8172,78
17.8543,95
17.8915,92
17.9286,83
17.9658,80
18.0029,87
18.0401,79
18.0772,97
18.1144,76
18.1515,83
18.1887,89
18.2258,96
18.2630,80
18.3001,66
18.3373,82
18.3744,89
18.4116,78
18.4487,86
18.4859,85
18.5230,105
18.5602,79
18.5973,85
18.6345,94
18.6716,74
18.7088,82
18.7459,90
18.7831,91
18.8202,84
18.8574,96
18.8945,78
18.9317,81
18.9689,83
19.0060,83
19.0432,75
19.0803,79
19.1175,81
19.1546,82
19.1918,107
19.2289,83
19.2661,81
19.3032,71
19.3404,74
19.3775,90
19.4147,83
19.4518,91
19.4890,82
19.5261,94
19.5633,86
19.6004,87
19.6376,86
19.6747,91
19.7119,68
19.7490,91
19.7862,63
19.8233,76
19.8605,96
19.8976,87
19.9348,95
19.9719,84
20.0091,96
20.0462,93
20.0834,82
20.1205,81
20.1577,88
20.1948,88
20.2320,97
20.2691,93
20.3063,92
20.3434,95
20.3806,99
20.4177,79
20.4549,96
20.4921,84
20.5292,107
20.5664,93
20.6035,87
20.6407,93
20.6778,94
20.7150,88
20.7521,108
20.7893,92
20.8264,113
20.8636,95
20.9007,107
20.9379,99
20.9750,100
21.0122,92
21.0493,96
21.0865,104
21.1236,95
21.1608,112
21.1979,123
21.2351,157
21.2722,144
21.3094,146
21.3465,272
21.3837,203
21.4208,161
21.4580,102
21.4951,107
21.5323,108
21.5694,110
21.6066,106
21.6437,87
21.6809,91
21.7180,89
21.7552,90
21.7923,96
21.8295,89
21.8666,107
21.9038,83
21.9409,95
21.9781,94
22.0152,90
22.0524,104
22.0896,95
22.1267,86
22.1639,92
22.2010,98
22.2382,86
22.2753,105
22.3125,99
22.3496,98
22.3868,101
22.4239,113
22.4611,81
22.4982,100
22.5354,96
22.5725,102
22.6097,106
22.6468,92
22.6840,99
22.7211,98
22.7583,100
22.7954,97
22.8326,108
22.8697,81
22.9069,96
22.9440,94
22.9812,94
23.0183,104
23.0555,84
23.0926,113
23.1298,99
23.1669,98
23.2041,89
23.2412,103
23.2784,82
23.3155,111
23.3527,102
23.3898,97
23.4270,99
23.4641,98
23.5013,90
23.5384,95
23.5756,102
23.6128,93
23.6499,89
23.6871,103
23.7242,100
23.7614,90
23.7985,99
23.8357,97
23.8728,80
23.9100,121
23.9471,93
23.9843,102
24.0214,105
24.0586,111
24.0957,111
24.1329,114
24.1700,106
24.2072,95
24.2443,127
24.2815,111
24.3186,108
24.3558,111
24.3929,109
24.4301,121
24.4672,103
24.5044,115
24.5415,105
24.5787,91
24.6158,103
24.6530,108
24.6901,85
24.7273,81
24.7644,104
24.8016,105
24.8387,102
24.8759,101
24.9130,102
24.9502,103
24.9873,81
25.0245,109
25.0616,97
25.0988,98
25.1360,105
25.1731,98
25.2103,94
25.2474,105
25.2846,89
25.3217,114
25.3589,100
25.3960,98
25.4332,111
25.4703,101
25.5075,81
25.5446,81
25.5818,93
25.6189,94
25.6561,80
25.6932,92
25.7304,117
25.7675,108
25.8047,93
25.8418,94
25.8790,79
25.9161,96
25.9533,84
25.9904,95
26.0276,88
26.0647,97
26.1019,92
26.1390,84
26.1762,107
26.2133,78
26.2505,111
26.2876,91
26.3248,105
26.3619,100
26.3991,101
26.4362,88
26.4734,97
26.5105,85
26.5477,84
26.5848,100
26.6220,97
26.6591,85
26.6963,79
26.7335,101
26.7706,88
26.8078,76
26.8449,101
26.8821,106
26.9192,102
26.9564,99
26.9935,86
27.0307,103
27.0678,79
27.1050,93
27.1421,100
27.1793,115
27.2164,120
27.2536,114
27.2907,106
27.3279,105
27.3650,95
27.4022,97
27.4393,82
27.4765,89
27.5136,83
27.5508,100
27.5879,78
27.6251,68
27.6622,86
27.6994,98
27.7365,106
27.7737,80
27.8108,78
27.8480,96
27.8851,81
27.9223,86
27.9594,100
27.9966,80
28.0337,78
28.0709,77
28.1080,83
28.1452,76
28.1823,92
28.2195,81
28.2567,89
28.2938,84
28.3310,79
28.3681,69
28.4053,75
28.4424,98
28.4796,85
28.5167,74
28.5539,59
28.5910,95
28.6282,76
28.6653,69
28.7025,75
28.7396,87
28.7768,69
28.8139,81
28.8511,90
28.8882,93
28.9254,74
28.9625,82
28.9997,69
29.0368,91
29.0740,73
29.1111,83
29.1483,74
29.1854,84
29.2226,91
29.2597,87
29.2969,83
29.3340,88
29.3712,67
29.4083,70
29.4455,74
29.4826,75
29.5198,82
29.5569,84
29.5941,81
29.6312,80
29.6684,81
29.7055,93
29.7427,75
29.7799,76
29.8170,90
29.8542,93
29.8913,74
29.9285,80
29.9656,73
30.0028,79
30.0399,75
30.0771,71
30.1142,77
30.1514,65
30.1885,79
30.2257,81
30.2628,87
30.3000,90
30.3371,82
30.3743,178
30.4114,136
30.4486,107
30.4857,76
30.5229,76
30.5600,76
30.5972,74
30.6343,77
30.6715,73
30.7086,64
30.7458,80
30.7829,75
30.8201,86
30.8572,73
30.8944,79
30.9315,93
30.9687,70
31.0058,56
31.0430,80
31.0801,92
31.1173,59
31.1544,71
31.1916,71
31.2287,81
31.2659,62
31.3030,58
31.3402,63
31.3774,65
31.4145,58
31.4517,70
31.4888,62
31.5260,69
31.5631,82
31.6003,75
31.6374,67
31.6746,60
31.7117,63
31.7489,63
31.7860,66
31.8232,62
31.8603,55
31.8975,75
31.9346,69
31.9718,68
32.0089,67
32.0461,52
32.0832,62
32.1204,56
32.1575,83
32.1947,72
32.2318,63
32.2690,66
32.3061,68
32.3433,69
32.3804,52
32.4176,64
32.4547,69
32.4919,70
32.5290,60
32.5662,77
32.6033,71
32.6405,63
32.6776,55
32.7148,71
32.7519,72
32.7891,74
32.8262,50
32.8634,62
32.9006,58
32.9377,52
32.9749,64
33.0120,64
33.0492,62
33.0863,65
33.1235,50
33.1606,54
33.1978,46
33.2349,64
33.2721,60
33.3092,61
33.3464,62
33.3835,54
33.4207,61
33.4578,58
33.4950,55
33.5321,66
33.5693,54
33.6064,74
33.6436,66
33.6807,49
33.7179,51
33.7550,73
33.7922,56
33.8293,62
33.8665,63
33.9036,54
33.9408,60
33.9779,59
34.0151,60
34.0522,63
34.0894,49
34.1265,52
34.1637,58
34.2008,62
34.2380,58
34.2751,61
34.3123,58
34.3494,46
34.3866,49
34.4238,57
34.4609,60
34.4981,64
34.5352,58
34.5724,66
34.6095,64
34.6467,57
34.6838,57
34.7210,69
34.7581,84
34.7953,52
34.8324,70
34.8696,79
34.9067,64
34.9439,57
34.9810,43
35.0182,52
35.0553,40
35.0925,56
35.1296,58
35.1668,49
35.2039,43
35.2411,60
35.2782,41
35.3154,51
35.3525,60
35.3897,61
35.4268,53
35.4640,54
35.5011,56
35.5383,56
35.5754,44
35.6126,54
35.6497,40
35.6869,52
35.7240,45
35.7612,52
35.7983,42
35.8355,40
35.8726,47
35.9098,50
35.9469,48
35.9841,52
36.0213,39
36.0584,53
36.0956,48
36.1327,51
36.1699,51
36.2070,55
36.2442,38
36.2813,55
36.3185,52
36.3556,41
36.3928,44
36.4299,48
36.4671,40
36.5042,39
36.5414,45
36.5785,48
36.6157,42
36.6528,49
36.6900,41
36.7271,51
36.7643,44
36.8014,37
36.8386,44
36.8757,52
36.9129,32
36.9500,40
36.9872,46
37.0243,56
37.0615,50
37.0986,48
37.1358,49
37.1729,38
37.2101,60
37.2472,43
37.2844,46
37.3215,45
37.3587,61
37.3958,59
37.4330,73
37.4701,69
37.5073,62
37.5445,61
37.5816,44
37.6188,42
37.6559,49
37.6931,38
37.7302,42
37.7674,61
37.8045,45
37.8417,51
37.8788,47
37.9160,44
37.9531,40
37.9903,49
38.0274,51
38.0646,52
38.1017,41
38.1389,48
38.1760,40
38.2132,45
38.2503,49
38.2875,33
38.3246,38
38.3618,47
38.3989,38
38.4361,40
38.4732,49
38.5104,39
38.5475,37
38.5847,41
38.6218,39
38.6590,45
38.6961,50
38.7333,37
38.7704,45
38.8076,41
38.8447,43
38.8819,43
38.9190,43
38.9562,43
38.9933,51
39.0305,41
39.0677,48
39.1048,44
39.1420,39
39.1791,48
39.2163,46
39.2534,49
39.2906,48
39.3277,52
39.3649,32
39.4020,39
39.4392,35
39.4763,44
39.5135,42
39.5506,39
39.5878,33
39.6249,35
39.6621,42
39.6992,42
39.7364,42
39.7735,51
39.8107,40
39.8478,34
39.8850,38
39.9221,34
39.9593,35
39.9964,37
40.0336,47
40.0707,34
40.1079,42
40.1450,33
40.1822,37
40.2193,43
40.2565,37
40.2936,50
40.3308,40
40.3679,44
40.4051,34
40.4422,39
40.4794,36
40.5165,35
40.5537,32
40.5908,38
40.6280,50
40.6652,37
40.7023,36
40.7395,41
40.7766,34
40.8138,27
40.8509,38
40.8881,40
40.9252,47
40.9624,46
40.9995,42
41.0367,38
41.0738,46
41.1110,52
41.1481,44
41.1853,42
41.2224,28
41.2596,40
41.2967,41
41.3339,47
41.3710,43
41.4082,36
41.4453,36
41.4825,37
41.5196,42
41.5568,39
41.5939,40
41.6311,28
41.6682,38
41.7054,32
41.7425,50
41.7797,25
41.8168,36
41.8540,34
41.8911,39
41.9283,36
41.9654,37
42.0026,45
42.0397,35
42.0769,34
42.1140,42
42.1512,32
42.1884,43
42.2255,36
42.2627,47
42.2998,45
42.3370,36
42.3741,38
42.4113,37
42.4484,31
42.4856,41
42.5227,33
42.5599,33
42.5970,33
42.6342,34
42.6713,36
42.7085,31
42.7456,36
42.7828,49
42.8199,44
42.8571,42
42.8942,36
42.9314,43
42.9685,34
43.0057,37
43.0428,41
43.0800,35
43.1171,44
43.1543,33
43.1914,40
43.2286,41
43.2657,40
43.3029,46
43.3400,41
43.3772,45
43.4143,40
43.4515,43
43.4886,61
43.5258,60
43.5629,55
43.6001,51
43.6372,57
43.6744,36
43.7116,40
43.7487,50
43.7859,36
43.8230,51
43.8602,28
43.8973,46
43.9345,32
43.9716,35
44.0088,40
44.0459,36
44.0831,26
44.1202,39
44.1574,41
44.1945,32
44.2317,43
44.2688,40
44.3060,35
44.3431,43
44.3803,42
44.4174,38
44.4546,34
44.4917,37
44.5289,40
44.5660,44
44.6032,36
44.6403,47
44.6775,39
44.7146,39
44.7518,41
44.7889,34
44.8261,35
44.8632,37
44.9004,36
44.9375,36
44.9747,38
45.0118,34
45.0490,28
45.0861,33
45.1233,27
45.1604,37
45.1976,34
45.2347,31
45.2719,36
45.3091,30
45.3462,44
45.3834,37
45.4205,26
45.4577,35
45.4948,46
45.5320,30
45.5691,33
45.6063,27
45.6434,38
45.6806,37
45.7177,35
45.7549,24
45.7920,32
45.8292,29
45.8663,41
45.9035,30
45.9406,30
45.9778,33
46.0149,37
46.0521,27
46.0892,45
46.1264,31
46.1635,30
46.2007,33
46.2378,28
46.2750,27
46.3121,31
46.3493,25
46.3864,28
46.4236,37
46.4607,29
46.4979,39
46.5350,27
46.5722,31
46.6093,42
46.6465,40
46.6836,25
46.7208,36
46.7579,23
46.7951,26
46.8323,33
46.8694,33
46.9066,26
46.9437,40
46.9809,30
47.0180,33
47.0552,21
47.0923,21
47.1295,37
47.1666,36
47.2038,31
47.2409,36
47.2781,31
47.3152,34
47.3524,37
47.3895,37
47.4267,32
47.4638,26
47.5010,33
47.5381,30
47.5753,23
47.6124,29
47.6496,40
47.6867,32
47.7239,38
47.7610,26
47.7982,27
47.8353,30
47.8725,32
47.9096,21
47.9468,34
47.9839,30
48.0211,38
48.0582,25
48.0954,24
48.1325,37
48.1697,36
48.2068,46
48.2440,31
48.2811,36
48.3183,35
48.3555,29
48.3926,31
48.4298,36
48.4669,19
48.5041,30
48.5412,36
48.5784,41
48.6155,36
48.6527,35
48.6898,26
48.7270,27
48.7641,29
48.8013,34
48.8384,31
48.8756,39
48.9127,38
48.9499,42
48.9870,44
49.0242,45
49.0613,36
49.0985,51
49.1356,40
49.1728,37
49.2099,35
49.2471,32
49.2842,30
49.3214,26
49.3585,32
49.3957,28
49.4328,34
49.4700,34
49.5071,36
49.5443,39
49.5814,35
49.6186,33
49.6557,35
49.6929,26
49.7300,21
49.7672,32
49.8043,32
49.8415,34
49.8786,23
49.9158,33
49.9530,25
49.9901,28
50.0273,43
50.0644,31
50.1016,35
50.1387,30
50.1759,22
50.2130,25
50.2502,27
50.2873,29
50.3245,29
50.3616,26
50.3988,24
50.4359,35
50.4731,25
50.5102,26
50.5474,30
50.5845,37
50.6217,30
50.6588,39
50.6960,36
50.7331,23
50.7703,22
50.8074,27
50.8446,30
50.8817,29
50.9189,24
50.9560,34
50.9932,35
51.0303,30
51.0675,25
51.1046,25
51.1418,23
51.1789,36
51.2161,34
51.2532,30
51.2904,35
51.3275,27
51.3647,23
51.4018,35
51.4390,29
51.4762,40
51.5133,40
51.5505,39
51.5876,27
51.6248,30
51.6619,25
51.6991,35
51.7362,17
51.7734,29
51.8105,23
51.8477,36
51.8848,30
51.9220,17
51.9591,31
51.9963,26
52.0334,31
52.0706,23
52.1077,24
52.1449,30
52.1820,26
52.2192,32
52.2563,30
52.2935,24
52.3306,27
52.3678,24
52.4049,32
52.4421,26
52.4792,25
52.5164,30
52.5535,28
52.5907,25
52.6278,36
52.6650,30
52.7021,23
52.7393,32
52.7764,33
52.8136,24
52.8507,29
52.8879,18
52.9250,32
52.9622,34
52.9994,32
53.0365,35
53.0737,29
53.1108,28
53.1480,31
53.1851,32
53.2223,27
53.2594,26
53.2966,32
53.3337,29
53.3709,18
53.4080,33
53.4452,27
53.4823,24
53.5195,23
53.5566,28
53.5938,31
53.6309,16
53.6681,27
53.7052,19
53.7424,34
53.7795,21
53.8167,30
53.8538,30
53.8910,31
53.9281,41
53.9653,38
54.0024,34
54.0396,34
54.0767,29
54.1139,27
54.1510,30
54.1882,36
54.2253,28
54.2625,32
54.2996,21
54.3368,35
54.3739,10
54.4111,39
54.4482,35
54.4854,25
54.5225,25
54.5597,34
54.5969,19
54.6340,31
54.6712,18
54.7083,19
54.7455,20
54.7826,24
54.8198,25
54.8569,25
54.8941,20
54.9312,31
54.9684,22
55.0055,26
55.0427,25
55.0798,34
55.1170,21
55.1541,30
55.1913,24
55.2284,29
55.2656,33
55.3027,23
55.3399,16
55.3770,24
55.4142,29
55.4513,28
55.4885,32
55.5256,26
55.5628,28
55.5999,26
55.6371,25
55.6742,41
55.7114,28
55.7485,31
55.7857,25
55.8228,27
55.8600,26
55.8971,18
55.9343,26
55.9714,28
56.0086,26
56.0457,35
56.0829,29
56.1201,47
56.1572,28
56.1944,24
56.2315,34
56.2687,35
56.3058,22
56.3430,26
56.3801,23
56.4173,35
56.4544,26
56.4916,29
56.5287,44
56.5659,23
56.6030,32
56.6402,36
56.6773,27
56.7145,27
56.7516,27
56.7888,33
56.8259,30
56.8631,26
56.9002,29
56.9374,35
56.9745,23
57.0117,20
57.0488,30
57.0860,37
57.1231,27
57.1603,30
57.1974,25
57.2346,31
57.2717,31
57.3089,27
57.3460,27
57.3832,23
57.4203,34
57.4575,31
57.4946,31
57.5318,30
57.5689,26
57.6061,27
57.6433,22
57.6804,23
57.7176,22
57.7547,19
57.7919,27
57.8290,32
57.8662,29
57.9033,36
57.9405,32
57.9776,21
58.0148,31
58.0519,28
58.0891,28
58.1262,24
58.1634,30
58.2005,29
58.2377,23
58.2748,31
58.3120,24
58.3491,30
58.3863,31
58.4234,30
58.4606,32
58.4977,29
58.5349,38
58.5720,25
58.6092,24
58.6463,23
58.6835,22
58.7206,29
58.7578,29
58.7949,32
58.8321,28
58.8692,25
58.9064,20
58.9435,20
58.9807,19
59.0178,32
59.0550,21
59.0921,26
59.1293,29
59.1664,26
59.2036,37
59.2408,25
59.2779,25
59.3151,32
59.3522,29
59.3894,29
59.4265,27
59.4637,24
59.5008,21
59.5380,21
59.5751,36
59.6123,28
59.6494,26
59.6866,27
59.7237,31
59.7609,37
59.7980,26
59.8352,29
59.8723,24
59.9095,30
59.9466,32
59.9838,20
60.0024,32