File: notebooks/data/xrd_data/ML_20220720_0_SJD_4_LaB6-4min.csv
;,2THETA,
5.0000,262
5.0372,232
5.0743,250
5.1115,268
5.1486,252
5.1858,269
5.2229,239
5.2601,230
5.2972,197
5.3344,222
5.3715,234
5.4087,252
5.4458,255
5.4830,234
5.5201,200
5.5573,222
5.5944,203
5.6316,205
5.6687,206
5.7059,219
5.7430,199
5.7802,234
5.8173,213
5.8545,189
5.8916,170
5.9288,184
5.9659,213
6.0031,192
6.0402,185
6.0774,179
6.1145,209
6.1517,171
6.1888,211
6.2260,188
6.2631,190
6.3003,170
6.3374,182
6.3746,176
6.4117,194
6.4489,172
6.4860,212
6.5232,181
6.5604,154
6.5975,170
6.6347,162
6.6718,172
6.7090,179
6.7461,169
6.7833,177
6.8204,179
6.8576,164
6.8947,159
6.9319,163
6.9690,163
7.0062,161
7.0433,161
7.0805,187
7.1176,180
7.1548,172
7.1919,155
7.2291,189
7.2662,140
7.3034,151
7.3405,154
7.3777,153
7.4148,164
7.4520,174
7.4891,160
7.5263,146
7.5634,163
7.6006,163
7.6377,197
7.6749,175
7.7120,157
7.7492,172
7.7863,160
7.8235,192
7.8606,165
7.8978,151
7.9349,159
7.9721,210
8.0092,182
8.0464,190
8.0835,179
8.1207,146
8.1579,188
8.1950,182
8.2322,208
8.2693,207
8.3065,179
8.3436,191
8.3808,173
8.4179,186
8.4551,169
8.4922,192
8.5294,199
8.5665,215
8.6037,175
8.6408,177
8.6780,200
8.7151,206
8.7523,196
8.7894,185
8.8266,204
8.8637,187
8.9009,191
8.9380,215
8.9752,206
9.0123,222
9.0495,219
9.0866,248
9.1238,190
9.1609,213
9.1981,225
9.2352,211
9.2724,236
9.3095,207
9.3467,212
9.3838,237
9.4210,233
9.4581,227
9.4953,213
9.5324,215
9.5696,199
9.6067,205
9.6439,197
9.6811,203
9.7182,184
9.7554,208
9.7925,224
9.8297,225
9.8668,277
9.9040,245
9.9411,229
9.9783,227
10.0154,216
10.0526,246
10.0897,223
10.1269,232
10.1640,247
10.2012,237
10.2383,234
10.2755,237
10.3126,237
10.3498,226
10.3869,219
10.4241,254
10.4612,227
10.4984,238
10.5355,254
10.5727,227
10.6098,239
10.6470,229
10.6841,241
10.7213,258
10.7584,243
10.7956,244
10.8327,235
10.8699,218
10.9070,225
10.9442,221
10.9813,216
11.0185,229
11.0556,221
11.0928,217
11.1299,244
11.1671,214
11.2043,206
11.2414,239
11.2786,236
11.3157,241
11.3529,230
11.3900,229
11.4272,242
11.4643,240
11.5015,205
11.5386,228
11.5758,217
11.6129,243
11.6501,226
11.6872,218
11.7244,216
11.7615,247
11.7987,238
11.8358,216
11.8730,226
11.9101,217
11.9473,220
11.9844,230
12.0216,200
12.0587,205
12.0959,253
12.1330,235
12.1702,201
12.2073,222
12.2445,197
12.2816,221
12.3188,245
12.3559,221
12.3931,212
12.4302,209
12.4674,210
12.5045,225
12.5417,199
12.5788,202
12.6160,220
12.6531,207
12.6903,206
12.7274,220
12.7646,210
12.8018,180
12.8389,204
12.8761,234
12.9132,205
12.9504,188
12.9875,188
13.0247,185
13.0618,173
13.0990,185
13.1361,193
13.1733,218
13.2104,200
13.2476,205
13.2847,191
13.3219,202
13.3590,181
13.3962,182
13.4333,199
13.4705,178
13.5076,181
13.5448,182
13.5819,175
13.6191,199
13.6562,180
13.6934,176
13.7305,209
13.7677,172
13.8048,208
13.8420,187
13.8791,175
13.9163,196
13.9534,174
13.9906,175
14.0277,207
14.0649,184
14.1020,184
14.1392,164
14.1763,185
14.2135,179
14.2506,181
14.2878,172
14.3250,182
14.3621,189
14.3993,186
14.4364,186
14.4736,164
14.5107,163
14.5479,176
14.5850,143
14.6222,207
14.6593,198
14.6965,176
14.7336,173
14.7708,147
14.8079,133
14.8451,170
14.8822,182
14.9194,180
14.9565,160
14.9937,155
15.0308,173
15.0680,153
15.1051,165
15.1423,177
15.1794,183
15.2166,171
15.2537,164
15.2909,173
15.3280,142
15.3652,149
15.4023,159
15.4395,165
15.4766,179
15.5138,151
15.5509,155
15.5881,163
15.6252,143
15.6624,170
15.6995,169
15.7367,144
15.7738,168
15.8110,175
15.8482,156
15.8853,167
15.9225,157
15.9596,183
15.9968,145
16.0339,166
16.0711,176
16.1082,160
16.1454,156
16.1825,165
16.2197,173
16.2568,160
16.2940,173
16.3311,145
16.3683,169
16.4054,190
16.4426,162
16.4797,160
16.5169,162
16.5540,163
16.5912,147
16.6283,139
16.6655,145
16.7026,156
16.7398,137
16.7769,186
16.8141,170
16.8512,140
16.8884,150
16.9255,149
16.9627,145
16.9998,167
17.0370,141
17.0741,166
17.1113,146
17.1484,150
17.1856,138
17.2227,164
17.2599,145
17.2970,159
17.3342,152
17.3713,129
17.4085,162
17.4457,142
17.4828,156
17.5200,161
17.5571,154
17.5943,150
17.6314,151
17.6686,155
17.7057,160
17.7429,158
17.7800,163
17.8172,166
17.8543,157
17.8915,165
17.9286,157
17.9658,160
18.0029,155
18.0401,173
18.0772,168
18.1144,160
18.1515,164
18.1887,151
18.2258,131
18.2630,180
18.3001,166
18.3373,170
18.3744,168
18.4116,176
18.4487,163
18.4859,166
18.5230,194
18.5602,175
18.5973,173
18.6345,165
18.6716,167
18.7088,183
18.7459,144
18.7831,182
18.8202,154
18.8574,146
18.8945,175
18.9317,169
18.9689,184
19.0060,178
19.0432,164
19.0803,183
19.1175,167
19.1546,166
19.1918,176
19.2289,189
19.2661,168
19.3032,180
19.3404,178
19.3775,167
19.4147,165
19.4518,167
19.4890,171
19.5261,165
19.5633,169
19.6004,188
19.6376,160
19.6747,152
19.7119,136
19.7490,173
19.7862,163
19.8233,188
19.8605,167
19.8976,173
19.9348,163
19.9719,181
20.0091,156
20.0462,163
20.0834,177
20.1205,187
20.1577,178
20.1948,164
20.2320,181
20.2691,188
20.3063,179
20.3434,183
20.3806,177
20.4177,185
20.4549,174
20.4921,192
20.5292,210
20.5664,175
20.6035,191
20.6407,191
20.6778,186
20.7150,180
20.7521,168
20.7893,206
20.8264,212
20.8636,190
20.9007,172
20.9379,186
20.9750,200
21.0122,217
21.0493,202
21.0865,223
21.1236,231
21.1608,248
21.1979,311
21.2351,274
21.2722,299
21.3094,388
21.3465,530
21.3837,396
21.4208,302
21.4580,213
21.4951,188
21.5323,210
21.5694,161
21.6066,186
21.6437,209
21.6809,197
21.7180,183
21.7552,178
21.7923,200
21.8295,194
21.8666,198
21.9038,173
21.9409,180
21.9781,210
22.0152,202
22.0524,178
22.0896,181
22.1267,176
22.1639,208
22.2010,163
22.2382,187
22.2753,198
22.3125,178
22.3496,207
22.3868,204
22.4239,189
22.4611,187
22.4982,176
22.5354,199
22.5725,202
22.6097,194
22.6468,169
22.6840,222
22.7211,188
22.7583,187
22.7954,216
22.8326,201
22.8697,199
22.9069,176
22.9440,175
22.9812,198
23.0183,198
23.0555,201
23.0926,196
23.1298,183
23.1669,186
23.2041,169
23.2412,200
23.2784,207
23.3155,194
23.3527,209
23.3898,212
23.4270,198
23.4641,208
23.5013,208
23.5384,219
23.5756,206
23.6128,214
23.6499,212
23.6871,204
23.7242,215
23.7614,215
23.7985,190
23.8357,184
23.8728,195
23.9100,200
23.9471,206
23.9843,206
24.0214,210
24.0586,216
24.0957,202
24.1329,205
24.1700,218
24.2072,204
24.2443,244
24.2815,215
24.3186,236
24.3558,182
24.3929,210
24.4301,216
24.4672,205
24.5044,210
24.5415,178
24.5787,204
24.6158,209
24.6530,175
24.6901,186
24.7273,162
24.7644,196
24.8016,194
24.8387,187
24.8759,216
24.9130,173
24.9502,195
24.9873,198
25.0245,184
25.0616,186
25.0988,202
25.1360,206
25.1731,193
25.2103,188
25.2474,204
25.2846,183
25.3217,170
25.3589,221
25.3960,182
25.4332,205
25.4703,178
25.5075,199
25.5446,206
25.5818,183
25.6189,189
25.6561,207
25.6932,202
25.7304,205
25.7675,180
25.8047,189
25.8418,197
25.8790,193
25.9161,201
25.9533,211
25.9904,175
26.0276,188
26.0647,207
26.1019,205
26.1390,197
26.1762,182
26.2133,210
26.2505,179
26.2876,172
26.3248,179
26.3619,207
26.3991,183
26.4362,181
26.4734,167
26.5105,185
26.5477,189
26.5848,183
26.6220,209
26.6591,178
26.6963,169
26.7335,215
26.7706,186
26.8078,180
26.8449,187
26.8821,195
26.9192,194
26.9564,185
26.9935,195
27.0307,197
27.0678,205
27.1050,183
27.1421,202
27.1793,209
27.2164,231
27.2536,245
27.2907,218
27.3279,186
27.3650,186
27.4022,191
27.4393,172
27.4765,157
27.5136,182
27.5508,152
27.5879,200
27.6251,190
27.6622,172
27.6994,154
27.7365,170
27.7737,179
27.8108,172
27.8480,164
27.8851,184
27.9223,183
27.9594,156
27.9966,169
28.0337,182
28.0709,184
28.1080,174
28.1452,161
28.1823,179
28.2195,175
28.2567,161
28.2938,186
28.3310,151
28.3681,189
28.4053,167
28.4424,168
28.4796,170
28.5167,175
28.5539,175
28.5910,186
28.6282,176
28.6653,197
28.7025,161
28.7396,172
28.7768,157
28.8139,151
28.8511,158
28.8882,157
28.9254,151
28.9625,150
28.9997,170
29.0368,137
29.0740,152
29.1111,175
29.1483,185
29.1854,177
29.2226,147
29.2597,148
29.2969,146
29.3340,149
29.3712,152
29.4083,161
29.4455,176
29.4826,140
29.5198,156
29.5569,159
29.5941,161
29.6312,136
29.6684,144
29.7055,155
29.7427,151
29.7799,159
29.8170,139
29.8542,169
29.8913,178
29.9285,145
29.9656,143
30.0028,156
30.0399,158
30.0771,182
30.1142,136
30.1514,161
30.1885,161
30.2257,175
30.2628,180
30.3000,176
30.3371,250
30.3743,319
30.4114,228
30.4486,244
30.4857,181
30.5229,175
30.5600,163
30.5972,147
30.6343,141
30.6715,133
30.7086,148
30.7458,138
30.7829,144
30.8201,138
30.8572,144
30.8944,141
30.9315,138
30.9687,138
31.0058,148
31.0430,130
31.0801,135
31.1173,151
31.1544,121
31.1916,119
31.2287,145
31.2659,136
31.3030,148
31.3402,111
31.3774,167
31.4145,157
31.4517,131
31.4888,126
31.5260,135
31.5631,116
31.6003,136
31.6374,140
31.6746,120
31.7117,145
31.7489,126
31.7860,113
31.8232,120
31.8603,137
31.8975,142
31.9346,133
31.9718,146
32.0089,143
32.0461,119
32.0832,140
32.1204,125
32.1575,126
32.1947,135
32.2318,152
32.2690,127
32.3061,130
32.3433,128
32.3804,136
32.4176,142
32.4547,143
32.4919,147
32.5290,142
32.5662,123
32.6033,135
32.6405,140
32.6776,149
32.7148,140
32.7519,118
32.7891,124
32.8262,141
32.8634,133
32.9006,120
32.9377,121
32.9749,129
33.0120,144
33.0492,117
33.0863,140
33.1235,92
33.1606,117
33.1978,103
33.2349,114
33.2721,106
33.3092,110
33.3464,102
33.3835,93
33.4207,124
33.4578,127
33.4950,132
33.5321,127
33.5693,146
33.6064,123
33.6436,96
33.6807,117
33.7179,119
33.7550,135
33.7922,130
33.8293,106
33.8665,118
33.9036,139
33.9408,102
33.9779,120
34.0151,118
34.0522,123
34.0894,138
34.1265,112
34.1637,98
34.2008,122
34.2380,117
34.2751,119
34.3123,122
34.3494,116
34.3866,137
34.4238,98
34.4609,122
34.4981,116
34.5352,130
34.5724,125
34.6095,143
34.6467,127
34.6838,133
34.7210,149
34.7581,158
34.7953,153
34.8324,130
34.8696,142
34.9067,115
34.9439,131
34.9810,133
35.0182,126
35.0553,115
35.0925,118
35.1296,99
35.1668,101
35.2039,114
35.2411,90
35.2782,102
35.3154,104
35.3525,95
35.3897,106
35.4268,97
35.4640,107
35.5011,106
35.5383,115
35.5754,83
35.6126,111
35.6497,105
35.6869,101
35.7240,119
35.7612,101
35.7983,96
35.8355,105
35.8726,105
35.9098,89
35.9469,101
35.9841,99
36.0213,111
36.0584,98
36.0956,98
36.1327,96
36.1699,96
36.2070,95
36.2442,106
36.2813,96
36.3185,105
36.3556,95
36.3928,90
36.4299,92
36.4671,86
36.5042,83
36.5414,81
36.5785,100
36.6157,96
36.6528,95
36.6900,102
36.7271,93
36.7643,98
36.8014,86
36.8386,81
36.8757,102
36.9129,93
36.9500,102
36.9872,95
37.0243,78
37.0615,68
37.0986,109
37.1358,98
37.1729,87
37.2101,81
37.2472,97
37.2844,102
37.3215,89
37.3587,103
37.3958,113
37.4330,168
37.4701,125
37.5073,120
37.5445,129
37.5816,109
37.6188,83
37.6559,82
37.6931,109
37.7302,78
37.7674,99
37.8045,91
37.8417,85
37.8788,81
37.9160,71
37.9531,107
37.9903,98
38.0274,94
38.0646,91
38.1017,73
38.1389,86
38.1760,104
38.2132,79
38.2503,79
38.2875,93
38.3246,84
38.3618,80
38.3989,85
38.4361,89
38.4732,78
38.5104,95
38.5475,99
38.5847,90
38.6218,84
38.6590,87
38.6961,77
38.7333,90
38.7704,65
38.8076,69
38.8447,83
38.8819,72
38.9190,82
38.9562,82
38.9933,78
39.0305,77
39.0677,80
39.1048,79
39.1420,80
39.1791,79
39.2163,91
39.2534,70
39.2906,86
39.3277,88
39.3649,71
39.4020,68
39.4392,77
39.4763,76
39.5135,85
39.5506,69
39.5878,79
39.6249,83
39.6621,77
39.6992,79
39.7364,74
39.7735,90
39.8107,78
39.8478,73
39.8850,59
39.9221,66
39.9593,93
39.9964,68
40.0336,70
40.0707,88
40.1079,76
40.1450,73
40.1822,74
40.2193,77
40.2565,74
40.2936,80
40.3308,87
40.3679,62
40.4051,68
40.4422,74
40.4794,66
40.5165,84
40.5537,83
40.5908,73
40.6280,83
40.6652,77
40.7023,69
40.7395,77
40.7766,86
40.8138,75
40.8509,75
40.8881,96
40.9252,86
40.9624,81
40.9995,87
41.0367,92
41.0738,82
41.1110,70
41.1481,68
41.1853,68
41.2224,66
41.2596,74
41.2967,69
41.3339,60
41.3710,74
41.4082,83
41.4453,74
41.4825,79
41.5196,78
41.5568,69
41.5939,70
41.6311,65
41.6682,85
41.7054,61
41.7425,75
41.7797,72
41.8168,68
41.8540,85
41.8911,66
41.9283,50
41.9654,96
42.0026,84
42.0397,84
42.0769,77
42.1140,66
42.1512,59
42.1884,78
42.2255,88
42.2627,64
42.2998,68
42.3370,52
42.3741,67
42.4113,77
42.4484,79
42.4856,66
42.5227,79
42.5599,89
42.5970,78
42.6342,66
42.6713,83
42.7085,86
42.7456,62
42.7828,74
42.8199,73
42.8571,87
42.8942,66
42.9314,68
42.9685,55
43.0057,73
43.0428,66
43.0800,73
43.1171,84
43.1543,73
43.1914,88
43.2286,80
43.2657,93
43.3029,74
43.3400,87
43.3772,82
43.4143,89
43.4515,94
43.4886,131
43.5258,100
43.5629,80
43.6001,113
43.6372,90
43.6744,81
43.7116,94
43.7487,80
43.7859,83
43.8230,73
43.8602,59
43.8973,66
43.9345,71
43.9716,71
44.0088,68
44.0459,83
44.0831,73
44.1202,70
44.1574,72
44.1945,65
44.2317,74
44.2688,63
44.3060,82
44.3431,73
44.3803,72
44.4174,70
44.4546,63
44.4917,73
44.5289,78
44.5660,83
44.6032,82
44.6403,78
44.6775,62
44.7146,83
44.7518,81
44.7889,72
44.8261,67
44.8632,89
44.9004,77
44.9375,90
44.9747,70
45.0118,79
45.0490,68
45.0861,68
45.1233,74
45.1604,76
45.1976,76
45.2347,67
45.2719,62
45.3091,62
45.3462,67
45.3834,56
45.4205,69
45.4577,90
45.4948,72
45.5320,70
45.5691,81
45.6063,58
45.6434,65
45.6806,50
45.7177,68
45.7549,73
45.7920,79
45.8292,71
45.8663,61
45.9035,63
45.9406,65
45.9778,66
46.0149,70
46.0521,79
46.0892,66
46.1264,63
46.1635,76
46.2007,49
46.2378,72
46.2750,60
46.3121,61
46.3493,70
46.3864,67
46.4236,68
46.4607,57
46.4979,64
46.5350,68
46.5722,56
46.6093,75
46.6465,58
46.6836,62
46.7208,69
46.7579,59
46.7951,66
46.8323,62
46.8694,52
46.9066,63
46.9437,65
46.9809,65
47.0180,54
47.0552,60
47.0923,70
47.1295,63
47.1666,71
47.2038,48
47.2409,67
47.2781,53
47.3152,69
47.3524,74
47.3895,57
47.4267,75
47.4638,66
47.5010,65
47.5381,60
47.5753,72
47.6124,47
47.6496,58
47.6867,63
47.7239,58
47.7610,64
47.7982,65
47.8353,61
47.8725,61
47.9096,60
47.9468,67
47.9839,56
48.0211,83
48.0582,76
48.0954,57
48.1325,74
48.1697,71
48.2068,62
48.2440,49
48.2811,78
48.3183,63
48.3555,56
48.3926,57
48.4298,62
48.4669,58
48.5041,79
48.5412,63
48.5784,60
48.6155,74
48.6527,60
48.6898,63
48.7270,67
48.7641,62
48.8013,56
48.8384,60
48.8756,57
48.9127,85
48.9499,116
48.9870,84
49.0242,84
49.0613,87
49.0985,89
49.1356,74
49.1728,67
49.2099,76
49.2471,55
49.2842,53
49.3214,61
49.3585,68
49.3957,74
49.4328,69
49.4700,52
49.5071,67
49.5443,62
49.5814,69
49.6186,57
49.6557,57
49.6929,75
49.7300,62
49.7672,71
49.8043,55
49.8415,69
49.8786,66
49.9158,62
49.9530,59
49.9901,57
50.0273,58
50.0644,68
50.1016,55
50.1387,75
50.1759,56
50.2130,60
50.2502,80
50.2873,63
50.3245,62
50.3616,64
50.3988,51
50.4359,59
50.4731,62
50.5102,57
50.5474,60
50.5845,66
50.6217,64
50.6588,58
50.6960,57
50.7331,72
50.7703,77
50.8074,52
50.8446,60
50.8817,51
50.9189,60
50.9560,55
50.9932,60
51.0303,74
51.0675,64
51.1046,46
51.1418,54
51.1789,62
51.2161,49
51.2532,65
51.2904,68
51.3275,77
51.3647,61
51.4018,69
51.4390,63
51.4762,64
51.5133,61
51.5505,72
51.5876,63
51.6248,55
51.6619,73
51.6991,65
51.7362,67
51.7734,50
51.8105,68
51.8477,52
51.8848,56
51.9220,76
51.9591,57
51.9963,72
52.0334,69
52.0706,52
52.1077,62
52.1449,56
52.1820,60
52.2192,67
52.2563,68
52.2935,49
52.3306,77
52.3678,66
52.4049,54
52.4421,74
52.4792,65
52.5164,65
52.5535,61
52.5907,57
52.6278,51
52.6650,55
52.7021,53
52.7393,61
52.7764,50
52.8136,71
52.8507,69
52.8879,63
52.9250,37
52.9622,75
52.9994,65
53.0365,52
53.0737,66
53.1108,68
53.1480,62
53.1851,62
53.2223,58
53.2594,49
53.2966,69
53.3337,74
53.3709,65
53.4080,65
53.4452,56
53.4823,65
53.5195,76
53.5566,64
53.5938,60
53.6309,59
53.6681,62
53.7052,59
53.7424,55
53.7795,52
53.8167,56
53.8538,53
53.8910,45
53.9281,65
53.9653,83
54.0024,62
54.0396,69
54.0767,78
54.1139,85
54.1510,53
54.1882,68
54.2253,62
54.2625,62
54.2996,70
54.3368,42
54.3739,44
54.4111,57
54.4482,54
54.4854,53
54.5225,66
54.5597,61
54.5969,56
54.6340,52
54.6712,43
54.7083,51
54.7455,64
54.7826,55
54.8198,65
54.8569,48
54.8941,58
54.9312,59
54.9684,56
55.0055,47
55.0427,37
55.0798,47
55.1170,56
55.1541,49
55.1913,57
55.2284,59
55.2656,49
55.3027,69
55.3399,66
55.3770,56
55.4142,50
55.4513,57
55.4885,68
55.5256,57
55.5628,58
55.5999,66
55.6371,44
55.6742,60
55.7114,67
55.7485,41
55.7857,37
55.8228,69
55.8600,54
55.8971,58
55.9343,51
55.9714,72
56.0086,65
56.0457,64
56.0829,62
56.1201,57
56.1572,62
56.1944,72
56.2315,56
56.2687,56
56.3058,62
56.3430,64
56.3801,77
56.4173,58
56.4544,50
56.4916,64
56.5287,50
56.5659,62
56.6030,69
56.6402,64
56.6773,65
56.7145,56
56.7516,46
56.7888,61
56.8259,64
56.8631,60
56.9002,60
56.9374,71
56.9745,57
57.0117,55
57.0488,60
57.0860,53
57.1231,55
57.1603,50
57.1974,60
57.2346,58
57.2717,56
57.3089,43
57.3460,47
57.3832,63
57.4203,51
57.4575,59
57.4946,61
57.5318,46
57.5689,53
57.6061,48
57.6433,41
57.6804,69
57.7176,71
57.7547,66
57.7919,54
57.8290,52
57.8662,59
57.9033,60
57.9405,58
57.9776,55
58.0148,54
58.0519,51
58.0891,56
58.1262,46
58.1634,64
58.2005,49
58.2377,54
58.2748,48
58.3120,60
58.3491,49
58.3863,58
58.4234,71
58.4606,60
58.4977,41
58.5349,44
58.5720,64
58.6092,49
58.6463,40
58.6835,59
58.7206,54
58.7578,54
58.7949,45
58.8321,61
58.8692,58
58.9064,59
58.9435,52
58.9807,65
59.0178,52
59.0550,63
59.0921,63
59.1293,54
59.1664,51
59.2036,70
59.2408,68
59.2779,38
59.3151,53
59.3522,66
59.3894,49
59.4265,73
59.4637,51
59.5008,64
59.5380,59
59.5751,55
59.6123,54
59.6494,56
59.6866,54
59.7237,64
59.7609,64
59.7980,54
59.8352,46
59.8723,57
59.9095,63
59.9466,65
59.9838,58
60.0024,60