File: notebooks/data/xrd_data/ML_20220718_32_SJD_4_LaB6-2min.uxd
; (content of file Y:\Sam\Apurva-07-20-2022\puck4\ML_20220718_32_SJD_0_LaB6-2min.raw)
_FILEVERSION = 3
_SAMPLE = ML_20220718_32_SJD_0_LaB6-2min
_+SAMPLE =
_SITE = USA
_USER = Administrator
_GONIOMETER_CODE = 20
; Goniometer : D8 theta/2theta, stage : Unknown
_ATTACHMENTS_CODE = 0
_GONIOMETER_RADIUS = 200.5
_FIXED_DIVSLIT = 0.6
_FIXED_SAMPLESLIT = 0
_SOLLER_SLITS = 2
_FIXED_DETSLIT = 9.55
_MONOCHROMATOR = 0
; Incident beam monochromator : None
_SOLLER_SLITS_2 = N
_THIN_FILM = N
_BETA_FILTER = Y
_FIXED_ANTISLIT = 5.89
_ANALYZER_CODE = 0
; Received beam analyzer : None
_DATEMEASURED = "26-Jul-2022 09:08:50"
_WL_UNIT = A
_WL1 = 1.5406
_WL2 = 1.54439
_WL3 = 1.39222
_WLRATIO = 0.5
_ANODE = Cu
_V4_INF_CREATOR = XRDWizard
_V4_INF_CREATOR_VERSION = V2.9.0.22
_V4_INF_WIZARD_VERSION = V2.9.0.22
_V4_INF_WIZARD_ADDINS = V2.9.0.22
_V4_INF_WIZARD_DOCTYPE = XRD
_V4_INF_OSUSER = McQueenLab
_V4_INF_USER = Administrator
_V4_INF_SITE = USA
_V4_INF_SAMPLEID = ML_20220718_32_SJD_0_LaB6-2min

; Data for range 1
_DRIVE = COUPLED
_STEPTIME = 5.64
_STEPSIZE = 0.0185756
_STEPMODE = C
_START = 5
_THETA = 2.5
_2THETA = 5
_KHI = 0
_PHI = 0
_X = 0
_Y = 0
_Z = 0
_DETECTOR = 5
; Detector type : Unknown
_DETECTORSLIT = unkn
_AUX1 = 0
_AUX2 = 0
_AUX3 = 0
_TIMESTARTED = 15
_TEMP_RATE = -1
_TEMP_DELAY = -1
_KV = 40
_MA = 40
_RANGE_WL = 1.5406
_3DPLANE = 0
_V4_ADDITIONALDETECTOR = 257
_V4_PSD2THETA = 3.4187
_V4_PSDCHANNEL1 = 0
_V4_PSDAPERTURE = 12.68
_V4_PSDTYPE = 5
_V4_PSDFIXED = 0
_V4_COUNTERS_MASK = 4096
_V4_DRIVES_MASK = 0
_V4_ENCODERS_MASK = 0
_2THETACOUNTS = 1
; 2THETA  PSD
   5.0000        139
   5.0372        124
   5.0743        125
   5.1115        124
   5.1486        137
   5.1858        122
   5.2229        139
   5.2601        121
   5.2972        109
   5.3344        132
   5.3715        100
   5.4087        131
   5.4458        113
   5.4830        120
   5.5201        114
   5.5573        124
   5.5944        121
   5.6316        109
   5.6687         93
   5.7059         99
   5.7430        103
   5.7802         93
   5.8173        112
   5.8545        107
   5.8916         95
   5.9288        109
   5.9659         91
   6.0031         91
   6.0402        112
   6.0774         99
   6.1145         92
   6.1517         89
   6.1888         93
   6.2260         93
   6.2631        110
   6.3003        102
   6.3374         81
   6.3746         97
   6.4117         87
   6.4489         82
   6.4860         93
   6.5232         91
   6.5604         96
   6.5975         95
   6.6347         95
   6.6718         84
   6.7090         85
   6.7461         86
   6.7833         76
   6.8204         86
   6.8576         76
   6.8947         88
   6.9319         90
   6.9690         99
   7.0062         75
   7.0433         86
   7.0805         75
   7.1176         73
   7.1548         70
   7.1919         85
   7.2291        106
   7.2662         79
   7.3034         76
   7.3405         90
   7.3777         80
   7.4148         68
   7.4520         79
   7.4891         85
   7.5263         79
   7.5634         84
   7.6006         70
   7.6377         93
   7.6749         87
   7.7120         95
   7.7492         94
   7.7863         74
   7.8235        103
   7.8606        100
   7.8978         85
   7.9349         72
   7.9721        107
   8.0092         96
   8.0464        106
   8.0835         84
   8.1207         97
   8.1579         91
   8.1950         92
   8.2322         95
   8.2693         97
   8.3065         85
   8.3436         84
   8.3808         85
   8.4179         87
   8.4551        101
   8.4922         97
   8.5294        101
   8.5665        105
   8.6037         96
   8.6408        101
   8.6780         97
   8.7151        101
   8.7523         93
   8.7894        111
   8.8266        119
   8.8637        111
   8.9009        114
   8.9380        119
   8.9752        127
   9.0123        106
   9.0495        104
   9.0866        120
   9.1238        103
   9.1609        100
   9.1981        119
   9.2352         94
   9.2724        106
   9.3095         97
   9.3467        103
   9.3838        118
   9.4210        114
   9.4581        116
   9.4953         89
   9.5324        106
   9.5696        117
   9.6067        110
   9.6439        122
   9.6811        121
   9.7182        121
   9.7554        115
   9.7925        122
   9.8297        120
   9.8668        132
   9.9040        121
   9.9411         95
   9.9783        103
  10.0154        113
  10.0526        132
  10.0897        121
  10.1269        128
  10.1640        131
  10.2012        139
  10.2383        111
  10.2755        132
  10.3126        113
  10.3498        107
  10.3869        134
  10.4241        139
  10.4612        119
  10.4984        124
  10.5355        144
  10.5727        118
  10.6098        125
  10.6470        124
  10.6841        114
  10.7213        103
  10.7584        104
  10.7956        114
  10.8327        109
  10.8699        132
  10.9070        115
  10.9442        122
  10.9813        116
  11.0185        132
  11.0556        129
  11.0928        116
  11.1299        119
  11.1671        115
  11.2043        101
  11.2414        118
  11.2786        123
  11.3157        109
  11.3529        109
  11.3900        112
  11.4272        111
  11.4643        109
  11.5015        123
  11.5386        112
  11.5758        123
  11.6129        111
  11.6501        106
  11.6872        105
  11.7244        114
  11.7615        101
  11.7987        123
  11.8358        140
  11.8730        128
  11.9101        105
  11.9473        109
  11.9844         73
  12.0216        120
  12.0587        106
  12.0959        120
  12.1330        119
  12.1702        124
  12.2073        130
  12.2445        113
  12.2816         99
  12.3188        115
  12.3559        106
  12.3931        107
  12.4302        116
  12.4674        101
  12.5045        115
  12.5417        104
  12.5788         90
  12.6160        108
  12.6531        120
  12.6903         88
  12.7274        107
  12.7646         87
  12.8018        117
  12.8389        115
  12.8761        105
  12.9132        110
  12.9504        116
  12.9875        114
  13.0247         82
  13.0618         88
  13.0990         88
  13.1361        109
  13.1733        107
  13.2104        110
  13.2476         93
  13.2847        111
  13.3219        101
  13.3590        109
  13.3962         93
  13.4333         91
  13.4705         78
  13.5076         80
  13.5448         94
  13.5819         99
  13.6191         73
  13.6562         95
  13.6934        104
  13.7305        104
  13.7677         84
  13.8048         85
  13.8420         87
  13.8791         87
  13.9163         87
  13.9534        115
  13.9906         73
  14.0277        106
  14.0649         68
  14.1020         84
  14.1392        101
  14.1763         85
  14.2135         88
  14.2506         85
  14.2878        103
  14.3250        100
  14.3621         77
  14.3993         89
  14.4364         93
  14.4736         90
  14.5107         72
  14.5479         91
  14.5850         93
  14.6222        101
  14.6593         91
  14.6965        104
  14.7336         82
  14.7708         83
  14.8079         77
  14.8451         67
  14.8822         78
  14.9194         74
  14.9565         76
  14.9937         93
  15.0308         84
  15.0680         72
  15.1051         92
  15.1423         73
  15.1794         64
  15.2166         86
  15.2537         86
  15.2909         55
  15.3280         80
  15.3652         75
  15.4023         77
  15.4395         92
  15.4766         73
  15.5138         93
  15.5509         73
  15.5881         81
  15.6252         92
  15.6624         96
  15.6995         86
  15.7367         85
  15.7738         70
  15.8110         78
  15.8482         80
  15.8853         82
  15.9225         89
  15.9596         77
  15.9968        101
  16.0339         59
  16.0711         88
  16.1082         65
  16.1454         81
  16.1825         79
  16.2197         71
  16.2568         92
  16.2940         82
  16.3311         96
  16.3683         80
  16.4054         93
  16.4426         74
  16.4797         79
  16.5169         82
  16.5540         79
  16.5912         96
  16.6283         63
  16.6655         77
  16.7026         77
  16.7398         87
  16.7769         81
  16.8141         90
  16.8512         73
  16.8884         74
  16.9255         73
  16.9627         80
  16.9998         75
  17.0370         84
  17.0741         89
  17.1113         72
  17.1484         81
  17.1856         73
  17.2227         66
  17.2599         91
  17.2970         83
  17.3342         65
  17.3713         82
  17.4085         93
  17.4457         82
  17.4828         80
  17.5200         77
  17.5571         83
  17.5943         80
  17.6314         91
  17.6686         80
  17.7057         83
  17.7429         86
  17.7800         93
  17.8172         73
  17.8543         86
  17.8915         84
  17.9286         72
  17.9658         80
  18.0029         89
  18.0401         90
  18.0772         73
  18.1144         87
  18.1515         64
  18.1887         83
  18.2258         84
  18.2630         94
  18.3001         67
  18.3373         96
  18.3744         88
  18.4116         89
  18.4487         78
  18.4859         92
  18.5230        100
  18.5602         79
  18.5973         76
  18.6345         73
  18.6716         80
  18.7088         74
  18.7459         90
  18.7831         87
  18.8202         63
  18.8574         86
  18.8945         90
  18.9317         72
  18.9689         65
  19.0060         96
  19.0432         81
  19.0803         92
  19.1175         93
  19.1546         77
  19.1918         82
  19.2289         96
  19.2661         87
  19.3032         96
  19.3404         80
  19.3775         88
  19.4147        105
  19.4518         81
  19.4890         94
  19.5261        100
  19.5633         65
  19.6004         89
  19.6376         89
  19.6747         86
  19.7119         76
  19.7490         76
  19.7862         88
  19.8233         74
  19.8605         81
  19.8976         75
  19.9348         74
  19.9719        102
  20.0091         79
  20.0462         80
  20.0834         95
  20.1205         95
  20.1577         89
  20.1948         94
  20.2320        103
  20.2691         87
  20.3063         89
  20.3434        103
  20.3806         88
  20.4177         89
  20.4549        101
  20.4921         73
  20.5292        102
  20.5664         85
  20.6035         89
  20.6407         82
  20.6778        105
  20.7150        112
  20.7521         86
  20.7893        101
  20.8264         93
  20.8636         95
  20.9007        104
  20.9379         81
  20.9750        112
  21.0122        104
  21.0493         99
  21.0865         81
  21.1236        118
  21.1608         89
  21.1979        139
  21.2351        173
  21.2722        122
  21.3094        164
  21.3465        230
  21.3837        201
  21.4208        160
  21.4580        108
  21.4951        105
  21.5323        101
  21.5694        109
  21.6066        117
  21.6437        105
  21.6809        100
  21.7180         89
  21.7552         72
  21.7923        104
  21.8295        103
  21.8666        109
  21.9038        106
  21.9409         97
  21.9781        118
  22.0152        106
  22.0524         98
  22.0896         89
  22.1267         95
  22.1639        100
  22.2010         95
  22.2382         96
  22.2753         76
  22.3125         92
  22.3496        119
  22.3868         84
  22.4239         88
  22.4611        101
  22.4982        103
  22.5354        113
  22.5725         94
  22.6097        120
  22.6468        106
  22.6840        112
  22.7211        100
  22.7583        108
  22.7954        105
  22.8326         94
  22.8697        105
  22.9069        103
  22.9440         94
  22.9812         93
  23.0183        110
  23.0555         87
  23.0926         75
  23.1298        109
  23.1669        100
  23.2041         98
  23.2412         91
  23.2784        100
  23.3155         97
  23.3527        111
  23.3898         86
  23.4270        100
  23.4641         95
  23.5013         85
  23.5384         99
  23.5756        100
  23.6128        103
  23.6499        105
  23.6871         94
  23.7242        104
  23.7614        124
  23.7985        113
  23.8357         94
  23.8728         96
  23.9100        106
  23.9471        102
  23.9843         82
  24.0214        106
  24.0586        111
  24.0957        102
  24.1329         93
  24.1700         95
  24.2072         86
  24.2443        105
  24.2815        120
  24.3186        114
  24.3558        119
  24.3929        102
  24.4301        113
  24.4672         95
  24.5044         92
  24.5415        109
  24.5787        124
  24.6158        104
  24.6530         96
  24.6901        103
  24.7273         93
  24.7644         94
  24.8016        100
  24.8387         90
  24.8759         97
  24.9130        120
  24.9502         97
  24.9873         99
  25.0245         91
  25.0616         89
  25.0988        103
  25.1360        100
  25.1731         99
  25.2103        102
  25.2474        105
  25.2846        111
  25.3217         99
  25.3589         95
  25.3960         99
  25.4332         98
  25.4703        100
  25.5075        111
  25.5446         97
  25.5818         93
  25.6189        112
  25.6561         89
  25.6932        109
  25.7304         85
  25.7675        104
  25.8047         91
  25.8418         99
  25.8790        107
  25.9161         86
  25.9533         93
  25.9904        112
  26.0276         91
  26.0647         96
  26.1019        103
  26.1390        121
  26.1762        114
  26.2133        103
  26.2505         95
  26.2876         80
  26.3248         86
  26.3619         94
  26.3991         97
  26.4362         87
  26.4734         91
  26.5105         88
  26.5477        112
  26.5848        107
  26.6220         85
  26.6591         90
  26.6963         89
  26.7335         99
  26.7706         79
  26.8078        107
  26.8449         97
  26.8821         86
  26.9192         97
  26.9564        107
  26.9935        110
  27.0307        113
  27.0678        116
  27.1050         86
  27.1421        104
  27.1793        108
  27.2164        118
  27.2536        109
  27.2907        134
  27.3279         91
  27.3650         99
  27.4022        108
  27.4393        105
  27.4765         97
  27.5136         89
  27.5508        100
  27.5879         87
  27.6251         88
  27.6622         91
  27.6994         74
  27.7365         78
  27.7737         84
  27.8108         99
  27.8480         88
  27.8851         83
  27.9223        109
  27.9594         99
  27.9966        108
  28.0337         95
  28.0709         87
  28.1080         91
  28.1452         77
  28.1823         73
  28.2195         83
  28.2567         91
  28.2938         89
  28.3310        110
  28.3681         87
  28.4053         73
  28.4424         88
  28.4796         86
  28.5167         67
  28.5539         76
  28.5910         79
  28.6282         67
  28.6653         81
  28.7025         97
  28.7396         62
  28.7768         78
  28.8139         73
  28.8511         86
  28.8882         78
  28.9254         91
  28.9625         81
  28.9997         89
  29.0368         94
  29.0740         66
  29.1111         80
  29.1483         74
  29.1854         84
  29.2226         71
  29.2597         66
  29.2969         87
  29.3340         77
  29.3712         72
  29.4083         72
  29.4455         75
  29.4826         72
  29.5198         77
  29.5569         83
  29.5941         74
  29.6312         92
  29.6684         68
  29.7055         84
  29.7427         71
  29.7799         83
  29.8170         86
  29.8542         81
  29.8913         77
  29.9285         64
  29.9656         75
  30.0028         63
  30.0399         73
  30.0771         95
  30.1142         83
  30.1514         70
  30.1885         96
  30.2257         66
  30.2628         75
  30.3000         94
  30.3371         88
  30.3743        157
  30.4114        142
  30.4486        129
  30.4857         98
  30.5229         87
  30.5600         81
  30.5972         77
  30.6343         82
  30.6715         69
  30.7086         74
  30.7458         74
  30.7829         80
  30.8201         70
  30.8572         77
  30.8944         70
  30.9315         74
  30.9687         58
  31.0058         85
  31.0430         65
  31.0801         86
  31.1173         82
  31.1544         86
  31.1916         66
  31.2287         61
  31.2659         65
  31.3030         76
  31.3402         77
  31.3774         62
  31.4145         66
  31.4517         73
  31.4888         77
  31.5260         52
  31.5631         75
  31.6003         68
  31.6374         72
  31.6746         75
  31.7117         64
  31.7489         72
  31.7860         55
  31.8232         55
  31.8603         72
  31.8975         63
  31.9346         72
  31.9718         48
  32.0089         64
  32.0461         73
  32.0832         62
  32.1204         58
  32.1575         79
  32.1947         63
  32.2318         70
  32.2690         49
  32.3061         69
  32.3433         66
  32.3804         79
  32.4176         83
  32.4547         86
  32.4919         63
  32.5290         72
  32.5662         74
  32.6033         70
  32.6405         79
  32.6776         62
  32.7148         57
  32.7519         67
  32.7891         55
  32.8262         59
  32.8634         64
  32.9006         66
  32.9377         64
  32.9749         93
  33.0120         64
  33.0492         59
  33.0863         75
  33.1235         66
  33.1606         48
  33.1978         66
  33.2349         49
  33.2721         59
  33.3092         64
  33.3464         57
  33.3835         46
  33.4207         52
  33.4578         59
  33.4950         40
  33.5321         59
  33.5693         71
  33.6064         58
  33.6436         58
  33.6807         59
  33.7179         60
  33.7550         47
  33.7922         67
  33.8293         48
  33.8665         60
  33.9036         56
  33.9408         50
  33.9779         56
  34.0151         62
  34.0522         47
  34.0894         59
  34.1265         56
  34.1637         57
  34.2008         54
  34.2380         45
  34.2751         78
  34.3123         61
  34.3494         53
  34.3866         63
  34.4238         47
  34.4609         54
  34.4981         69
  34.5352         76
  34.5724         71
  34.6095         68
  34.6467         69
  34.6838         66
  34.7210         69
  34.7581         88
  34.7953         87
  34.8324         82
  34.8696         68
  34.9067         60
  34.9439         53
  34.9810         55
  35.0182         45
  35.0553         53
  35.0925         57
  35.1296         60
  35.1668         56
  35.2039         51
  35.2411         46
  35.2782         41
  35.3154         57
  35.3525         44
  35.3897         47
  35.4268         51
  35.4640         50
  35.5011         65
  35.5383         37
  35.5754         52
  35.6126         60
  35.6497         58
  35.6869         51
  35.7240         41
  35.7612         50
  35.7983         40
  35.8355         55
  35.8726         46
  35.9098         43
  35.9469         64
  35.9841         41
  36.0213         47
  36.0584         41
  36.0956         40
  36.1327         63
  36.1699         44
  36.2070         27
  36.2442         38
  36.2813         48
  36.3185         43
  36.3556         34
  36.3928         46
  36.4299         56
  36.4671         45
  36.5042         44
  36.5414         50
  36.5785         50
  36.6157         50
  36.6528         40
  36.6900         41
  36.7271         47
  36.7643         54
  36.8014         47
  36.8386         41
  36.8757         45
  36.9129         48
  36.9500         50
  36.9872         46
  37.0243         39
  37.0615         30
  37.0986         45
  37.1358         38
  37.1729         53
  37.2101         36
  37.2472         43
  37.2844         47
  37.3215         53
  37.3587         42
  37.3958         51
  37.4330         74
  37.4701         62
  37.5073         52
  37.5445         61
  37.5816         48
  37.6188         53
  37.6559         51
  37.6931         47
  37.7302         51
  37.7674         48
  37.8045         46
  37.8417         46
  37.8788         39
  37.9160         43
  37.9531         47
  37.9903         42
  38.0274         46
  38.0646         56
  38.1017         43
  38.1389         42
  38.1760         29
  38.2132         38
  38.2503         40
  38.2875         49
  38.3246         32
  38.3618         50
  38.3989         42
  38.4361         34
  38.4732         42
  38.5104         48
  38.5475         42
  38.5847         40
  38.6218         42
  38.6590         50
  38.6961         53
  38.7333         45
  38.7704         39
  38.8076         42
  38.8447         45
  38.8819         32
  38.9190         36
  38.9562         44
  38.9933         35
  39.0305         52
  39.0677         30
  39.1048         46
  39.1420         37
  39.1791         48
  39.2163         39
  39.2534         39
  39.2906         43
  39.3277         49
  39.3649         37
  39.4020         33
  39.4392         37
  39.4763         33
  39.5135         45
  39.5506         34
  39.5878         42
  39.6249         35
  39.6621         41
  39.6992         40
  39.7364         44
  39.7735         44
  39.8107         49
  39.8478         25
  39.8850         37
  39.9221         49
  39.9593         43
  39.9964         45
  40.0336         40
  40.0707         46
  40.1079         45
  40.1450         29
  40.1822         46
  40.2193         37
  40.2565         47
  40.2936         32
  40.3308         36
  40.3679         39
  40.4051         41
  40.4422         38
  40.4794         38
  40.5165         45
  40.5537         41
  40.5908         33
  40.6280         31
  40.6652         31
  40.7023         35
  40.7395         33
  40.7766         39
  40.8138         38
  40.8509         33
  40.8881         40
  40.9252         39
  40.9624         34
  40.9995         46
  41.0367         38
  41.0738         33
  41.1110         50
  41.1481         36
  41.1853         51
  41.2224         33
  41.2596         36
  41.2967         40
  41.3339         37
  41.3710         39
  41.4082         51
  41.4453         38
  41.4825         32
  41.5196         47
  41.5568         49
  41.5939         34
  41.6311         41
  41.6682         40
  41.7054         39
  41.7425         40
  41.7797         35
  41.8168         41
  41.8540         24
  41.8911         37
  41.9283         32
  41.9654         33
  42.0026         36
  42.0397         29
  42.0769         39
  42.1140         33
  42.1512         38
  42.1884         34
  42.2255         34
  42.2627         39
  42.2998         37
  42.3370         46
  42.3741         39
  42.4113         39
  42.4484         27
  42.4856         34
  42.5227         31
  42.5599         37
  42.5970         30
  42.6342         52
  42.6713         31
  42.7085         36
  42.7456         43
  42.7828         37
  42.8199         33
  42.8571         34
  42.8942         35
  42.9314         37
  42.9685         40
  43.0057         38
  43.0428         32
  43.0800         35
  43.1171         35
  43.1543         41
  43.1914         44
  43.2286         55
  43.2657         45
  43.3029         42
  43.3400         48
  43.3772         39
  43.4143         40
  43.4515         41
  43.4886         48
  43.5258         61
  43.5629         45
  43.6001         50
  43.6372         40
  43.6744         43
  43.7116         33
  43.7487         28
  43.7859         49
  43.8230         29
  43.8602         32
  43.8973         36
  43.9345         37
  43.9716         35
  44.0088         52
  44.0459         37
  44.0831         38
  44.1202         49
  44.1574         31
  44.1945         40
  44.2317         26
  44.2688         32
  44.3060         27
  44.3431         36
  44.3803         35
  44.4174         33
  44.4546         38
  44.4917         38
  44.5289         35
  44.5660         37
  44.6032         30
  44.6403         47
  44.6775         26
  44.7146         43
  44.7518         35
  44.7889         34
  44.8261         38
  44.8632         34
  44.9004         36
  44.9375         29
  44.9747         25
  45.0118         39
  45.0490         34
  45.0861         32
  45.1233         33
  45.1604         32
  45.1976         19
  45.2347         27
  45.2719         39
  45.3091         36
  45.3462         30
  45.3834         28
  45.4205         34
  45.4577         41
  45.4948         39
  45.5320         32
  45.5691         35
  45.6063         30
  45.6434         36
  45.6806         34
  45.7177         44
  45.7549         27
  45.7920         29
  45.8292         37
  45.8663         30
  45.9035         41
  45.9406         33
  45.9778         31
  46.0149         33
  46.0521         40
  46.0892         35
  46.1264         24
  46.1635         35
  46.2007         35
  46.2378         42
  46.2750         32
  46.3121         26
  46.3493         41
  46.3864         40
  46.4236         27
  46.4607         35
  46.4979         33
  46.5350         35
  46.5722         39
  46.6093         27
  46.6465         35
  46.6836         29
  46.7208         28
  46.7579         30
  46.7951         29
  46.8323         42
  46.8694         31
  46.9066         28
  46.9437         21
  46.9809         22
  47.0180         38
  47.0552         25
  47.0923         33
  47.1295         28
  47.1666         44
  47.2038         33
  47.2409         31
  47.2781         38
  47.3152         35
  47.3524         31
  47.3895         40
  47.4267         28
  47.4638         30
  47.5010         27
  47.5381         35
  47.5753         29
  47.6124         30
  47.6496         30
  47.6867         22
  47.7239         39
  47.7610         28
  47.7982         30
  47.8353         25
  47.8725         42
  47.9096         29
  47.9468         22
  47.9839         24
  48.0211         21
  48.0582         24
  48.0954         45
  48.1325         40
  48.1697         33
  48.2068         24
  48.2440         32
  48.2811         34
  48.3183         25
  48.3555         26
  48.3926         30
  48.4298         25
  48.4669         39
  48.5041         36
  48.5412         34
  48.5784         35
  48.6155         21
  48.6527         30
  48.6898         30
  48.7270         30
  48.7641         31
  48.8013         37
  48.8384         27
  48.8756         38
  48.9127         49
  48.9499         43
  48.9870         45
  49.0242         34
  49.0613         48
  49.0985         54
  49.1356         30
  49.1728         32
  49.2099         38
  49.2471         29
  49.2842         25
  49.3214         33
  49.3585         43
  49.3957         30
  49.4328         31
  49.4700         34
  49.5071         24
  49.5443         30
  49.5814         30
  49.6186         24
  49.6557         26
  49.6929         32
  49.7300         27
  49.7672         31
  49.8043         33
  49.8415         24
  49.8786         30
  49.9158         29
  49.9530         22
  49.9901         27
  50.0273         25
  50.0644         35
  50.1016         32
  50.1387         31
  50.1759         32
  50.2130         35
  50.2502         30
  50.2873         33
  50.3245         49
  50.3616         32
  50.3988         29
  50.4359         26
  50.4731         31
  50.5102         27
  50.5474         29
  50.5845         30
  50.6217         27
  50.6588         22
  50.6960         45
  50.7331         34
  50.7703         33
  50.8074         33
  50.8446         30
  50.8817         36
  50.9189         34
  50.9560         32
  50.9932         34
  51.0303         23
  51.0675         26
  51.1046         21
  51.1418         17
  51.1789         34
  51.2161         32
  51.2532         30
  51.2904         23
  51.3275         39
  51.3647         38
  51.4018         38
  51.4390         28
  51.4762         29
  51.5133         30
  51.5505         40
  51.5876         31
  51.6248         31
  51.6619         32
  51.6991         34
  51.7362         23
  51.7734         28
  51.8105         23
  51.8477         24
  51.8848         39
  51.9220         35
  51.9591         26
  51.9963         37
  52.0334         35
  52.0706         26
  52.1077         35
  52.1449         33
  52.1820         25
  52.2192         22
  52.2563         35
  52.2935         24
  52.3306         24
  52.3678         34
  52.4049         25
  52.4421         25
  52.4792         31
  52.5164         31
  52.5535         26
  52.5907         27
  52.6278         36
  52.6650         32
  52.7021         28
  52.7393         30
  52.7764         26
  52.8136         26
  52.8507         28
  52.8879         23
  52.9250         27
  52.9622         22
  52.9994         25
  53.0365         31
  53.0737         20
  53.1108         29
  53.1480         31
  53.1851         31
  53.2223         39
  53.2594         37
  53.2966         29
  53.3337         26
  53.3709         30
  53.4080         25
  53.4452         27
  53.4823         36
  53.5195         29
  53.5566         32
  53.5938         22
  53.6309         28
  53.6681         28
  53.7052         22
  53.7424         25
  53.7795         41
  53.8167         16
  53.8538         28
  53.8910         23
  53.9281         23
  53.9653         41
  54.0024         44
  54.0396         36
  54.0767         24
  54.1139         28
  54.1510         45
  54.1882         32
  54.2253         33
  54.2625         43
  54.2996         35
  54.3368         34
  54.3739         25
  54.4111         27
  54.4482         42
  54.4854         32
  54.5225         25
  54.5597         27
  54.5969         24
  54.6340         22
  54.6712         22
  54.7083         24
  54.7455         30
  54.7826         24
  54.8198         33
  54.8569         23
  54.8941         14
  54.9312         28
  54.9684         30
  55.0055         28
  55.0427         24
  55.0798         29
  55.1170         14
  55.1541         29
  55.1913         27
  55.2284         24
  55.2656         22
  55.3027         33
  55.3399         32
  55.3770         31
  55.4142         27
  55.4513         27
  55.4885         27
  55.5256         34
  55.5628         33
  55.5999         32
  55.6371         22
  55.6742         35
  55.7114         23
  55.7485         27
  55.7857         24
  55.8228         22
  55.8600         25
  55.8971         28
  55.9343         30
  55.9714         29
  56.0086         26
  56.0457         35
  56.0829         21
  56.1201         25
  56.1572         30
  56.1944         34
  56.2315         38
  56.2687         35
  56.3058         36
  56.3430         18
  56.3801         38
  56.4173         19
  56.4544         34
  56.4916         35
  56.5287         29
  56.5659         31
  56.6030         23
  56.6402         22
  56.6773         34
  56.7145         28
  56.7516         29
  56.7888         17
  56.8259         31
  56.8631         29
  56.9002         23
  56.9374         34
  56.9745         22
  57.0117         34
  57.0488         31
  57.0860         18
  57.1231         29
  57.1603         28
  57.1974         27
  57.2346         25
  57.2717         37
  57.3089         36
  57.3460         23
  57.3832         24
  57.4203         23
  57.4575         36
  57.4946         27
  57.5318         22
  57.5689         27
  57.6061         20
  57.6433         28
  57.6804         37
  57.7176         30
  57.7547         35
  57.7919         34
  57.8290         33
  57.8662         22
  57.9033         19
  57.9405         29
  57.9776         27
  58.0148         26
  58.0519         23
  58.0891         24
  58.1262         21
  58.1634         24
  58.2005         26
  58.2377         22
  58.2748         28
  58.3120         33
  58.3491         32
  58.3863         27
  58.4234         25
  58.4606         23
  58.4977         21
  58.5349         23
  58.5720         24
  58.6092         29
  58.6463         29
  58.6835         22
  58.7206         27
  58.7578         27
  58.7949         25
  58.8321         25
  58.8692         30
  58.9064         22
  58.9435         21
  58.9807         22
  59.0178         31
  59.0550         26
  59.0921         29
  59.1293         22
  59.1664         27
  59.2036         25
  59.2408         25
  59.2779         35
  59.3151         40
  59.3522         27
  59.3894         21
  59.4265         39
  59.4637         30
  59.5008         29
  59.5380         27
  59.5751         32
  59.6123         31
  59.6494         35
  59.6866         25
  59.7237         28
  59.7609         21
  59.7980         32
  59.8352         23
  59.8723         28
  59.9095         27
  59.9466         26
  59.9838         24
  60.0024         28