File: notebooks/data/xrd_data/ML_20220720_0_SJD_4_LaB6-1min.uxd
; (content of file Y:\Sam\Apurva-07-20-2022\puck4\ML_20220718_0_SJD_0_LaB6-1min.raw)
_FILEVERSION = 3
_SAMPLE = ML_20220718_0_SJD_0_LaB6-1mi
_+SAMPLE =
_SITE = USA
_USER = Administrator
_GONIOMETER_CODE = 20
; Goniometer : D8 theta/2theta, stage : Unknown
_ATTACHMENTS_CODE = 0
_GONIOMETER_RADIUS = 200.5
_FIXED_DIVSLIT = 0.6
_FIXED_SAMPLESLIT = 0
_SOLLER_SLITS = 2
_FIXED_DETSLIT = 9.55
_MONOCHROMATOR = 0
; Incident beam monochromator : None
_SOLLER_SLITS_2 = N
_THIN_FILM = N
_BETA_FILTER = Y
_FIXED_ANTISLIT = 5.89
_ANALYZER_CODE = 0
; Received beam analyzer : None
_DATEMEASURED = "21-Jul-2022 02:58:41"
_WL_UNIT = A
_WL1 = 1.5406
_WL2 = 1.54439
_WL3 = 1.39222
_WLRATIO = 0.5
_ANODE = Cu
_V4_INF_CREATOR = XRDWizard
_V4_INF_CREATOR_VERSION = V2.9.0.22
_V4_INF_WIZARD_VERSION = V2.9.0.22
_V4_INF_WIZARD_ADDINS = V2.9.0.22
_V4_INF_WIZARD_DOCTYPE = XRD
_V4_INF_OSUSER = McQueenLab
_V4_INF_USER = Administrator
_V4_INF_SITE = USA
_V4_INF_SAMPLEID = ML_20220718_0_SJD_0_LaB6-1mi

; Data for range 1
_DRIVE = COUPLED
_STEPTIME = 4.23
_STEPSIZE = 0.0185756
_STEPMODE = C
_START = 5
_THETA = 2.5
_2THETA = 5
_KHI = 0
_PHI = 0
_X = 0
_Y = 0
_Z = 0
_DETECTOR = 5
; Detector type : Unknown
_DETECTORSLIT = unkn
_AUX1 = 0
_AUX2 = 0
_AUX3 = 0
_TIMESTARTED = 15
_TEMP_RATE = -1
_TEMP_DELAY = -1
_KV = 40
_MA = 40
_RANGE_WL = 1.5406
_3DPLANE = 0
_V4_ADDITIONALDETECTOR = 257
_V4_PSD2THETA = 3.3706
_V4_PSDCHANNEL1 = 0
_V4_PSDAPERTURE = 12.68
_V4_PSDTYPE = 5
_V4_PSDFIXED = 0
_V4_COUNTERS_MASK = 4096
_V4_DRIVES_MASK = 0
_V4_ENCODERS_MASK = 0
_2THETACOUNTS = 1
; 2THETA  PSD
   5.0000         84
   5.0372         91
   5.0743         94
   5.1115         98
   5.1486         89
   5.1858         76
   5.2229         86
   5.2601         71
   5.2972         96
   5.3344         93
   5.3715         83
   5.4087         86
   5.4458         94
   5.4830         85
   5.5201         94
   5.5573         91
   5.5944         75
   5.6316         76
   5.6687         78
   5.7059         81
   5.7430         62
   5.7802         79
   5.8173         77
   5.8545         73
   5.8916         72
   5.9288         82
   5.9659         76
   6.0031         68
   6.0402         66
   6.0774         69
   6.1145         63
   6.1517         67
   6.1888         70
   6.2260         55
   6.2631         74
   6.3003         61
   6.3374         61
   6.3746         53
   6.4117         55
   6.4489         60
   6.4860         62
   6.5232         66
   6.5604         50
   6.5975         57
   6.6347         54
   6.6718         54
   6.7090         58
   6.7461         59
   6.7833         63
   6.8204         54
   6.8576         75
   6.8947         59
   6.9319         69
   6.9690         50
   7.0062         55
   7.0433         55
   7.0805         70
   7.1176         68
   7.1548         68
   7.1919         53
   7.2291         65
   7.2662         57
   7.3034         55
   7.3405         74
   7.3777         50
   7.4148         53
   7.4520         64
   7.4891         66
   7.5263         52
   7.5634         57
   7.6006         56
   7.6377         62
   7.6749         55
   7.7120         65
   7.7492         61
   7.7863         61
   7.8235         72
   7.8606         69
   7.8978         52
   7.9349         75
   7.9721         60
   8.0092         71
   8.0464         58
   8.0835         56
   8.1207         68
   8.1579         77
   8.1950         62
   8.2322         80
   8.2693         55
   8.3065         58
   8.3436         70
   8.3808         70
   8.4179         62
   8.4551         58
   8.4922         61
   8.5294         69
   8.5665         67
   8.6037         70
   8.6408         58
   8.6780         77
   8.7151         78
   8.7523         71
   8.7894         72
   8.8266         70
   8.8637         89
   8.9009         72
   8.9380         85
   8.9752         89
   9.0123         70
   9.0495         68
   9.0866         67
   9.1238         78
   9.1609         76
   9.1981         85
   9.2352         75
   9.2724         85
   9.3095         80
   9.3467         81
   9.3838         75
   9.4210         81
   9.4581         76
   9.4953         72
   9.5324         88
   9.5696         89
   9.6067         69
   9.6439         74
   9.6811         64
   9.7182         71
   9.7554         81
   9.7925         96
   9.8297         94
   9.8668         93
   9.9040         77
   9.9411         88
   9.9783         88
  10.0154         74
  10.0526         83
  10.0897         62
  10.1269         97
  10.1640         76
  10.2012         97
  10.2383         84
  10.2755         96
  10.3126         83
  10.3498         92
  10.3869         82
  10.4241         86
  10.4612        100
  10.4984         89
  10.5355         87
  10.5727         81
  10.6098        101
  10.6470         79
  10.6841         95
  10.7213         81
  10.7584         96
  10.7956         80
  10.8327         80
  10.8699         94
  10.9070         82
  10.9442        101
  10.9813         85
  11.0185         72
  11.0556         77
  11.0928         98
  11.1299         90
  11.1671         79
  11.2043         77
  11.2414         94
  11.2786         74
  11.3157         84
  11.3529         88
  11.3900         82
  11.4272         76
  11.4643         75
  11.5015         86
  11.5386         91
  11.5758         76
  11.6129         91
  11.6501        104
  11.6872         94
  11.7244         85
  11.7615         78
  11.7987         67
  11.8358         79
  11.8730         85
  11.9101         82
  11.9473         72
  11.9844         73
  12.0216         80
  12.0587         84
  12.0959         71
  12.1330         70
  12.1702         77
  12.2073         81
  12.2445         75
  12.2816         80
  12.3188         93
  12.3559         76
  12.3931         87
  12.4302         75
  12.4674         73
  12.5045         80
  12.5417         77
  12.5788         62
  12.6160         75
  12.6531         81
  12.6903         86
  12.7274         65
  12.7646         68
  12.8018         69
  12.8389         67
  12.8761         95
  12.9132         70
  12.9504         72
  12.9875         55
  13.0247         74
  13.0618         91
  13.0990         82
  13.1361         73
  13.1733         82
  13.2104         55
  13.2476         69
  13.2847         58
  13.3219         63
  13.3590         68
  13.3962         58
  13.4333         72
  13.4705         78
  13.5076         66
  13.5448         79
  13.5819         71
  13.6191         76
  13.6562         62
  13.6934         64
  13.7305         54
  13.7677         78
  13.8048         83
  13.8420         62
  13.8791         66
  13.9163         69
  13.9534         81
  13.9906         85
  14.0277         63
  14.0649         68
  14.1020         70
  14.1392         70
  14.1763         57
  14.2135         70
  14.2506         55
  14.2878         54
  14.3250         56
  14.3621         66
  14.3993         60
  14.4364         56
  14.4736         72
  14.5107         69
  14.5479         67
  14.5850         62
  14.6222         65
  14.6593         57
  14.6965         67
  14.7336         64
  14.7708         72
  14.8079         51
  14.8451         57
  14.8822         48
  14.9194         59
  14.9565         62
  14.9937         59
  15.0308         60
  15.0680         58
  15.1051         47
  15.1423         59
  15.1794         47
  15.2166         59
  15.2537         61
  15.2909         52
  15.3280         65
  15.3652         60
  15.4023         50
  15.4395         61
  15.4766         58
  15.5138         48
  15.5509         50
  15.5881         59
  15.6252         71
  15.6624         53
  15.6995         55
  15.7367         61
  15.7738         52
  15.8110         72
  15.8482         62
  15.8853         58
  15.9225         72
  15.9596         63
  15.9968         52
  16.0339         57
  16.0711         52
  16.1082         56
  16.1454         63
  16.1825         54
  16.2197         65
  16.2568         51
  16.2940         73
  16.3311         53
  16.3683         64
  16.4054         55
  16.4426         58
  16.4797         48
  16.5169         69
  16.5540         51
  16.5912         61
  16.6283         56
  16.6655         52
  16.7026         52
  16.7398         54
  16.7769         62
  16.8141         70
  16.8512         62
  16.8884         75
  16.9255         50
  16.9627         60
  16.9998         55
  17.0370         56
  17.0741         63
  17.1113         62
  17.1484         55
  17.1856         68
  17.2227         68
  17.2599         54
  17.2970         69
  17.3342         51
  17.3713         72
  17.4085         60
  17.4457         58
  17.4828         63
  17.5200         57
  17.5571         58
  17.5943         58
  17.6314         46
  17.6686         75
  17.7057         74
  17.7429         53
  17.7800         67
  17.8172         55
  17.8543         63
  17.8915         56
  17.9286         60
  17.9658         53
  18.0029         59
  18.0401         46
  18.0772         59
  18.1144         59
  18.1515         50
  18.1887         63
  18.2258         69
  18.2630         46
  18.3001         54
  18.3373         53
  18.3744         64
  18.4116         64
  18.4487         55
  18.4859         54
  18.5230         54
  18.5602         59
  18.5973         65
  18.6345         47
  18.6716         59
  18.7088         59
  18.7459         54
  18.7831         65
  18.8202         51
  18.8574         65
  18.8945         49
  18.9317         53
  18.9689         54
  19.0060         65
  19.0432         60
  19.0803         64
  19.1175         72
  19.1546         48
  19.1918         65
  19.2289         59
  19.2661         64
  19.3032         61
  19.3404         67
  19.3775         65
  19.4147         78
  19.4518         65
  19.4890         68
  19.5261         62
  19.5633         69
  19.6004         64
  19.6376         52
  19.6747         64
  19.7119         64
  19.7490         62
  19.7862         75
  19.8233         66
  19.8605         64
  19.8976         46
  19.9348         59
  19.9719         63
  20.0091         73
  20.0462         60
  20.0834         67
  20.1205         75
  20.1577         45
  20.1948         63
  20.2320         51
  20.2691         62
  20.3063         69
  20.3434         62
  20.3806         57
  20.4177         58
  20.4549         51
  20.4921         71
  20.5292         71
  20.5664         74
  20.6035         67
  20.6407         56
  20.6778         68
  20.7150         73
  20.7521         60
  20.7893         68
  20.8264         57
  20.8636         61
  20.9007         62
  20.9379         72
  20.9750         73
  21.0122         68
  21.0493         71
  21.0865         85
  21.1236        103
  21.1608         82
  21.1979        109
  21.2351        111
  21.2722        104
  21.3094        117
  21.3465        182
  21.3837        112
  21.4208         84
  21.4580         68
  21.4951         82
  21.5323         73
  21.5694         84
  21.6066         77
  21.6437         63
  21.6809         73
  21.7180         80
  21.7552         63
  21.7923         64
  21.8295         59
  21.8666         83
  21.9038         66
  21.9409         64
  21.9781         75
  22.0152         72
  22.0524         66
  22.0896         73
  22.1267         58
  22.1639         75
  22.2010         79
  22.2382         77
  22.2753         72
  22.3125         63
  22.3496         75
  22.3868         69
  22.4239         83
  22.4611         74
  22.4982         76
  22.5354         87
  22.5725         79
  22.6097         65
  22.6468         82
  22.6840         71
  22.7211         70
  22.7583         76
  22.7954         84
  22.8326         73
  22.8697         75
  22.9069         68
  22.9440         79
  22.9812         66
  23.0183         77
  23.0555         82
  23.0926         73
  23.1298         64
  23.1669         66
  23.2041         59
  23.2412         86
  23.2784         70
  23.3155         65
  23.3527         75
  23.3898         66
  23.4270         88
  23.4641         65
  23.5013         69
  23.5384         73
  23.5756         73
  23.6128         73
  23.6499         71
  23.6871         76
  23.7242         60
  23.7614         69
  23.7985         77
  23.8357         88
  23.8728         68
  23.9100         68
  23.9471         86
  23.9843         92
  24.0214         73
  24.0586         68
  24.0957         91
  24.1329         76
  24.1700         82
  24.2072         74
  24.2443         79
  24.2815         80
  24.3186         81
  24.3558         82
  24.3929         87
  24.4301         65
  24.4672         77
  24.5044         69
  24.5415         80
  24.5787         66
  24.6158         80
  24.6530         80
  24.6901         77
  24.7273         60
  24.7644         75
  24.8016         71
  24.8387         63
  24.8759         86
  24.9130         69
  24.9502         73
  24.9873         71
  25.0245         69
  25.0616         69
  25.0988         62
  25.1360         73
  25.1731         74
  25.2103         68
  25.2474         64
  25.2846         76
  25.3217         66
  25.3589         64
  25.3960         57
  25.4332         68
  25.4703         65
  25.5075         73
  25.5446         63
  25.5818         86
  25.6189         82
  25.6561         74
  25.6932         76
  25.7304         62
  25.7675         79
  25.8047         83
  25.8418         75
  25.8790         62
  25.9161         79
  25.9533         66
  25.9904         68
  26.0276         65
  26.0647         86
  26.1019         65
  26.1390         88
  26.1762         72
  26.2133         85
  26.2505         61
  26.2876         59
  26.3248         66
  26.3619         66
  26.3991         66
  26.4362         70
  26.4734         69
  26.5105         56
  26.5477         64
  26.5848         74
  26.6220         70
  26.6591         68
  26.6963         65
  26.7335         64
  26.7706         72
  26.8078         51
  26.8449         69
  26.8821         64
  26.9192         71
  26.9564         70
  26.9935         70
  27.0307         47
  27.0678         67
  27.1050         63
  27.1421         80
  27.1793         79
  27.2164         91
  27.2536         75
  27.2907         68
  27.3279         71
  27.3650         87
  27.4022         68
  27.4393         45
  27.4765         63
  27.5136         69
  27.5508         81
  27.5879         72
  27.6251         70
  27.6622         69
  27.6994         59
  27.7365         60
  27.7737         67
  27.8108         63
  27.8480         69
  27.8851         57
  27.9223         69
  27.9594         61
  27.9966         62
  28.0337         72
  28.0709         59
  28.1080         66
  28.1452         76
  28.1823         64
  28.2195         69
  28.2567         66
  28.2938         74
  28.3310         54
  28.3681         61
  28.4053         57
  28.4424         55
  28.4796         53
  28.5167         53
  28.5539         61
  28.5910         65
  28.6282         69
  28.6653         63
  28.7025         62
  28.7396         64
  28.7768         52
  28.8139         64
  28.8511         53
  28.8882         54
  28.9254         58
  28.9625         59
  28.9997         65
  29.0368         61
  29.0740         61
  29.1111         61
  29.1483         46
  29.1854         43
  29.2226         44
  29.2597         63
  29.2969         60
  29.3340         53
  29.3712         62
  29.4083         51
  29.4455         52
  29.4826         69
  29.5198         57
  29.5569         54
  29.5941         58
  29.6312         61
  29.6684         44
  29.7055         58
  29.7427         68
  29.7799         49
  29.8170         49
  29.8542         53
  29.8913         51
  29.9285         45
  29.9656         66
  30.0028         62
  30.0399         58
  30.0771         55
  30.1142         58
  30.1514         61
  30.1885         60
  30.2257         75
  30.2628         65
  30.3000         74
  30.3371         95
  30.3743        132
  30.4114         93
  30.4486         97
  30.4857         59
  30.5229         62
  30.5600         59
  30.5972         64
  30.6343         57
  30.6715         57
  30.7086         58
  30.7458         59
  30.7829         56
  30.8201         72
  30.8572         55
  30.8944         49
  30.9315         58
  30.9687         60
  31.0058         52
  31.0430         54
  31.0801         43
  31.1173         59
  31.1544         44
  31.1916         54
  31.2287         47
  31.2659         47
  31.3030         35
  31.3402         44
  31.3774         51
  31.4145         57
  31.4517         51
  31.4888         47
  31.5260         49
  31.5631         38
  31.6003         53
  31.6374         50
  31.6746         48
  31.7117         49
  31.7489         64
  31.7860         54
  31.8232         50
  31.8603         57
  31.8975         47
  31.9346         35
  31.9718         45
  32.0089         51
  32.0461         58
  32.0832         54
  32.1204         48
  32.1575         59
  32.1947         54
  32.2318         52
  32.2690         44
  32.3061         44
  32.3433         51
  32.3804         52
  32.4176         55
  32.4547         42
  32.4919         52
  32.5290         47
  32.5662         49
  32.6033         50
  32.6405         52
  32.6776         47
  32.7148         55
  32.7519         42
  32.7891         40
  32.8262         49
  32.8634         55
  32.9006         49
  32.9377         51
  32.9749         50
  33.0120         44
  33.0492         53
  33.0863         41
  33.1235         33
  33.1606         42
  33.1978         52
  33.2349         40
  33.2721         38
  33.3092         43
  33.3464         43
  33.3835         43
  33.4207         38
  33.4578         44
  33.4950         37
  33.5321         36
  33.5693         45
  33.6064         50
  33.6436         49
  33.6807         46
  33.7179         37
  33.7550         40
  33.7922         49
  33.8293         36
  33.8665         44
  33.9036         44
  33.9408         41
  33.9779         45
  34.0151         36
  34.0522         50
  34.0894         36
  34.1265         29
  34.1637         48
  34.2008         37
  34.2380         37
  34.2751         42
  34.3123         46
  34.3494         46
  34.3866         47
  34.4238         47
  34.4609         33
  34.4981         41
  34.5352         43
  34.5724         49
  34.6095         42
  34.6467         57
  34.6838         44
  34.7210         55
  34.7581         63
  34.7953         64
  34.8324         53
  34.8696         49
  34.9067         43
  34.9439         34
  34.9810         33
  35.0182         36
  35.0553         49
  35.0925         36
  35.1296         44
  35.1668         29
  35.2039         32
  35.2411         41
  35.2782         40
  35.3154         36
  35.3525         52
  35.3897         37
  35.4268         43
  35.4640         17
  35.5011         45
  35.5383         35
  35.5754         26
  35.6126         41
  35.6497         35
  35.6869         41
  35.7240         26
  35.7612         36
  35.7983         42
  35.8355         39
  35.8726         42
  35.9098         31
  35.9469         38
  35.9841         41
  36.0213         33
  36.0584         33
  36.0956         32
  36.1327         32
  36.1699         49
  36.2070         28
  36.2442         42
  36.2813         26
  36.3185         28
  36.3556         47
  36.3928         38
  36.4299         27
  36.4671         26
  36.5042         31
  36.5414         37
  36.5785         35
  36.6157         36
  36.6528         27
  36.6900         33
  36.7271         19
  36.7643         27
  36.8014         38
  36.8386         20
  36.8757         20
  36.9129         39
  36.9500         43
  36.9872         28
  37.0243         23
  37.0615         33
  37.0986         29
  37.1358         39
  37.1729         36
  37.2101         22
  37.2472         42
  37.2844         36
  37.3215         42
  37.3587         36
  37.3958         50
  37.4330         50
  37.4701         34
  37.5073         42
  37.5445         35
  37.5816         30
  37.6188         29
  37.6559         41
  37.6931         28
  37.7302         32
  37.7674         30
  37.8045         34
  37.8417         31
  37.8788         19
  37.9160         41
  37.9531         33
  37.9903         30
  38.0274         22
  38.0646         32
  38.1017         32
  38.1389         30
  38.1760         27
  38.2132         24
  38.2503         26
  38.2875         24
  38.3246         20
  38.3618         25
  38.3989         30
  38.4361         38
  38.4732         32
  38.5104         29
  38.5475         30
  38.5847         37
  38.6218         29
  38.6590         34
  38.6961         24
  38.7333         29
  38.7704         25
  38.8076         32
  38.8447         29
  38.8819         34
  38.9190         34
  38.9562         26
  38.9933         31
  39.0305         35
  39.0677         29
  39.1048         31
  39.1420         30
  39.1791         24
  39.2163         33
  39.2534         34
  39.2906         41
  39.3277         32
  39.3649         26
  39.4020         29
  39.4392         25
  39.4763         23
  39.5135         28
  39.5506         20
  39.5878         33
  39.6249         39
  39.6621         24
  39.6992         34
  39.7364         29
  39.7735         32
  39.8107         33
  39.8478         39
  39.8850         34
  39.9221         31
  39.9593         33
  39.9964         29
  40.0336         34
  40.0707         24
  40.1079         20
  40.1450         30
  40.1822         27
  40.2193         25
  40.2565         31
  40.2936         32
  40.3308         28
  40.3679         32
  40.4051         23
  40.4422         29
  40.4794         33
  40.5165         36
  40.5537         28
  40.5908         29
  40.6280         23
  40.6652         30
  40.7023         38
  40.7395         23
  40.7766         25
  40.8138         35
  40.8509         19
  40.8881         37
  40.9252         35
  40.9624         28
  40.9995         30
  41.0367         32
  41.0738         31
  41.1110         30
  41.1481         32
  41.1853         14
  41.2224         27
  41.2596         23
  41.2967         32
  41.3339         24
  41.3710         26
  41.4082         23
  41.4453         28
  41.4825         22
  41.5196         29
  41.5568         21
  41.5939         24
  41.6311         30
  41.6682         26
  41.7054         33
  41.7425         21
  41.7797         20
  41.8168         27
  41.8540         29
  41.8911         24
  41.9283         31
  41.9654         31
  42.0026         30
  42.0397         40
  42.0769         27
  42.1140         17
  42.1512         32
  42.1884         28
  42.2255         26
  42.2627         27
  42.2998         15
  42.3370         36
  42.3741         15
  42.4113         44
  42.4484         29
  42.4856         29
  42.5227         25
  42.5599         30
  42.5970         28
  42.6342         28
  42.6713         24
  42.7085         29
  42.7456         24
  42.7828         32
  42.8199         16
  42.8571         28
  42.8942         29
  42.9314         27
  42.9685         30
  43.0057         38
  43.0428         27
  43.0800         33
  43.1171         28
  43.1543         32
  43.1914         32
  43.2286         33
  43.2657         29
  43.3029         33
  43.3400         36
  43.3772         31
  43.4143         30
  43.4515         49
  43.4886         46
  43.5258         25
  43.5629         28
  43.6001         43
  43.6372         32
  43.6744         32
  43.7116         38
  43.7487         29
  43.7859         25
  43.8230         17
  43.8602         31
  43.8973         25
  43.9345         18
  43.9716         24
  44.0088         27
  44.0459         29
  44.0831         24
  44.1202         26
  44.1574         30
  44.1945         22
  44.2317         24
  44.2688         30
  44.3060         30
  44.3431         31
  44.3803         28
  44.4174         32
  44.4546         33
  44.4917         38
  44.5289         24
  44.5660         27
  44.6032         32
  44.6403         30
  44.6775         24
  44.7146         27
  44.7518         35
  44.7889         26
  44.8261         30
  44.8632         14
  44.9004         38
  44.9375         27
  44.9747         28
  45.0118         30
  45.0490         33
  45.0861         28
  45.1233         26
  45.1604         20
  45.1976         15
  45.2347         24
  45.2719         30
  45.3091         19
  45.3462         35
  45.3834         18
  45.4205         35
  45.4577         18
  45.4948         31
  45.5320         19
  45.5691         26
  45.6063         26
  45.6434         20
  45.6806         21
  45.7177         25
  45.7549         32
  45.7920         37
  45.8292         24
  45.8663         32
  45.9035         24
  45.9406         18
  45.9778         20
  46.0149         24
  46.0521         20
  46.0892         29
  46.1264         26
  46.1635         23
  46.2007         19
  46.2378         23
  46.2750         28
  46.3121         18
  46.3493         25
  46.3864         16
  46.4236         25
  46.4607         26
  46.4979         20
  46.5350         24
  46.5722         17
  46.6093         26
  46.6465         28
  46.6836         35
  46.7208         13
  46.7579         22
  46.7951         21
  46.8323         35
  46.8694         21
  46.9066         36
  46.9437         31
  46.9809         26
  47.0180         23
  47.0552         23
  47.0923         24
  47.1295         23
  47.1666         28
  47.2038         23
  47.2409         31
  47.2781         20
  47.3152         23
  47.3524         28
  47.3895         27
  47.4267         29
  47.4638         24
  47.5010         20
  47.5381         20
  47.5753         26
  47.6124         28
  47.6496         24
  47.6867         19
  47.7239         26
  47.7610         24
  47.7982         26
  47.8353         18
  47.8725         22
  47.9096         24
  47.9468         20
  47.9839         31
  48.0211         15
  48.0582         25
  48.0954         28
  48.1325         18
  48.1697         21
  48.2068         25
  48.2440         23
  48.2811         25
  48.3183         27
  48.3555         23
  48.3926         19
  48.4298         21
  48.4669         24
  48.5041         26
  48.5412         15
  48.5784         20
  48.6155         17
  48.6527         28
  48.6898         21
  48.7270         22
  48.7641         15
  48.8013         27
  48.8384         24
  48.8756         26
  48.9127         38
  48.9499         39
  48.9870         32
  49.0242         35
  49.0613         26
  49.0985         39
  49.1356         24
  49.1728         24
  49.2099         25
  49.2471         19
  49.2842         20
  49.3214         34
  49.3585         26
  49.3957         29
  49.4328         24
  49.4700         22
  49.5071         20
  49.5443         26
  49.5814         30
  49.6186         27
  49.6557         15
  49.6929         29
  49.7300         18
  49.7672         23
  49.8043         31
  49.8415         36
  49.8786         26
  49.9158         13
  49.9530         20
  49.9901         11
  50.0273         34
  50.0644         20
  50.1016         28
  50.1387         27
  50.1759         28
  50.2130         29
  50.2502         22
  50.2873         16
  50.3245         20
  50.3616         18
  50.3988         24
  50.4359         17
  50.4731         14
  50.5102         22
  50.5474         18
  50.5845         21
  50.6217         19
  50.6588         20
  50.6960         22
  50.7331         26
  50.7703         26
  50.8074         22
  50.8446         16
  50.8817         23
  50.9189         21
  50.9560         32
  50.9932         21
  51.0303         18
  51.0675         19
  51.1046         25
  51.1418         21
  51.1789         16
  51.2161         13
  51.2532         26
  51.2904         22
  51.3275         20
  51.3647         32
  51.4018         24
  51.4390         20
  51.4762         20
  51.5133         15
  51.5505         27
  51.5876         21
  51.6248         25
  51.6619         27
  51.6991         28
  51.7362         32
  51.7734         22
  51.8105         23
  51.8477         28
  51.8848         25
  51.9220         19
  51.9591         11
  51.9963         27
  52.0334         21
  52.0706         29
  52.1077         24
  52.1449         29
  52.1820         21
  52.2192         23
  52.2563         22
  52.2935         17
  52.3306         17
  52.3678         20
  52.4049         25
  52.4421         24
  52.4792         24
  52.5164         26
  52.5535         27
  52.5907         16
  52.6278         17
  52.6650         23
  52.7021         27
  52.7393         18
  52.7764         19
  52.8136         18
  52.8507         20
  52.8879         24
  52.9250         30
  52.9622         32
  52.9994         29
  53.0365         37
  53.0737         21
  53.1108         19
  53.1480         25
  53.1851         15
  53.2223         17
  53.2594         23
  53.2966         23
  53.3337         26
  53.3709         25
  53.4080         17
  53.4452         22
  53.4823         17
  53.5195         22
  53.5566         18
  53.5938         32
  53.6309         22
  53.6681         23
  53.7052         16
  53.7424         24
  53.7795         23
  53.8167         21
  53.8538         15
  53.8910         20
  53.9281         31
  53.9653         39
  54.0024         27
  54.0396         34
  54.0767         19
  54.1139         28
  54.1510         26
  54.1882         21
  54.2253         17
  54.2625         25
  54.2996         17
  54.3368         23
  54.3739         19
  54.4111         22
  54.4482         27
  54.4854         32
  54.5225         23
  54.5597         17
  54.5969         24
  54.6340         24
  54.6712         26
  54.7083         20
  54.7455         28
  54.7826         12
  54.8198         21
  54.8569         21
  54.8941         18
  54.9312         21
  54.9684         20
  55.0055         16
  55.0427         19
  55.0798         18
  55.1170         23
  55.1541         14
  55.1913         19
  55.2284         24
  55.2656         17
  55.3027         23
  55.3399         15
  55.3770         25
  55.4142         24
  55.4513         14
  55.4885         16
  55.5256         18
  55.5628         17
  55.5999         22
  55.6371         19
  55.6742         16
  55.7114         21
  55.7485         20
  55.7857         22
  55.8228         26
  55.8600         18
  55.8971         16
  55.9343         19
  55.9714         21
  56.0086         19
  56.0457         27
  56.0829         20
  56.1201         21
  56.1572         24
  56.1944         25
  56.2315         22
  56.2687         22
  56.3058         23
  56.3430         28
  56.3801         24
  56.4173         19
  56.4544         27
  56.4916         21
  56.5287         25
  56.5659         15
  56.6030         19
  56.6402         23
  56.6773         24
  56.7145         21
  56.7516         21
  56.7888         19
  56.8259         21
  56.8631         13
  56.9002         20
  56.9374         17
  56.9745         22
  57.0117         26
  57.0488         17
  57.0860         11
  57.1231         24
  57.1603         13
  57.1974         24
  57.2346         21
  57.2717         22
  57.3089         13
  57.3460         12
  57.3832         14
  57.4203         18
  57.4575         25
  57.4946         17
  57.5318         15
  57.5689         16
  57.6061         15
  57.6433         14
  57.6804         26
  57.7176         18
  57.7547         13
  57.7919         26
  57.8290         28
  57.8662         14
  57.9033         20
  57.9405         19
  57.9776         23
  58.0148         16
  58.0519         26
  58.0891         25
  58.1262         13
  58.1634         18
  58.2005         16
  58.2377         28
  58.2748         18
  58.3120         19
  58.3491         19
  58.3863         21
  58.4234         22
  58.4606         29
  58.4977         27
  58.5349         14
  58.5720         14
  58.6092         18
  58.6463         22
  58.6835         19
  58.7206         17
  58.7578         21
  58.7949         20
  58.8321         13
  58.8692         21
  58.9064         23
  58.9435         15
  58.9807         19
  59.0178         19
  59.0550         24
  59.0921         22
  59.1293         25
  59.1664         13
  59.2036         25
  59.2408         27
  59.2779         15
  59.3151         22
  59.3522         16
  59.3894         23
  59.4265         16
  59.4637         22
  59.5008         19
  59.5380         14
  59.5751         16
  59.6123         16
  59.6494         18
  59.6866         25
  59.7237         21
  59.7609         12
  59.7980         17
  59.8352         26
  59.8723         17
  59.9095         24
  59.9466         16
  59.9838         17
  60.0024         20