File: notebooks/data/xrd_data/ML_20220721_12_SJD_4_LaB6-4min.csv
;,2THETA,
5.0000,262
5.0372,262
5.0743,258
5.1115,268
5.1486,244
5.1858,243
5.2229,248
5.2601,237
5.2972,253
5.3344,267
5.3715,239
5.4087,243
5.4458,214
5.4830,220
5.5201,230
5.5573,224
5.5944,237
5.6316,213
5.6687,247
5.7059,193
5.7430,232
5.7802,215
5.8173,201
5.8545,201
5.8916,219
5.9288,198
5.9659,209
6.0031,177
6.0402,209
6.0774,201
6.1145,212
6.1517,222
6.1888,194
6.2260,217
6.2631,188
6.3003,167
6.3374,191
6.3746,182
6.4117,181
6.4489,199
6.4860,186
6.5232,170
6.5604,190
6.5975,173
6.6347,158
6.6718,182
6.7090,184
6.7461,173
6.7833,171
6.8204,169
6.8576,157
6.8947,159
6.9319,160
6.9690,169
7.0062,159
7.0433,167
7.0805,159
7.1176,159
7.1548,175
7.1919,164
7.2291,141
7.2662,159
7.3034,160
7.3405,145
7.3777,179
7.4148,151
7.4520,144
7.4891,170
7.5263,178
7.5634,171
7.6006,164
7.6377,203
7.6749,181
7.7120,185
7.7492,191
7.7863,181
7.8235,185
7.8606,167
7.8978,182
7.9349,191
7.9721,183
8.0092,190
8.0464,189
8.0835,162
8.1207,184
8.1579,188
8.1950,223
8.2322,174
8.2693,172
8.3065,188
8.3436,213
8.3808,190
8.4179,215
8.4551,192
8.4922,201
8.5294,207
8.5665,198
8.6037,205
8.6408,236
8.6780,200
8.7151,212
8.7523,201
8.7894,233
8.8266,208
8.8637,215
8.9009,224
8.9380,204
8.9752,212
9.0123,247
9.0495,219
9.0866,220
9.1238,215
9.1609,243
9.1981,244
9.2352,231
9.2724,219
9.3095,241
9.3467,196
9.3838,221
9.4210,225
9.4581,224
9.4953,199
9.5324,230
9.5696,225
9.6067,205
9.6439,234
9.6811,251
9.7182,245
9.7554,226
9.7925,206
9.8297,229
9.8668,232
9.9040,269
9.9411,258
9.9783,233
10.0154,231
10.0526,247
10.0897,244
10.1269,255
10.1640,263
10.2012,265
10.2383,249
10.2755,266
10.3126,232
10.3498,206
10.3869,253
10.4241,207
10.4612,254
10.4984,245
10.5355,238
10.5727,249
10.6098,265
10.6470,218
10.6841,264
10.7213,243
10.7584,230
10.7956,232
10.8327,232
10.8699,236
10.9070,278
10.9442,236
10.9813,241
11.0185,238
11.0556,241
11.0928,239
11.1299,272
11.1671,252
11.2043,259
11.2414,225
11.2786,258
11.3157,249
11.3529,227
11.3900,233
11.4272,229
11.4643,219
11.5015,229
11.5386,210
11.5758,254
11.6129,252
11.6501,273
11.6872,245
11.7244,230
11.7615,244
11.7987,242
11.8358,241
11.8730,237
11.9101,248
11.9473,246
11.9844,208
12.0216,234
12.0587,241
12.0959,214
12.1330,203
12.1702,218
12.2073,218
12.2445,225
12.2816,219
12.3188,212
12.3559,215
12.3931,201
12.4302,247
12.4674,208
12.5045,211
12.5417,234
12.5788,217
12.6160,209
12.6531,203
12.6903,212
12.7274,230
12.7646,237
12.8018,202
12.8389,225
12.8761,224
12.9132,199
12.9504,222
12.9875,218
13.0247,218
13.0618,188
13.0990,193
13.1361,198
13.1733,187
13.2104,202
13.2476,215
13.2847,209
13.3219,194
13.3590,186
13.3962,182
13.4333,198
13.4705,208
13.5076,214
13.5448,187
13.5819,201
13.6191,196
13.6562,197
13.6934,172
13.7305,207
13.7677,213
13.8048,197
13.8420,195
13.8791,197
13.9163,211
13.9534,173
13.9906,187
14.0277,155
14.0649,192
14.1020,173
14.1392,190
14.1763,155
14.2135,189
14.2506,183
14.2878,187
14.3250,155
14.3621,199
14.3993,178
14.4364,163
14.4736,184
14.5107,183
14.5479,179
14.5850,187
14.6222,172
14.6593,163
14.6965,177
14.7336,168
14.7708,193
14.8079,169
14.8451,190
14.8822,165
14.9194,173
14.9565,182
14.9937,152
15.0308,151
15.0680,166
15.1051,169
15.1423,182
15.1794,173
15.2166,181
15.2537,165
15.2909,152
15.3280,168
15.3652,169
15.4023,150
15.4395,172
15.4766,172
15.5138,178
15.5509,155
15.5881,168
15.6252,166
15.6624,155
15.6995,175
15.7367,171
15.7738,146
15.8110,159
15.8482,149
15.8853,170
15.9225,149
15.9596,157
15.9968,161
16.0339,146
16.0711,174
16.1082,166
16.1454,157
16.1825,157
16.2197,173
16.2568,163
16.2940,167
16.3311,174
16.3683,174
16.4054,156
16.4426,163
16.4797,166
16.5169,178
16.5540,163
16.5912,170
16.6283,172
16.6655,159
16.7026,156
16.7398,178
16.7769,151
16.8141,170
16.8512,152
16.8884,170
16.9255,148
16.9627,168
16.9998,161
17.0370,134
17.0741,180
17.1113,161
17.1484,180
17.1856,160
17.2227,175
17.2599,189
17.2970,175
17.3342,179
17.3713,141
17.4085,171
17.4457,179
17.4828,167
17.5200,157
17.5571,169
17.5943,162
17.6314,184
17.6686,157
17.7057,164
17.7429,187
17.7800,159
17.8172,178
17.8543,168
17.8915,160
17.9286,161
17.9658,185
18.0029,185
18.0401,157
18.0772,154
18.1144,195
18.1515,161
18.1887,164
18.2258,172
18.2630,165
18.3001,153
18.3373,166
18.3744,168
18.4116,168
18.4487,167
18.4859,170
18.5230,143
18.5602,177
18.5973,161
18.6345,162
18.6716,177
18.7088,165
18.7459,176
18.7831,167
18.8202,185
18.8574,181
18.8945,163
18.9317,162
18.9689,162
19.0060,161
19.0432,166
19.0803,164
19.1175,176
19.1546,170
19.1918,152
19.2289,163
19.2661,159
19.3032,191
19.3404,161
19.3775,181
19.4147,165
19.4518,155
19.4890,187
19.5261,171
19.5633,164
19.6004,188
19.6376,165
19.6747,197
19.7119,175
19.7490,174
19.7862,186
19.8233,208
19.8605,186
19.8976,168
19.9348,188
19.9719,175
20.0091,189
20.0462,170
20.0834,197
20.1205,186
20.1577,199
20.1948,194
20.2320,191
20.2691,200
20.3063,169
20.3434,169
20.3806,166
20.4177,190
20.4549,186
20.4921,176
20.5292,173
20.5664,169
20.6035,189
20.6407,176
20.6778,195
20.7150,180
20.7521,194
20.7893,216
20.8264,180
20.8636,196
20.9007,172
20.9379,195
20.9750,175
21.0122,203
21.0493,188
21.0865,195
21.1236,228
21.1608,217
21.1979,276
21.2351,329
21.2722,287
21.3094,319
21.3465,517
21.3837,449
21.4208,349
21.4580,224
21.4951,217
21.5323,227
21.5694,203
21.6066,182
21.6437,196
21.6809,206
21.7180,201
21.7552,204
21.7923,203
21.8295,209
21.8666,195
21.9038,185
21.9409,192
21.9781,196
22.0152,209
22.0524,221
22.0896,193
22.1267,193
22.1639,188
22.2010,173
22.2382,211
22.2753,203
22.3125,219
22.3496,192
22.3868,189
22.4239,188
22.4611,173
22.4982,199
22.5354,197
22.5725,215
22.6097,205
22.6468,177
22.6840,210
22.7211,205
22.7583,177
22.7954,187
22.8326,189
22.8697,186
22.9069,184
22.9440,205
22.9812,203
23.0183,198
23.0555,201
23.0926,171
23.1298,206
23.1669,207
23.2041,183
23.2412,211
23.2784,189
23.3155,229
23.3527,197
23.3898,185
23.4270,208
23.4641,210
23.5013,232
23.5384,205
23.5756,214
23.6128,209
23.6499,233
23.6871,204
23.7242,197
23.7614,208
23.7985,200
23.8357,215
23.8728,191
23.9100,211
23.9471,183
23.9843,174
24.0214,198
24.0586,209
24.0957,203
24.1329,202
24.1700,204
24.2072,207
24.2443,220
24.2815,243
24.3186,224
24.3558,203
24.3929,211
24.4301,211
24.4672,234
24.5044,192
24.5415,172
24.5787,186
24.6158,194
24.6530,211
24.6901,206
24.7273,203
24.7644,216
24.8016,215
24.8387,212
24.8759,228
24.9130,195
24.9502,208
24.9873,212
25.0245,197
25.0616,174
25.0988,172
25.1360,201
25.1731,175
25.2103,199
25.2474,207
25.2846,195
25.3217,201
25.3589,199
25.3960,231
25.4332,180
25.4703,185
25.5075,178
25.5446,193
25.5818,191
25.6189,204
25.6561,213
25.6932,170
25.7304,211
25.7675,194
25.8047,177
25.8418,183
25.8790,190
25.9161,185
25.9533,194
25.9904,216
26.0276,171
26.0647,196
26.1019,146
26.1390,178
26.1762,178
26.2133,209
26.2505,193
26.2876,188
26.3248,175
26.3619,170
26.3991,222
26.4362,211
26.4734,175
26.5105,205
26.5477,183
26.5848,184
26.6220,187
26.6591,182
26.6963,186
26.7335,186
26.7706,184
26.8078,191
26.8449,192
26.8821,192
26.9192,184
26.9564,218
26.9935,169
27.0307,195
27.0678,204
27.1050,207
27.1421,225
27.1793,256
27.2164,247
27.2536,216
27.2907,212
27.3279,217
27.3650,159
27.4022,178
27.4393,174
27.4765,169
27.5136,175
27.5508,179
27.5879,184
27.6251,200
27.6622,188
27.6994,175
27.7365,172
27.7737,165
27.8108,166
27.8480,200
27.8851,186
27.9223,181
27.9594,161
27.9966,176
28.0337,179
28.0709,146
28.1080,164
28.1452,200
28.1823,155
28.2195,173
28.2567,173
28.2938,181
28.3310,173
28.3681,185
28.4053,177
28.4424,175
28.4796,172
28.5167,155
28.5539,182
28.5910,154
28.6282,178
28.6653,193
28.7025,158
28.7396,168
28.7768,171
28.8139,179
28.8511,153
28.8882,180
28.9254,156
28.9625,178
28.9997,186
29.0368,167
29.0740,151
29.1111,157
29.1483,173
29.1854,174
29.2226,156
29.2597,145
29.2969,181
29.3340,167
29.3712,157
29.4083,172
29.4455,132
29.4826,183
29.5198,168
29.5569,167
29.5941,157
29.6312,171
29.6684,155
29.7055,172
29.7427,154
29.7799,172
29.8170,153
29.8542,138
29.8913,138
29.9285,144
29.9656,158
30.0028,170
30.0399,154
30.0771,153
30.1142,143
30.1514,171
30.1885,157
30.2257,180
30.2628,173
30.3000,182
30.3371,214
30.3743,309
30.4114,271
30.4486,213
30.4857,220
30.5229,162
30.5600,159
30.5972,180
30.6343,141
30.6715,168
30.7086,151
30.7458,158
30.7829,174
30.8201,151
30.8572,145
30.8944,144
30.9315,143
30.9687,166
31.0058,146
31.0430,132
31.0801,135
31.1173,119
31.1544,142
31.1916,133
31.2287,137
31.2659,146
31.3030,140
31.3402,139
31.3774,144
31.4145,139
31.4517,137
31.4888,137
31.5260,134
31.5631,137
31.6003,163
31.6374,151
31.6746,150
31.7117,161
31.7489,141
31.7860,135
31.8232,127
31.8603,139
31.8975,141
31.9346,140
31.9718,112
32.0089,126
32.0461,144
32.0832,127
32.1204,143
32.1575,119
32.1947,126
32.2318,136
32.2690,149
32.3061,125
32.3433,135
32.3804,150
32.4176,128
32.4547,152
32.4919,168
32.5290,162
32.5662,156
32.6033,156
32.6405,133
32.6776,138
32.7148,123
32.7519,102
32.7891,118
32.8262,135
32.8634,120
32.9006,113
32.9377,133
32.9749,134
33.0120,142
33.0492,120
33.0863,134
33.1235,123
33.1606,130
33.1978,115
33.2349,132
33.2721,117
33.3092,140
33.3464,126
33.3835,110
33.4207,118
33.4578,120
33.4950,116
33.5321,120
33.5693,114
33.6064,120
33.6436,133
33.6807,122
33.7179,122
33.7550,143
33.7922,108
33.8293,116
33.8665,127
33.9036,120
33.9408,106
33.9779,104
34.0151,116
34.0522,112
34.0894,113
34.1265,115
34.1637,101
34.2008,126
34.2380,105
34.2751,140
34.3123,118
34.3494,99
34.3866,121
34.4238,116
34.4609,116
34.4981,120
34.5352,116
34.5724,134
34.6095,118
34.6467,147
34.6838,139
34.7210,138
34.7581,177
34.7953,183
34.8324,131
34.8696,146
34.9067,129
34.9439,124
34.9810,109
35.0182,101
35.0553,108
35.0925,102
35.1296,114
35.1668,99
35.2039,119
35.2411,128
35.2782,91
35.3154,94
35.3525,118
35.3897,101
35.4268,107
35.4640,105
35.5011,96
35.5383,96
35.5754,98
35.6126,103
35.6497,100
35.6869,115
35.7240,121
35.7612,88
35.7983,116
35.8355,105
35.8726,114
35.9098,82
35.9469,97
35.9841,95
36.0213,97
36.0584,84
36.0956,89
36.1327,95
36.1699,94
36.2070,99
36.2442,103
36.2813,91
36.3185,98
36.3556,96
36.3928,99
36.4299,98
36.4671,87
36.5042,75
36.5414,100
36.5785,90
36.6157,100
36.6528,96
36.6900,100
36.7271,95
36.7643,104
36.8014,89
36.8386,82
36.8757,85
36.9129,98
36.9500,86
36.9872,93
37.0243,86
37.0615,88
37.0986,77
37.1358,97
37.1729,101
37.2101,98
37.2472,91
37.2844,94
37.3215,91
37.3587,97
37.3958,120
37.4330,175
37.4701,133
37.5073,101
37.5445,137
37.5816,110
37.6188,86
37.6559,86
37.6931,81
37.7302,83
37.7674,86
37.8045,76
37.8417,90
37.8788,84
37.9160,95
37.9531,88
37.9903,80
38.0274,102
38.0646,78
38.1017,90
38.1389,89
38.1760,88
38.2132,85
38.2503,79
38.2875,72
38.3246,77
38.3618,92
38.3989,93
38.4361,93
38.4732,76
38.5104,66
38.5475,86
38.5847,77
38.6218,82
38.6590,70
38.6961,99
38.7333,76
38.7704,94
38.8076,92
38.8447,96
38.8819,90
38.9190,80
38.9562,93
38.9933,78
39.0305,59
39.0677,72
39.1048,68
39.1420,71
39.1791,78
39.2163,81
39.2534,72
39.2906,78
39.3277,73
39.3649,85
39.4020,77
39.4392,89
39.4763,87
39.5135,76
39.5506,61
39.5878,89
39.6249,88
39.6621,79
39.6992,80
39.7364,76
39.7735,74
39.8107,69
39.8478,96
39.8850,89
39.9221,81
39.9593,82
39.9964,86
40.0336,79
40.0707,70
40.1079,84
40.1450,64
40.1822,80
40.2193,76
40.2565,79
40.2936,77
40.3308,76
40.3679,78
40.4051,59
40.4422,59
40.4794,72
40.5165,82
40.5537,67
40.5908,67
40.6280,72
40.6652,66
40.7023,84
40.7395,97
40.7766,61
40.8138,71
40.8509,75
40.8881,62
40.9252,81
40.9624,111
40.9995,77
41.0367,79
41.0738,90
41.1110,72
41.1481,82
41.1853,88
41.2224,60
41.2596,81
41.2967,77
41.3339,79
41.3710,78
41.4082,85
41.4453,89
41.4825,52
41.5196,69
41.5568,72
41.5939,71
41.6311,78
41.6682,69
41.7054,76
41.7425,75
41.7797,65
41.8168,72
41.8540,82
41.8911,86
41.9283,68
41.9654,70
42.0026,66
42.0397,77
42.0769,72
42.1140,72
42.1512,82
42.1884,75
42.2255,86
42.2627,107
42.2998,73
42.3370,77
42.3741,69
42.4113,71
42.4484,91
42.4856,71
42.5227,58
42.5599,76
42.5970,79
42.6342,101
42.6713,58
42.7085,59
42.7456,68
42.7828,73
42.8199,74
42.8571,85
42.8942,78
42.9314,67
42.9685,64
43.0057,88
43.0428,79
43.0800,80
43.1171,103
43.1543,84
43.1914,84
43.2286,88
43.2657,78
43.3029,90
43.3400,83
43.3772,75
43.4143,88
43.4515,72
43.4886,107
43.5258,113
43.5629,80
43.6001,85
43.6372,85
43.6744,96
43.7116,76
43.7487,63
43.7859,77
43.8230,68
43.8602,79
43.8973,70
43.9345,65
43.9716,72
44.0088,85
44.0459,63
44.0831,82
44.1202,62
44.1574,81
44.1945,80
44.2317,58
44.2688,79
44.3060,73
44.3431,82
44.3803,69
44.4174,83
44.4546,62
44.4917,57
44.5289,84
44.5660,94
44.6032,70
44.6403,82
44.6775,77
44.7146,57
44.7518,84
44.7889,79
44.8261,55
44.8632,85
44.9004,60
44.9375,73
44.9747,51
45.0118,82
45.0490,92
45.0861,71
45.1233,83
45.1604,69
45.1976,63
45.2347,71
45.2719,64
45.3091,66
45.3462,76
45.3834,66
45.4205,66
45.4577,71
45.4948,71
45.5320,69
45.5691,62
45.6063,55
45.6434,58
45.6806,69
45.7177,56
45.7549,63
45.7920,67
45.8292,62
45.8663,63
45.9035,69
45.9406,71
45.9778,67
46.0149,58
46.0521,91
46.0892,63
46.1264,60
46.1635,70
46.2007,70
46.2378,62
46.2750,70
46.3121,63
46.3493,58
46.3864,70
46.4236,59
46.4607,62
46.4979,63
46.5350,61
46.5722,88
46.6093,65
46.6465,77
46.6836,65
46.7208,70
46.7579,73
46.7951,62
46.8323,51
46.8694,68
46.9066,55
46.9437,78
46.9809,63
47.0180,65
47.0552,56
47.0923,69
47.1295,61
47.1666,63
47.2038,69
47.2409,61
47.2781,63
47.3152,66
47.3524,81
47.3895,76
47.4267,70
47.4638,84
47.5010,66
47.5381,53
47.5753,65
47.6124,69
47.6496,54
47.6867,63
47.7239,75
47.7610,75
47.7982,54
47.8353,62
47.8725,58
47.9096,56
47.9468,56
47.9839,54
48.0211,74
48.0582,68
48.0954,51
48.1325,61
48.1697,55
48.2068,60
48.2440,72
48.2811,67
48.3183,64
48.3555,64
48.3926,43
48.4298,67
48.4669,67
48.5041,46
48.5412,75
48.5784,70
48.6155,59
48.6527,54
48.6898,77
48.7270,59
48.7641,68
48.8013,52
48.8384,69
48.8756,75
48.9127,69
48.9499,123
48.9870,97
49.0242,77
49.0613,80
49.0985,93
49.1356,63
49.1728,92
49.2099,79
49.2471,64
49.2842,56
49.3214,60
49.3585,59
49.3957,73
49.4328,65
49.4700,62
49.5071,50
49.5443,62
49.5814,59
49.6186,65
49.6557,56
49.6929,56
49.7300,58
49.7672,54
49.8043,79
49.8415,66
49.8786,74
49.9158,68
49.9530,58
49.9901,69
50.0273,84
50.0644,55
50.1016,59
50.1387,58
50.1759,54
50.2130,71
50.2502,78
50.2873,62
50.3245,64
50.3616,76
50.3988,60
50.4359,52
50.4731,56
50.5102,61
50.5474,66
50.5845,53
50.6217,57
50.6588,65
50.6960,57
50.7331,60
50.7703,59
50.8074,73
50.8446,57
50.8817,66
50.9189,80
50.9560,43
50.9932,67
51.0303,61
51.0675,53
51.1046,66
51.1418,64
51.1789,65
51.2161,66
51.2532,66
51.2904,75
51.3275,60
51.3647,56
51.4018,70
51.4390,66
51.4762,61
51.5133,74
51.5505,71
51.5876,89
51.6248,62
51.6619,60
51.6991,59
51.7362,64
51.7734,68
51.8105,81
51.8477,64
51.8848,71
51.9220,58
51.9591,72
51.9963,76
52.0334,67
52.0706,82
52.1077,62
52.1449,74
52.1820,59
52.2192,72
52.2563,66
52.2935,55
52.3306,49
52.3678,53
52.4049,71
52.4421,66
52.4792,49
52.5164,51
52.5535,44
52.5907,57
52.6278,54
52.6650,66
52.7021,62
52.7393,52
52.7764,67
52.8136,64
52.8507,75
52.8879,61
52.9250,68
52.9622,57
52.9994,69
53.0365,70
53.0737,64
53.1108,54
53.1480,63
53.1851,77
53.2223,68
53.2594,56
53.2966,49
53.3337,67
53.3709,49
53.4080,53
53.4452,54
53.4823,46
53.5195,57
53.5566,47
53.5938,60
53.6309,52
53.6681,58
53.7052,60
53.7424,52
53.7795,61
53.8167,64
53.8538,51
53.8910,77
53.9281,66
53.9653,71
54.0024,72
54.0396,63
54.0767,74
54.1139,57
54.1510,70
54.1882,52
54.2253,63
54.2625,54
54.2996,67
54.3368,61
54.3739,69
54.4111,56
54.4482,45
54.4854,69
54.5225,69
54.5597,56
54.5969,64
54.6340,51
54.6712,62
54.7083,61
54.7455,64
54.7826,58
54.8198,46
54.8569,47
54.8941,49
54.9312,60
54.9684,55
55.0055,61
55.0427,53
55.0798,53
55.1170,65
55.1541,53
55.1913,58
55.2284,53
55.2656,57
55.3027,60
55.3399,58
55.3770,61
55.4142,49
55.4513,47
55.4885,58
55.5256,41
55.5628,48
55.5999,57
55.6371,56
55.6742,71
55.7114,59
55.7485,70
55.7857,67
55.8228,76
55.8600,41
55.8971,64
55.9343,65
55.9714,56
56.0086,56
56.0457,60
56.0829,58
56.1201,57
56.1572,56
56.1944,67
56.2315,65
56.2687,55
56.3058,65
56.3430,51
56.3801,57
56.4173,55
56.4544,83
56.4916,58
56.5287,57
56.5659,62
56.6030,47
56.6402,46
56.6773,73
56.7145,53
56.7516,63
56.7888,54
56.8259,62
56.8631,71
56.9002,58
56.9374,54
56.9745,46
57.0117,62
57.0488,62
57.0860,60
57.1231,57
57.1603,64
57.1974,61
57.2346,49
57.2717,54
57.3089,48
57.3460,58
57.3832,57
57.4203,66
57.4575,47
57.4946,55
57.5318,46
57.5689,55
57.6061,55
57.6433,48
57.6804,55
57.7176,79
57.7547,58
57.7919,64
57.8290,53
57.8662,57
57.9033,62
57.9405,47
57.9776,49
58.0148,65
58.0519,54
58.0891,54
58.1262,62
58.1634,67
58.2005,42
58.2377,66
58.2748,61
58.3120,55
58.3491,49
58.3863,74
58.4234,44
58.4606,54
58.4977,59
58.5349,58
58.5720,63
58.6092,57
58.6463,54
58.6835,60
58.7206,57
58.7578,48
58.7949,51
58.8321,53
58.8692,55
58.9064,51
58.9435,65
58.9807,56
59.0178,49
59.0550,59
59.0921,61
59.1293,45
59.1664,59
59.2036,55
59.2408,67
59.2779,51
59.3151,49
59.3522,71
59.3894,60
59.4265,55
59.4637,50
59.5008,56
59.5380,68
59.5751,62
59.6123,49
59.6494,42
59.6866,45
59.7237,57
59.7609,60
59.7980,54
59.8352,49
59.8723,57
59.9095,40
59.9466,39
59.9838,62
60.0024,55