File: notebooks/data/xrd_data/ML_20220718_44_SJD_4_LaB6-1min.csv
;,2THETA,
5.0000,89
5.0372,80
5.0743,97
5.1115,109
5.1486,95
5.1858,98
5.2229,103
5.2601,119
5.2972,92
5.3344,90
5.3715,98
5.4087,86
5.4458,83
5.4830,75
5.5201,74
5.5573,94
5.5944,69
5.6316,91
5.6687,77
5.7059,88
5.7430,76
5.7802,73
5.8173,72
5.8545,74
5.8916,63
5.9288,87
5.9659,60
6.0031,62
6.0402,67
6.0774,69
6.1145,78
6.1517,64
6.1888,59
6.2260,69
6.2631,63
6.3003,60
6.3374,72
6.3746,70
6.4117,62
6.4489,55
6.4860,63
6.5232,64
6.5604,80
6.5975,73
6.6347,53
6.6718,61
6.7090,69
6.7461,61
6.7833,61
6.8204,63
6.8576,59
6.8947,57
6.9319,78
6.9690,47
7.0062,66
7.0433,50
7.0805,53
7.1176,60
7.1548,59
7.1919,52
7.2291,57
7.2662,55
7.3034,70
7.3405,56
7.3777,67
7.4148,54
7.4520,56
7.4891,49
7.5263,66
7.5634,51
7.6006,63
7.6377,62
7.6749,82
7.7120,70
7.7492,63
7.7863,82
7.8235,70
7.8606,67
7.8978,71
7.9349,60
7.9721,69
8.0092,76
8.0464,73
8.0835,57
8.1207,57
8.1579,80
8.1950,74
8.2322,70
8.2693,76
8.3065,68
8.3436,63
8.3808,62
8.4179,69
8.4551,82
8.4922,66
8.5294,44
8.5665,80
8.6037,73
8.6408,71
8.6780,68
8.7151,70
8.7523,69
8.7894,83
8.8266,81
8.8637,86
8.9009,75
8.9380,76
8.9752,80
9.0123,76
9.0495,71
9.0866,77
9.1238,78
9.1609,66
9.1981,85
9.2352,70
9.2724,79
9.3095,91
9.3467,83
9.3838,87
9.4210,93
9.4581,74
9.4953,85
9.5324,74
9.5696,89
9.6067,76
9.6439,88
9.6811,83
9.7182,89
9.7554,78
9.7925,71
9.8297,88
9.8668,66
9.9040,89
9.9411,90
9.9783,92
10.0154,87
10.0526,83
10.0897,102
10.1269,76
10.1640,86
10.2012,92
10.2383,78
10.2755,72
10.3126,82
10.3498,102
10.3869,97
10.4241,88
10.4612,88
10.4984,102
10.5355,86
10.5727,87
10.6098,89
10.6470,110
10.6841,87
10.7213,89
10.7584,73
10.7956,75
10.8327,75
10.8699,76
10.9070,73
10.9442,90
10.9813,86
11.0185,94
11.0556,82
11.0928,75
11.1299,77
11.1671,96
11.2043,81
11.2414,85
11.2786,70
11.3157,114
11.3529,76
11.3900,98
11.4272,93
11.4643,77
11.5015,88
11.5386,85
11.5758,85
11.6129,70
11.6501,85
11.6872,82
11.7244,85
11.7615,82
11.7987,97
11.8358,96
11.8730,80
11.9101,89
11.9473,76
11.9844,90
12.0216,85
12.0587,71
12.0959,87
12.1330,81
12.1702,70
12.2073,91
12.2445,90
12.2816,107
12.3188,76
12.3559,84
12.3931,77
12.4302,87
12.4674,78
12.5045,77
12.5417,84
12.5788,83
12.6160,66
12.6531,78
12.6903,87
12.7274,92
12.7646,85
12.8018,71
12.8389,46
12.8761,89
12.9132,111
12.9504,73
12.9875,80
13.0247,90
13.0618,77
13.0990,87
13.1361,75
13.1733,69
13.2104,86
13.2476,65
13.2847,68
13.3219,68
13.3590,75
13.3962,75
13.4333,77
13.4705,81
13.5076,72
13.5448,78
13.5819,70
13.6191,67
13.6562,72
13.6934,67
13.7305,73
13.7677,72
13.8048,81
13.8420,67
13.8791,74
13.9163,74
13.9534,63
13.9906,63
14.0277,68
14.0649,77
14.1020,66
14.1392,70
14.1763,59
14.2135,51
14.2506,57
14.2878,63
14.3250,68
14.3621,67
14.3993,65
14.4364,66
14.4736,55
14.5107,73
14.5479,57
14.5850,65
14.6222,54
14.6593,64
14.6965,52
14.7336,56
14.7708,55
14.8079,58
14.8451,67
14.8822,65
14.9194,55
14.9565,62
14.9937,45
15.0308,57
15.0680,71
15.1051,64
15.1423,67
15.1794,68
15.2166,71
15.2537,56
15.2909,56
15.3280,64
15.3652,55
15.4023,61
15.4395,55
15.4766,63
15.5138,58
15.5509,56
15.5881,65
15.6252,64
15.6624,57
15.6995,61
15.7367,55
15.7738,49
15.8110,53
15.8482,58
15.8853,56
15.9225,74
15.9596,66
15.9968,60
16.0339,74
16.0711,64
16.1082,61
16.1454,60
16.1825,52
16.2197,72
16.2568,41
16.2940,49
16.3311,47
16.3683,56
16.4054,63
16.4426,48
16.4797,61
16.5169,69
16.5540,55
16.5912,43
16.6283,72
16.6655,65
16.7026,53
16.7398,61
16.7769,58
16.8141,54
16.8512,70
16.8884,49
16.9255,53
16.9627,62
16.9998,60
17.0370,66
17.0741,57
17.1113,48
17.1484,55
17.1856,53
17.2227,62
17.2599,71
17.2970,62
17.3342,50
17.3713,68
17.4085,63
17.4457,69
17.4828,64
17.5200,52
17.5571,57
17.5943,56
17.6314,57
17.6686,56
17.7057,64
17.7429,69
17.7800,54
17.8172,68
17.8543,67
17.8915,67
17.9286,69
17.9658,65
18.0029,61
18.0401,69
18.0772,58
18.1144,69
18.1515,63
18.1887,54
18.2258,52
18.2630,44
18.3001,66
18.3373,57
18.3744,61
18.4116,71
18.4487,58
18.4859,60
18.5230,52
18.5602,60
18.5973,54
18.6345,64
18.6716,54
18.7088,63
18.7459,76
18.7831,51
18.8202,52
18.8574,73
18.8945,70
18.9317,74
18.9689,58
19.0060,51
19.0432,67
19.0803,51
19.1175,66
19.1546,49
19.1918,41
19.2289,59
19.2661,66
19.3032,57
19.3404,57
19.3775,62
19.4147,57
19.4518,60
19.4890,80
19.5261,49
19.5633,65
19.6004,59
19.6376,54
19.6747,56
19.7119,63
19.7490,59
19.7862,60
19.8233,76
19.8605,65
19.8976,71
19.9348,69
19.9719,66
20.0091,69
20.0462,63
20.0834,64
20.1205,90
20.1577,66
20.1948,58
20.2320,60
20.2691,61
20.3063,63
20.3434,64
20.3806,59
20.4177,64
20.4549,65
20.4921,59
20.5292,61
20.5664,70
20.6035,72
20.6407,67
20.6778,68
20.7150,62
20.7521,87
20.7893,63
20.8264,75
20.8636,70
20.9007,59
20.9379,72
20.9750,80
21.0122,71
21.0493,82
21.0865,84
21.1236,66
21.1608,77
21.1979,106
21.2351,141
21.2722,107
21.3094,114
21.3465,177
21.3837,149
21.4208,127
21.4580,77
21.4951,72
21.5323,65
21.5694,70
21.6066,85
21.6437,70
21.6809,71
21.7180,71
21.7552,75
21.7923,82
21.8295,72
21.8666,72
21.9038,71
21.9409,70
21.9781,63
22.0152,77
22.0524,70
22.0896,56
22.1267,65
22.1639,74
22.2010,72
22.2382,61
22.2753,58
22.3125,77
22.3496,66
22.3868,79
22.4239,73
22.4611,68
22.4982,65
22.5354,86
22.5725,84
22.6097,81
22.6468,70
22.6840,82
22.7211,65
22.7583,70
22.7954,81
22.8326,64
22.8697,73
22.9069,57
22.9440,67
22.9812,78
23.0183,67
23.0555,66
23.0926,64
23.1298,73
23.1669,67
23.2041,72
23.2412,71
23.2784,70
23.3155,73
23.3527,72
23.3898,73
23.4270,89
23.4641,71
23.5013,78
23.5384,90
23.5756,54
23.6128,61
23.6499,56
23.6871,86
23.7242,59
23.7614,64
23.7985,68
23.8357,78
23.8728,74
23.9100,58
23.9471,72
23.9843,75
24.0214,61
24.0586,71
24.0957,81
24.1329,72
24.1700,82
24.2072,77
24.2443,77
24.2815,78
24.3186,84
24.3558,80
24.3929,78
24.4301,84
24.4672,86
24.5044,82
24.5415,73
24.5787,80
24.6158,86
24.6530,61
24.6901,75
24.7273,65
24.7644,83
24.8016,87
24.8387,75
24.8759,64
24.9130,76
24.9502,80
24.9873,63
25.0245,64
25.0616,71
25.0988,83
25.1360,89
25.1731,81
25.2103,89
25.2474,85
25.2846,83
25.3217,76
25.3589,67
25.3960,66
25.4332,67
25.4703,59
25.5075,68
25.5446,71
25.5818,60
25.6189,72
25.6561,71
25.6932,76
25.7304,69
25.7675,63
25.8047,77
25.8418,48
25.8790,80
25.9161,73
25.9533,71
25.9904,85
26.0276,74
26.0647,77
26.1019,88
26.1390,73
26.1762,62
26.2133,79
26.2505,54
26.2876,77
26.3248,66
26.3619,77
26.3991,90
26.4362,65
26.4734,69
26.5105,58
26.5477,66
26.5848,63
26.6220,67
26.6591,68
26.6963,63
26.7335,64
26.7706,71
26.8078,64
26.8449,73
26.8821,72
26.9192,70
26.9564,85
26.9935,69
27.0307,74
27.0678,69
27.1050,72
27.1421,72
27.1793,87
27.2164,94
27.2536,84
27.2907,74
27.3279,62
27.3650,79
27.4022,62
27.4393,62
27.4765,72
27.5136,66
27.5508,67
27.5879,61
27.6251,66
27.6622,69
27.6994,56
27.7365,58
27.7737,60
27.8108,61
27.8480,67
27.8851,74
27.9223,66
27.9594,70
27.9966,59
28.0337,70
28.0709,66
28.1080,61
28.1452,51
28.1823,78
28.2195,71
28.2567,59
28.2938,68
28.3310,63
28.3681,63
28.4053,75
28.4424,67
28.4796,66
28.5167,58
28.5539,67
28.5910,68
28.6282,55
28.6653,53
28.7025,49
28.7396,73
28.7768,49
28.8139,60
28.8511,64
28.8882,74
28.9254,62
28.9625,54
28.9997,60
29.0368,55
29.0740,76
29.1111,69
29.1483,49
29.1854,53
29.2226,73
29.2597,61
29.2969,53
29.3340,62
29.3712,61
29.4083,56
29.4455,51
29.4826,57
29.5198,45
29.5569,50
29.5941,53
29.6312,70
29.6684,60
29.7055,64
29.7427,62
29.7799,66
29.8170,52
29.8542,61
29.8913,56
29.9285,51
29.9656,56
30.0028,58
30.0399,65
30.0771,70
30.1142,70
30.1514,49
30.1885,62
30.2257,61
30.2628,55
30.3000,71
30.3371,62
30.3743,115
30.4114,93
30.4486,92
30.4857,85
30.5229,59
30.5600,66
30.5972,56
30.6343,58
30.6715,63
30.7086,60
30.7458,54
30.7829,58
30.8201,52
30.8572,40
30.8944,44
30.9315,47
30.9687,51
31.0058,64
31.0430,53
31.0801,50
31.1173,47
31.1544,51
31.1916,60
31.2287,60
31.2659,51
31.3030,52
31.3402,42
31.3774,50
31.4145,49
31.4517,69
31.4888,49
31.5260,46
31.5631,55
31.6003,38
31.6374,44
31.6746,40
31.7117,57
31.7489,50
31.7860,48
31.8232,47
31.8603,36
31.8975,49
31.9346,56
31.9718,41
32.0089,55
32.0461,47
32.0832,52
32.1204,48
32.1575,46
32.1947,52
32.2318,46
32.2690,44
32.3061,45
32.3433,43
32.3804,42
32.4176,52
32.4547,54
32.4919,45
32.5290,53
32.5662,59
32.6033,53
32.6405,51
32.6776,45
32.7148,64
32.7519,39
32.7891,49
32.8262,41
32.8634,46
32.9006,48
32.9377,53
32.9749,52
33.0120,59
33.0492,48
33.0863,42
33.1235,36
33.1606,44
33.1978,54
33.2349,40
33.2721,38
33.3092,51
33.3464,47
33.3835,47
33.4207,41
33.4578,45
33.4950,50
33.5321,46
33.5693,32
33.6064,46
33.6436,31
33.6807,52
33.7179,46
33.7550,41
33.7922,36
33.8293,31
33.8665,40
33.9036,46
33.9408,35
33.9779,51
34.0151,41
34.0522,43
34.0894,41
34.1265,43
34.1637,41
34.2008,36
34.2380,40
34.2751,53
34.3123,41
34.3494,45
34.3866,41
34.4238,41
34.4609,41
34.4981,58
34.5352,40
34.5724,49
34.6095,36
34.6467,43
34.6838,58
34.7210,47
34.7581,59
34.7953,61
34.8324,56
34.8696,58
34.9067,43
34.9439,39
34.9810,54
35.0182,44
35.0553,35
35.0925,38
35.1296,27
35.1668,39
35.2039,50
35.2411,33
35.2782,43
35.3154,35
35.3525,34
35.3897,30
35.4268,35
35.4640,25
35.5011,51
35.5383,46
35.5754,32
35.6126,35
35.6497,36
35.6869,32
35.7240,43
35.7612,52
35.7983,38
35.8355,38
35.8726,37
35.9098,32
35.9469,31
35.9841,35
36.0213,24
36.0584,37
36.0956,32
36.1327,50
36.1699,38
36.2070,42
36.2442,44
36.2813,26
36.3185,31
36.3556,30
36.3928,41
36.4299,33
36.4671,33
36.5042,37
36.5414,40
36.5785,29
36.6157,36
36.6528,26
36.6900,25
36.7271,31
36.7643,24
36.8014,41
36.8386,32
36.8757,37
36.9129,31
36.9500,34
36.9872,36
37.0243,29
37.0615,31
37.0986,33
37.1358,31
37.1729,38
37.2101,22
37.2472,43
37.2844,38
37.3215,31
37.3587,30
37.3958,37
37.4330,48
37.4701,41
37.5073,38
37.5445,44
37.5816,48
37.6188,39
37.6559,42
37.6931,34
37.7302,37
37.7674,33
37.8045,36
37.8417,29
37.8788,26
37.9160,29
37.9531,27
37.9903,35
38.0274,21
38.0646,31
38.1017,23
38.1389,37
38.1760,32
38.2132,31
38.2503,28
38.2875,32
38.3246,30
38.3618,31
38.3989,27
38.4361,31
38.4732,32
38.5104,22
38.5475,29
38.5847,35
38.6218,30
38.6590,27
38.6961,36
38.7333,26
38.7704,28
38.8076,25
38.8447,36
38.8819,36
38.9190,27
38.9562,26
38.9933,36
39.0305,36
39.0677,41
39.1048,26
39.1420,23
39.1791,22
39.2163,32
39.2534,29
39.2906,25
39.3277,40
39.3649,36
39.4020,38
39.4392,36
39.4763,26
39.5135,35
39.5506,27
39.5878,25
39.6249,28
39.6621,34
39.6992,24
39.7364,31
39.7735,25
39.8107,32
39.8478,28
39.8850,24
39.9221,31
39.9593,30
39.9964,32
40.0336,30
40.0707,20
40.1079,30
40.1450,28
40.1822,35
40.2193,17
40.2565,27
40.2936,24
40.3308,32
40.3679,27
40.4051,31
40.4422,26
40.4794,26
40.5165,18
40.5537,28
40.5908,29
40.6280,29
40.6652,19
40.7023,27
40.7395,31
40.7766,32
40.8138,37
40.8509,34
40.8881,24
40.9252,23
40.9624,32
40.9995,21
41.0367,33
41.0738,29
41.1110,28
41.1481,25
41.1853,26
41.2224,25
41.2596,34
41.2967,34
41.3339,28
41.3710,26
41.4082,28
41.4453,27
41.4825,25
41.5196,28
41.5568,39
41.5939,23
41.6311,24
41.6682,18
41.7054,27
41.7425,29
41.7797,34
41.8168,24
41.8540,32
41.8911,32
41.9283,26
41.9654,26
42.0026,25
42.0397,18
42.0769,21
42.1140,22
42.1512,27
42.1884,25
42.2255,30
42.2627,20
42.2998,28
42.3370,23
42.3741,28
42.4113,27
42.4484,26
42.4856,21
42.5227,21
42.5599,23
42.5970,26
42.6342,23
42.6713,19
42.7085,33
42.7456,26
42.7828,33
42.8199,25
42.8571,29
42.8942,17
42.9314,32
42.9685,37
43.0057,31
43.0428,22
43.0800,26
43.1171,28
43.1543,28
43.1914,29
43.2286,33
43.2657,31
43.3029,34
43.3400,32
43.3772,30
43.4143,22
43.4515,29
43.4886,33
43.5258,52
43.5629,26
43.6001,38
43.6372,38
43.6744,23
43.7116,26
43.7487,29
43.7859,26
43.8230,19
43.8602,34
43.8973,29
43.9345,25
43.9716,23
44.0088,13
44.0459,24
44.0831,26
44.1202,26
44.1574,18
44.1945,31
44.2317,31
44.2688,24
44.3060,26
44.3431,30
44.3803,25
44.4174,26
44.4546,25
44.4917,23
44.5289,32
44.5660,33
44.6032,29
44.6403,25
44.6775,37
44.7146,24
44.7518,22
44.7889,32
44.8261,24
44.8632,23
44.9004,28
44.9375,27
44.9747,25
45.0118,23
45.0490,13
45.0861,31
45.1233,30
45.1604,21
45.1976,28
45.2347,29
45.2719,29
45.3091,25
45.3462,24
45.3834,25
45.4205,27
45.4577,20
45.4948,25
45.5320,22
45.5691,22
45.6063,27
45.6434,23
45.6806,25
45.7177,23
45.7549,25
45.7920,38
45.8292,20
45.8663,26
45.9035,28
45.9406,26
45.9778,23
46.0149,20
46.0521,19
46.0892,21
46.1264,23
46.1635,23
46.2007,33
46.2378,21
46.2750,21
46.3121,29
46.3493,19
46.3864,21
46.4236,23
46.4607,19
46.4979,18
46.5350,22
46.5722,14
46.6093,25
46.6465,26
46.6836,20
46.7208,24
46.7579,19
46.7951,19
46.8323,19
46.8694,26
46.9066,31
46.9437,28
46.9809,28
47.0180,18
47.0552,26
47.0923,16
47.1295,22
47.1666,26
47.2038,23
47.2409,18
47.2781,27
47.3152,18
47.3524,18
47.3895,22
47.4267,26
47.4638,17
47.5010,16
47.5381,24
47.5753,23
47.6124,25
47.6496,27
47.6867,19
47.7239,25
47.7610,24
47.7982,26
47.8353,26
47.8725,23
47.9096,23
47.9468,32
47.9839,26
48.0211,27
48.0582,25
48.0954,20
48.1325,16
48.1697,33
48.2068,20
48.2440,21
48.2811,21
48.3183,22
48.3555,26
48.3926,32
48.4298,27
48.4669,26
48.5041,24
48.5412,19
48.5784,31
48.6155,28
48.6527,27
48.6898,24
48.7270,15
48.7641,18
48.8013,35
48.8384,26
48.8756,30
48.9127,21
48.9499,45
48.9870,39
49.0242,28
49.0613,36
49.0985,28
49.1356,35
49.1728,25
49.2099,31
49.2471,30
49.2842,20
49.3214,27
49.3585,19
49.3957,26
49.4328,27
49.4700,26
49.5071,21
49.5443,21
49.5814,25
49.6186,27
49.6557,20
49.6929,21
49.7300,25
49.7672,24
49.8043,21
49.8415,16
49.8786,22
49.9158,22
49.9530,14
49.9901,30
50.0273,22
50.0644,26
50.1016,26
50.1387,29
50.1759,17
50.2130,25
50.2502,21
50.2873,26
50.3245,23
50.3616,17
50.3988,18
50.4359,21
50.4731,21
50.5102,22
50.5474,25
50.5845,26
50.6217,30
50.6588,18
50.6960,23
50.7331,21
50.7703,17
50.8074,32
50.8446,19
50.8817,14
50.9189,18
50.9560,29
50.9932,19
51.0303,25
51.0675,22
51.1046,28
51.1418,31
51.1789,24
51.2161,13
51.2532,22
51.2904,22
51.3275,26
51.3647,19
51.4018,30
51.4390,27
51.4762,27
51.5133,24
51.5505,24
51.5876,17
51.6248,18
51.6619,16
51.6991,22
51.7362,24
51.7734,18
51.8105,22
51.8477,29
51.8848,24
51.9220,24
51.9591,27
51.9963,26
52.0334,21
52.0706,21
52.1077,29
52.1449,31
52.1820,25
52.2192,18
52.2563,22
52.2935,30
52.3306,22
52.3678,19
52.4049,17
52.4421,16
52.4792,32
52.5164,35
52.5535,17
52.5907,20
52.6278,12
52.6650,13
52.7021,18
52.7393,21
52.7764,28
52.8136,34
52.8507,18
52.8879,20
52.9250,23
52.9622,15
52.9994,24
53.0365,27
53.0737,26
53.1108,24
53.1480,19
53.1851,21
53.2223,20
53.2594,19
53.2966,14
53.3337,26
53.3709,22
53.4080,19
53.4452,23
53.4823,20
53.5195,24
53.5566,14
53.5938,12
53.6309,21
53.6681,26
53.7052,18
53.7424,23
53.7795,21
53.8167,20
53.8538,26
53.8910,28
53.9281,22
53.9653,21
54.0024,26
54.0396,30
54.0767,35
54.1139,13
54.1510,32
54.1882,26
54.2253,27
54.2625,18
54.2996,21
54.3368,31
54.3739,15
54.4111,19
54.4482,19
54.4854,29
54.5225,16
54.5597,16
54.5969,13
54.6340,25
54.6712,16
54.7083,23
54.7455,26
54.7826,27
54.8198,25
54.8569,22
54.8941,19
54.9312,23
54.9684,20
55.0055,15
55.0427,20
55.0798,14
55.1170,23
55.1541,12
55.1913,23
55.2284,25
55.2656,23
55.3027,34
55.3399,25
55.3770,20
55.4142,22
55.4513,16
55.4885,10
55.5256,12
55.5628,20
55.5999,23
55.6371,23
55.6742,16
55.7114,19
55.7485,23
55.7857,25
55.8228,25
55.8600,23
55.8971,15
55.9343,22
55.9714,19
56.0086,23
56.0457,35
56.0829,22
56.1201,29
56.1572,21
56.1944,14
56.2315,21
56.2687,29
56.3058,17
56.3430,23
56.3801,23
56.4173,21
56.4544,21
56.4916,20
56.5287,10
56.5659,24
56.6030,20
56.6402,20
56.6773,16
56.7145,16
56.7516,20
56.7888,20
56.8259,17
56.8631,16
56.9002,17
56.9374,16
56.9745,29
57.0117,20
57.0488,24
57.0860,18
57.1231,21
57.1603,18
57.1974,24
57.2346,23
57.2717,13
57.3089,21
57.3460,18
57.3832,20
57.4203,17
57.4575,12
57.4946,18
57.5318,15
57.5689,19
57.6061,19
57.6433,22
57.6804,24
57.7176,17
57.7547,30
57.7919,17
57.8290,23
57.8662,24
57.9033,27
57.9405,17
57.9776,31
58.0148,23
58.0519,17
58.0891,24
58.1262,16
58.1634,22
58.2005,18
58.2377,21
58.2748,18
58.3120,18
58.3491,20
58.3863,22
58.4234,13
58.4606,19
58.4977,17
58.5349,20
58.5720,20
58.6092,19
58.6463,26
58.6835,15
58.7206,18
58.7578,22
58.7949,23
58.8321,21
58.8692,31
58.9064,21
58.9435,23
58.9807,18
59.0178,20
59.0550,12
59.0921,18
59.1293,20
59.1664,21
59.2036,15
59.2408,15
59.2779,24
59.3151,17
59.3522,12
59.3894,20
59.4265,19
59.4637,22
59.5008,19
59.5380,23
59.5751,18
59.6123,21
59.6494,20
59.6866,33
59.7237,18
59.7609,24
59.7980,13
59.8352,19
59.8723,29
59.9095,23
59.9466,16
59.9838,15
60.0024,21