File: notebooks/data/xrd_data/ML_20220720_39_SJD_4_LaB6-1min.csv
;,2THETA,
5.0000,103
5.0372,76
5.0743,105
5.1115,107
5.1486,94
5.1858,79
5.2229,101
5.2601,94
5.2972,82
5.3344,98
5.3715,83
5.4087,98
5.4458,103
5.4830,87
5.5201,81
5.5573,80
5.5944,94
5.6316,67
5.6687,88
5.7059,82
5.7430,92
5.7802,81
5.8173,88
5.8545,80
5.8916,82
5.9288,65
5.9659,70
6.0031,84
6.0402,64
6.0774,66
6.1145,76
6.1517,66
6.1888,72
6.2260,78
6.2631,55
6.3003,68
6.3374,70
6.3746,78
6.4117,67
6.4489,60
6.4860,67
6.5232,73
6.5604,62
6.5975,60
6.6347,83
6.6718,49
6.7090,60
6.7461,74
6.7833,49
6.8204,47
6.8576,58
6.8947,62
6.9319,63
6.9690,63
7.0062,60
7.0433,67
7.0805,71
7.1176,48
7.1548,50
7.1919,54
7.2291,70
7.2662,53
7.3034,57
7.3405,61
7.3777,67
7.4148,59
7.4520,53
7.4891,64
7.5263,63
7.5634,55
7.6006,68
7.6377,56
7.6749,76
7.7120,86
7.7492,76
7.7863,75
7.8235,71
7.8606,64
7.8978,66
7.9349,65
7.9721,75
8.0092,74
8.0464,77
8.0835,81
8.1207,76
8.1579,69
8.1950,57
8.2322,63
8.2693,66
8.3065,62
8.3436,69
8.3808,81
8.4179,69
8.4551,73
8.4922,69
8.5294,73
8.5665,81
8.6037,77
8.6408,76
8.6780,60
8.7151,73
8.7523,79
8.7894,80
8.8266,87
8.8637,91
8.9009,61
8.9380,72
8.9752,97
9.0123,87
9.0495,83
9.0866,107
9.1238,94
9.1609,79
9.1981,72
9.2352,80
9.2724,71
9.3095,78
9.3467,94
9.3838,72
9.4210,86
9.4581,78
9.4953,70
9.5324,86
9.5696,76
9.6067,83
9.6439,72
9.6811,85
9.7182,72
9.7554,69
9.7925,77
9.8297,98
9.8668,74
9.9040,83
9.9411,79
9.9783,93
10.0154,62
10.0526,105
10.0897,93
10.1269,95
10.1640,84
10.2012,105
10.2383,83
10.2755,96
10.3126,95
10.3498,71
10.3869,84
10.4241,81
10.4612,99
10.4984,88
10.5355,92
10.5727,89
10.6098,102
10.6470,79
10.6841,93
10.7213,92
10.7584,96
10.7956,90
10.8327,87
10.8699,83
10.9070,100
10.9442,93
10.9813,90
11.0185,80
11.0556,62
11.0928,93
11.1299,88
11.1671,79
11.2043,101
11.2414,96
11.2786,87
11.3157,95
11.3529,99
11.3900,87
11.4272,76
11.4643,95
11.5015,89
11.5386,98
11.5758,94
11.6129,87
11.6501,91
11.6872,98
11.7244,60
11.7615,83
11.7987,85
11.8358,82
11.8730,88
11.9101,81
11.9473,71
11.9844,83
12.0216,84
12.0587,96
12.0959,107
12.1330,78
12.1702,99
12.2073,82
12.2445,87
12.2816,77
12.3188,58
12.3559,69
12.3931,77
12.4302,91
12.4674,84
12.5045,63
12.5417,82
12.5788,96
12.6160,71
12.6531,75
12.6903,73
12.7274,87
12.7646,97
12.8018,68
12.8389,79
12.8761,94
12.9132,76
12.9504,75
12.9875,73
13.0247,60
13.0618,70
13.0990,71
13.1361,82
13.1733,86
13.2104,73
13.2476,68
13.2847,79
13.3219,60
13.3590,67
13.3962,90
13.4333,80
13.4705,58
13.5076,64
13.5448,75
13.5819,66
13.6191,71
13.6562,68
13.6934,65
13.7305,88
13.7677,66
13.8048,75
13.8420,63
13.8791,68
13.9163,66
13.9534,70
13.9906,72
14.0277,56
14.0649,67
14.1020,69
14.1392,58
14.1763,80
14.2135,54
14.2506,65
14.2878,52
14.3250,59
14.3621,61
14.3993,67
14.4364,69
14.4736,82
14.5107,77
14.5479,53
14.5850,67
14.6222,57
14.6593,61
14.6965,65
14.7336,57
14.7708,61
14.8079,67
14.8451,47
14.8822,49
14.9194,64
14.9565,51
14.9937,66
15.0308,52
15.0680,56
15.1051,60
15.1423,62
15.1794,58
15.2166,61
15.2537,51
15.2909,66
15.3280,70
15.3652,67
15.4023,58
15.4395,57
15.4766,51
15.5138,69
15.5509,66
15.5881,68
15.6252,59
15.6624,69
15.6995,65
15.7367,75
15.7738,54
15.8110,66
15.8482,50
15.8853,48
15.9225,57
15.9596,49
15.9968,60
16.0339,61
16.0711,56
16.1082,70
16.1454,67
16.1825,53
16.2197,59
16.2568,65
16.2940,41
16.3311,76
16.3683,69
16.4054,64
16.4426,67
16.4797,64
16.5169,57
16.5540,63
16.5912,60
16.6283,69
16.6655,54
16.7026,64
16.7398,56
16.7769,63
16.8141,50
16.8512,60
16.8884,48
16.9255,44
16.9627,65
16.9998,62
17.0370,53
17.0741,60
17.1113,86
17.1484,49
17.1856,61
17.2227,58
17.2599,53
17.2970,48
17.3342,42
17.3713,55
17.4085,50
17.4457,54
17.4828,55
17.5200,52
17.5571,71
17.5943,50
17.6314,53
17.6686,46
17.7057,63
17.7429,72
17.7800,60
17.8172,40
17.8543,49
17.8915,64
17.9286,68
17.9658,45
18.0029,37
18.0401,58
18.0772,62
18.1144,67
18.1515,67
18.1887,58
18.2258,64
18.2630,61
18.3001,74
18.3373,61
18.3744,57
18.4116,53
18.4487,48
18.4859,71
18.5230,62
18.5602,64
18.5973,62
18.6345,54
18.6716,69
18.7088,65
18.7459,63
18.7831,73
18.8202,70
18.8574,68
18.8945,61
18.9317,66
18.9689,62
19.0060,75
19.0432,59
19.0803,70
19.1175,60
19.1546,63
19.1918,54
19.2289,58
19.2661,64
19.3032,60
19.3404,52
19.3775,64
19.4147,59
19.4518,59
19.4890,53
19.5261,77
19.5633,71
19.6004,56
19.6376,62
19.6747,71
19.7119,77
19.7490,56
19.7862,56
19.8233,67
19.8605,65
19.8976,63
19.9348,73
19.9719,59
20.0091,54
20.0462,57
20.0834,75
20.1205,72
20.1577,56
20.1948,74
20.2320,70
20.2691,68
20.3063,53
20.3434,60
20.3806,67
20.4177,72
20.4549,65
20.4921,67
20.5292,78
20.5664,66
20.6035,70
20.6407,68
20.6778,55
20.7150,61
20.7521,71
20.7893,52
20.8264,62
20.8636,65
20.9007,64
20.9379,84
20.9750,77
21.0122,70
21.0493,67
21.0865,74
21.1236,63
21.1608,89
21.1979,89
21.2351,116
21.2722,105
21.3094,132
21.3465,173
21.3837,152
21.4208,120
21.4580,75
21.4951,86
21.5323,70
21.5694,61
21.6066,66
21.6437,62
21.6809,66
21.7180,66
21.7552,72
21.7923,71
21.8295,67
21.8666,73
21.9038,82
21.9409,76
21.9781,68
22.0152,71
22.0524,80
22.0896,75
22.1267,84
22.1639,74
22.2010,74
22.2382,53
22.2753,77
22.3125,73
22.3496,70
22.3868,74
22.4239,70
22.4611,67
22.4982,64
22.5354,60
22.5725,82
22.6097,58
22.6468,61
22.6840,78
22.7211,66
22.7583,49
22.7954,73
22.8326,72
22.8697,85
22.9069,74
22.9440,92
22.9812,76
23.0183,79
23.0555,83
23.0926,71
23.1298,60
23.1669,79
23.2041,66
23.2412,72
23.2784,64
23.3155,90
23.3527,74
23.3898,69
23.4270,65
23.4641,92
23.5013,61
23.5384,60
23.5756,64
23.6128,71
23.6499,71
23.6871,75
23.7242,69
23.7614,83
23.7985,70
23.8357,64
23.8728,78
23.9100,57
23.9471,76
23.9843,75
24.0214,63
24.0586,86
24.0957,93
24.1329,102
24.1700,86
24.2072,77
24.2443,67
24.2815,80
24.3186,66
24.3558,69
24.3929,82
24.4301,70
24.4672,72
24.5044,83
24.5415,64
24.5787,73
24.6158,69
24.6530,79
24.6901,80
24.7273,79
24.7644,75
24.8016,53
24.8387,78
24.8759,85
24.9130,81
24.9502,58
24.9873,84
25.0245,63
25.0616,69
25.0988,77
25.1360,91
25.1731,71
25.2103,59
25.2474,67
25.2846,66
25.3217,80
25.3589,85
25.3960,65
25.4332,81
25.4703,75
25.5075,86
25.5446,65
25.5818,82
25.6189,67
25.6561,70
25.6932,59
25.7304,88
25.7675,79
25.8047,75
25.8418,72
25.8790,78
25.9161,72
25.9533,68
25.9904,69
26.0276,69
26.0647,50
26.1019,70
26.1390,77
26.1762,63
26.2133,82
26.2505,70
26.2876,56
26.3248,78
26.3619,65
26.3991,65
26.4362,60
26.4734,63
26.5105,70
26.5477,81
26.5848,76
26.6220,63
26.6591,64
26.6963,68
26.7335,77
26.7706,81
26.8078,65
26.8449,68
26.8821,71
26.9192,82
26.9564,66
26.9935,90
27.0307,77
27.0678,72
27.1050,69
27.1421,74
27.1793,85
27.2164,109
27.2536,86
27.2907,82
27.3279,63
27.3650,58
27.4022,68
27.4393,83
27.4765,56
27.5136,64
27.5508,68
27.5879,59
27.6251,70
27.6622,80
27.6994,79
27.7365,67
27.7737,67
27.8108,75
27.8480,58
27.8851,66
27.9223,55
27.9594,71
27.9966,65
28.0337,65
28.0709,58
28.1080,74
28.1452,71
28.1823,67
28.2195,61
28.2567,59
28.2938,57
28.3310,83
28.3681,59
28.4053,63
28.4424,69
28.4796,59
28.5167,62
28.5539,61
28.5910,57
28.6282,64
28.6653,51
28.7025,57
28.7396,78
28.7768,69
28.8139,66
28.8511,53
28.8882,65
28.9254,65
28.9625,73
28.9997,45
29.0368,57
29.0740,64
29.1111,58
29.1483,57
29.1854,56
29.2226,56
29.2597,43
29.2969,52
29.3340,64
29.3712,61
29.4083,63
29.4455,57
29.4826,55
29.5198,64
29.5569,65
29.5941,69
29.6312,58
29.6684,65
29.7055,68
29.7427,65
29.7799,63
29.8170,61
29.8542,53
29.8913,64
29.9285,60
29.9656,61
30.0028,69
30.0399,47
30.0771,65
30.1142,49
30.1514,45
30.1885,67
30.2257,51
30.2628,64
30.3000,53
30.3371,71
30.3743,118
30.4114,88
30.4486,88
30.4857,88
30.5229,71
30.5600,64
30.5972,70
30.6343,52
30.6715,60
30.7086,66
30.7458,54
30.7829,57
30.8201,52
30.8572,56
30.8944,52
30.9315,56
30.9687,51
31.0058,34
31.0430,57
31.0801,54
31.1173,53
31.1544,57
31.1916,58
31.2287,61
31.2659,47
31.3030,50
31.3402,45
31.3774,55
31.4145,48
31.4517,55
31.4888,52
31.5260,46
31.5631,43
31.6003,44
31.6374,48
31.6746,46
31.7117,41
31.7489,47
31.7860,49
31.8232,53
31.8603,39
31.8975,52
31.9346,67
31.9718,50
32.0089,44
32.0461,54
32.0832,56
32.1204,54
32.1575,55
32.1947,43
32.2318,61
32.2690,49
32.3061,51
32.3433,43
32.3804,56
32.4176,52
32.4547,59
32.4919,51
32.5290,50
32.5662,52
32.6033,43
32.6405,49
32.6776,52
32.7148,45
32.7519,33
32.7891,51
32.8262,49
32.8634,48
32.9006,56
32.9377,57
32.9749,53
33.0120,54
33.0492,47
33.0863,49
33.1235,44
33.1606,43
33.1978,42
33.2349,49
33.2721,49
33.3092,37
33.3464,39
33.3835,46
33.4207,47
33.4578,43
33.4950,41
33.5321,33
33.5693,42
33.6064,37
33.6436,36
33.6807,45
33.7179,30
33.7550,55
33.7922,50
33.8293,47
33.8665,44
33.9036,35
33.9408,45
33.9779,49
34.0151,47
34.0522,48
34.0894,55
34.1265,38
34.1637,37
34.2008,35
34.2380,52
34.2751,45
34.3123,33
34.3494,32
34.3866,51
34.4238,45
34.4609,52
34.4981,44
34.5352,43
34.5724,47
34.6095,43
34.6467,56
34.6838,35
34.7210,52
34.7581,51
34.7953,56
34.8324,54
34.8696,47
34.9067,46
34.9439,32
34.9810,41
35.0182,44
35.0553,35
35.0925,41
35.1296,32
35.1668,40
35.2039,29
35.2411,45
35.2782,46
35.3154,49
35.3525,35
35.3897,39
35.4268,44
35.4640,35
35.5011,40
35.5383,35
35.5754,28
35.6126,30
35.6497,54
35.6869,36
35.7240,30
35.7612,35
35.7983,25
35.8355,37
35.8726,34
35.9098,40
35.9469,40
35.9841,44
36.0213,31
36.0584,31
36.0956,36
36.1327,40
36.1699,37
36.2070,34
36.2442,44
36.2813,30
36.3185,47
36.3556,27
36.3928,40
36.4299,26
36.4671,24
36.5042,19
36.5414,30
36.5785,38
36.6157,37
36.6528,29
36.6900,25
36.7271,37
36.7643,35
36.8014,38
36.8386,38
36.8757,30
36.9129,38
36.9500,31
36.9872,30
37.0243,37
37.0615,34
37.0986,34
37.1358,33
37.1729,34
37.2101,30
37.2472,37
37.2844,33
37.3215,42
37.3587,42
37.3958,35
37.4330,44
37.4701,45
37.5073,36
37.5445,45
37.5816,50
37.6188,36
37.6559,33
37.6931,39
37.7302,38
37.7674,37
37.8045,28
37.8417,33
37.8788,31
37.9160,40
37.9531,25
37.9903,25
38.0274,30
38.0646,32
38.1017,25
38.1389,15
38.1760,29
38.2132,33
38.2503,33
38.2875,33
38.3246,23
38.3618,23
38.3989,35
38.4361,28
38.4732,29
38.5104,26
38.5475,34
38.5847,26
38.6218,31
38.6590,37
38.6961,31
38.7333,31
38.7704,29
38.8076,26
38.8447,41
38.8819,38
38.9190,38
38.9562,22
38.9933,29
39.0305,21
39.0677,25
39.1048,35
39.1420,29
39.1791,27
39.2163,21
39.2534,29
39.2906,36
39.3277,35
39.3649,33
39.4020,23
39.4392,31
39.4763,43
39.5135,19
39.5506,26
39.5878,28
39.6249,35
39.6621,21
39.6992,32
39.7364,23
39.7735,22
39.8107,37
39.8478,35
39.8850,25
39.9221,36
39.9593,28
39.9964,24
40.0336,30
40.0707,35
40.1079,22
40.1450,33
40.1822,35
40.2193,38
40.2565,24
40.2936,28
40.3308,34
40.3679,30
40.4051,23
40.4422,25
40.4794,23
40.5165,20
40.5537,29
40.5908,28
40.6280,24
40.6652,33
40.7023,27
40.7395,34
40.7766,24
40.8138,32
40.8509,36
40.8881,29
40.9252,27
40.9624,24
40.9995,27
41.0367,23
41.0738,25
41.1110,33
41.1481,42
41.1853,18
41.2224,21
41.2596,30
41.2967,22
41.3339,26
41.3710,29
41.4082,24
41.4453,26
41.4825,30
41.5196,32
41.5568,28
41.5939,32
41.6311,24
41.6682,25
41.7054,25
41.7425,26
41.7797,26
41.8168,23
41.8540,24
41.8911,30
41.9283,27
41.9654,36
42.0026,18
42.0397,21
42.0769,26
42.1140,29
42.1512,29
42.1884,29
42.2255,31
42.2627,33
42.2998,29
42.3370,25
42.3741,29
42.4113,26
42.4484,23
42.4856,25
42.5227,34
42.5599,29
42.5970,20
42.6342,17
42.6713,32
42.7085,29
42.7456,31
42.7828,24
42.8199,26
42.8571,35
42.8942,27
42.9314,28
42.9685,27
43.0057,35
43.0428,24
43.0800,28
43.1171,34
43.1543,36
43.1914,40
43.2286,30
43.2657,32
43.3029,22
43.3400,28
43.3772,23
43.4143,33
43.4515,33
43.4886,45
43.5258,39
43.5629,35
43.6001,44
43.6372,41
43.6744,27
43.7116,29
43.7487,32
43.7859,20
43.8230,28
43.8602,32
43.8973,27
43.9345,30
43.9716,25
44.0088,17
44.0459,23
44.0831,26
44.1202,30
44.1574,24
44.1945,28
44.2317,28
44.2688,29
44.3060,19
44.3431,28
44.3803,21
44.4174,22
44.4546,43
44.4917,20
44.5289,29
44.5660,27
44.6032,24
44.6403,25
44.6775,31
44.7146,23
44.7518,27
44.7889,21
44.8261,28
44.8632,27
44.9004,25
44.9375,26
44.9747,20
45.0118,22
45.0490,11
45.0861,37
45.1233,21
45.1604,19
45.1976,27
45.2347,26
45.2719,19
45.3091,27
45.3462,35
45.3834,26
45.4205,24
45.4577,27
45.4948,21
45.5320,19
45.5691,26
45.6063,34
45.6434,13
45.6806,25
45.7177,27
45.7549,25
45.7920,28
45.8292,27
45.8663,31
45.9035,25
45.9406,27
45.9778,27
46.0149,29
46.0521,21
46.0892,12
46.1264,20
46.1635,24
46.2007,23
46.2378,28
46.2750,31
46.3121,33
46.3493,27
46.3864,22
46.4236,23
46.4607,24
46.4979,26
46.5350,16
46.5722,19
46.6093,22
46.6465,21
46.6836,18
46.7208,25
46.7579,26
46.7951,23
46.8323,25
46.8694,30
46.9066,15
46.9437,20
46.9809,23
47.0180,37
47.0552,23
47.0923,26
47.1295,29
47.1666,19
47.2038,24
47.2409,24
47.2781,29
47.3152,22
47.3524,18
47.3895,26
47.4267,29
47.4638,34
47.5010,29
47.5381,25
47.5753,14
47.6124,21
47.6496,24
47.6867,20
47.7239,25
47.7610,27
47.7982,29
47.8353,22
47.8725,24
47.9096,21
47.9468,27
47.9839,26
48.0211,22
48.0582,27
48.0954,22
48.1325,23
48.1697,22
48.2068,11
48.2440,30
48.2811,27
48.3183,20
48.3555,31
48.3926,22
48.4298,25
48.4669,27
48.5041,29
48.5412,29
48.5784,25
48.6155,23
48.6527,23
48.6898,17
48.7270,23
48.7641,27
48.8013,28
48.8384,27
48.8756,33
48.9127,37
48.9499,41
48.9870,32
49.0242,28
49.0613,27
49.0985,42
49.1356,25
49.1728,22
49.2099,22
49.2471,21
49.2842,17
49.3214,23
49.3585,22
49.3957,28
49.4328,19
49.4700,24
49.5071,28
49.5443,35
49.5814,26
49.6186,26
49.6557,19
49.6929,14
49.7300,20
49.7672,21
49.8043,17
49.8415,22
49.8786,31
49.9158,31
49.9530,25
49.9901,18
50.0273,14
50.0644,20
50.1016,20
50.1387,27
50.1759,17
50.2130,22
50.2502,25
50.2873,21
50.3245,19
50.3616,24
50.3988,25
50.4359,32
50.4731,25
50.5102,18
50.5474,24
50.5845,24
50.6217,20
50.6588,16
50.6960,18
50.7331,20
50.7703,24
50.8074,29
50.8446,18
50.8817,27
50.9189,23
50.9560,26
50.9932,24
51.0303,15
51.0675,21
51.1046,22
51.1418,19
51.1789,26
51.2161,21
51.2532,29
51.2904,35
51.3275,23
51.3647,27
51.4018,21
51.4390,32
51.4762,17
51.5133,30
51.5505,17
51.5876,21
51.6248,23
51.6619,22
51.6991,27
51.7362,21
51.7734,25
51.8105,25
51.8477,31
51.8848,19
51.9220,14
51.9591,21
51.9963,27
52.0334,28
52.0706,24
52.1077,26
52.1449,26
52.1820,24
52.2192,25
52.2563,27
52.2935,24
52.3306,16
52.3678,28
52.4049,33
52.4421,21
52.4792,23
52.5164,23
52.5535,29
52.5907,19
52.6278,20
52.6650,18
52.7021,22
52.7393,29
52.7764,14
52.8136,29
52.8507,27
52.8879,11
52.9250,15
52.9622,21
52.9994,22
53.0365,34
53.0737,13
53.1108,24
53.1480,28
53.1851,26
53.2223,22
53.2594,17
53.2966,23
53.3337,20
53.3709,28
53.4080,11
53.4452,22
53.4823,23
53.5195,23
53.5566,18
53.5938,23
53.6309,25
53.6681,17
53.7052,19
53.7424,22
53.7795,20
53.8167,24
53.8538,19
53.8910,24
53.9281,20
53.9653,24
54.0024,28
54.0396,20
54.0767,22
54.1139,29
54.1510,30
54.1882,20
54.2253,17
54.2625,28
54.2996,28
54.3368,23
54.3739,24
54.4111,25
54.4482,22
54.4854,14
54.5225,18
54.5597,18
54.5969,16
54.6340,24
54.6712,13
54.7083,25
54.7455,28
54.7826,17
54.8198,24
54.8569,20
54.8941,13
54.9312,16
54.9684,19
55.0055,24
55.0427,30
55.0798,22
55.1170,16
55.1541,18
55.1913,17
55.2284,18
55.2656,19
55.3027,15
55.3399,20
55.3770,10
55.4142,22
55.4513,20
55.4885,15
55.5256,23
55.5628,17
55.5999,16
55.6371,22
55.6742,19
55.7114,22
55.7485,23
55.7857,24
55.8228,19
55.8600,25
55.8971,28
55.9343,20
55.9714,19
56.0086,19
56.0457,18
56.0829,23
56.1201,24
56.1572,24
56.1944,18
56.2315,22
56.2687,24
56.3058,24
56.3430,20
56.3801,22
56.4173,28
56.4544,25
56.4916,21
56.5287,23
56.5659,25
56.6030,23
56.6402,25
56.6773,19
56.7145,17
56.7516,16
56.7888,24
56.8259,26
56.8631,18
56.9002,26
56.9374,20
56.9745,22
57.0117,13
57.0488,22
57.0860,24
57.1231,20
57.1603,20
57.1974,22
57.2346,28
57.2717,16
57.3089,23
57.3460,20
57.3832,21
57.4203,19
57.4575,18
57.4946,28
57.5318,17
57.5689,20
57.6061,14
57.6433,24
57.6804,31
57.7176,20
57.7547,28
57.7919,26
57.8290,12
57.8662,24
57.9033,26
57.9405,20
57.9776,26
58.0148,21
58.0519,17
58.0891,27
58.1262,26
58.1634,16
58.2005,21
58.2377,6
58.2748,21
58.3120,25
58.3491,19
58.3863,24
58.4234,18
58.4606,24
58.4977,19
58.5349,12
58.5720,17
58.6092,17
58.6463,20
58.6835,10
58.7206,20
58.7578,23
58.7949,19
58.8321,19
58.8692,24
58.9064,21
58.9435,23
58.9807,17
59.0178,19
59.0550,15
59.0921,12
59.1293,20
59.1664,18
59.2036,17
59.2408,16
59.2779,15
59.3151,14
59.3522,15
59.3894,16
59.4265,19
59.4637,25
59.5008,20
59.5380,27
59.5751,22
59.6123,21
59.6494,21
59.6866,17
59.7237,22
59.7609,26
59.7980,15
59.8352,7
59.8723,21
59.9095,26
59.9466,14
59.9838,24
60.0024,21