File: notebooks/data/xrd_data/ML_20220718_56_SJD_4_LaB6-4min.csv
;,2THETA,
5.0000,278
5.0372,284
5.0743,269
5.1115,272
5.1486,235
5.1858,246
5.2229,240
5.2601,222
5.2972,209
5.3344,227
5.3715,234
5.4087,210
5.4458,242
5.4830,220
5.5201,195
5.5573,231
5.5944,222
5.6316,229
5.6687,186
5.7059,231
5.7430,217
5.7802,240
5.8173,187
5.8545,226
5.8916,205
5.9288,183
5.9659,201
6.0031,226
6.0402,199
6.0774,207
6.1145,209
6.1517,168
6.1888,192
6.2260,209
6.2631,160
6.3003,189
6.3374,176
6.3746,189
6.4117,179
6.4489,170
6.4860,169
6.5232,164
6.5604,170
6.5975,192
6.6347,158
6.6718,187
6.7090,175
6.7461,156
6.7833,172
6.8204,180
6.8576,163
6.8947,137
6.9319,174
6.9690,154
7.0062,170
7.0433,148
7.0805,148
7.1176,169
7.1548,170
7.1919,152
7.2291,130
7.2662,139
7.3034,156
7.3405,146
7.3777,157
7.4148,176
7.4520,159
7.4891,161
7.5263,164
7.5634,137
7.6006,176
7.6377,178
7.6749,179
7.7120,182
7.7492,185
7.7863,166
7.8235,197
7.8606,220
7.8978,180
7.9349,177
7.9721,165
8.0092,187
8.0464,188
8.0835,211
8.1207,191
8.1579,189
8.1950,177
8.2322,164
8.2693,186
8.3065,192
8.3436,228
8.3808,184
8.4179,203
8.4551,207
8.4922,197
8.5294,171
8.5665,181
8.6037,199
8.6408,190
8.6780,236
8.7151,210
8.7523,227
8.7894,223
8.8266,200
8.8637,213
8.9009,221
8.9380,182
8.9752,216
9.0123,214
9.0495,211
9.0866,196
9.1238,208
9.1609,228
9.1981,211
9.2352,223
9.2724,197
9.3095,234
9.3467,218
9.3838,216
9.4210,221
9.4581,201
9.4953,217
9.5324,224
9.5696,238
9.6067,227
9.6439,222
9.6811,238
9.7182,204
9.7554,231
9.7925,246
9.8297,244
9.8668,225
9.9040,240
9.9411,278
9.9783,225
10.0154,248
10.0526,231
10.0897,240
10.1269,246
10.1640,245
10.2012,230
10.2383,252
10.2755,237
10.3126,225
10.3498,260
10.3869,265
10.4241,250
10.4612,244
10.4984,235
10.5355,232
10.5727,253
10.6098,243
10.6470,244
10.6841,238
10.7213,229
10.7584,243
10.7956,254
10.8327,230
10.8699,222
10.9070,240
10.9442,245
10.9813,237
11.0185,235
11.0556,229
11.0928,234
11.1299,228
11.1671,223
11.2043,223
11.2414,224
11.2786,231
11.3157,239
11.3529,237
11.3900,252
11.4272,237
11.4643,235
11.5015,237
11.5386,249
11.5758,218
11.6129,223
11.6501,247
11.6872,236
11.7244,234
11.7615,247
11.7987,217
11.8358,255
11.8730,243
11.9101,222
11.9473,208
11.9844,224
12.0216,217
12.0587,234
12.0959,253
12.1330,201
12.1702,248
12.2073,229
12.2445,236
12.2816,208
12.3188,221
12.3559,213
12.3931,252
12.4302,228
12.4674,211
12.5045,219
12.5417,229
12.5788,211
12.6160,220
12.6531,211
12.6903,223
12.7274,224
12.7646,243
12.8018,203
12.8389,218
12.8761,207
12.9132,189
12.9504,214
12.9875,211
13.0247,231
13.0618,205
13.0990,192
13.1361,175
13.1733,211
13.2104,194
13.2476,199
13.2847,219
13.3219,225
13.3590,197
13.3962,198
13.4333,178
13.4705,204
13.5076,220
13.5448,183
13.5819,194
13.6191,198
13.6562,202
13.6934,209
13.7305,190
13.7677,199
13.8048,198
13.8420,194
13.8791,193
13.9163,192
13.9534,200
13.9906,207
14.0277,175
14.0649,185
14.1020,195
14.1392,172
14.1763,194
14.2135,193
14.2506,165
14.2878,171
14.3250,186
14.3621,202
14.3993,152
14.4364,171
14.4736,186
14.5107,176
14.5479,187
14.5850,160
14.6222,167
14.6593,161
14.6965,188
14.7336,170
14.7708,167
14.8079,192
14.8451,147
14.8822,173
14.9194,168
14.9565,182
14.9937,156
15.0308,191
15.0680,193
15.1051,168
15.1423,178
15.1794,146
15.2166,185
15.2537,152
15.2909,160
15.3280,165
15.3652,149
15.4023,159
15.4395,171
15.4766,173
15.5138,175
15.5509,154
15.5881,195
15.6252,165
15.6624,172
15.6995,164
15.7367,178
15.7738,171
15.8110,144
15.8482,158
15.8853,152
15.9225,162
15.9596,167
15.9968,173
16.0339,146
16.0711,166
16.1082,134
16.1454,144
16.1825,162
16.2197,174
16.2568,147
16.2940,168
16.3311,171
16.3683,158
16.4054,170
16.4426,167
16.4797,158
16.5169,150
16.5540,170
16.5912,173
16.6283,160
16.6655,157
16.7026,173
16.7398,161
16.7769,154
16.8141,174
16.8512,176
16.8884,167
16.9255,153
16.9627,165
16.9998,153
17.0370,163
17.0741,171
17.1113,177
17.1484,151
17.1856,165
17.2227,143
17.2599,171
17.2970,189
17.3342,176
17.3713,152
17.4085,163
17.4457,173
17.4828,142
17.5200,154
17.5571,163
17.5943,155
17.6314,166
17.6686,153
17.7057,165
17.7429,186
17.7800,156
17.8172,165
17.8543,160
17.8915,154
17.9286,150
17.9658,171
18.0029,167
18.0401,169
18.0772,150
18.1144,171
18.1515,168
18.1887,160
18.2258,180
18.2630,155
18.3001,167
18.3373,170
18.3744,163
18.4116,152
18.4487,159
18.4859,169
18.5230,169
18.5602,170
18.5973,173
18.6345,154
18.6716,167
18.7088,185
18.7459,175
18.7831,167
18.8202,168
18.8574,168
18.8945,163
18.9317,153
18.9689,176
19.0060,173
19.0432,173
19.0803,176
19.1175,166
19.1546,172
19.1918,179
19.2289,172
19.2661,149
19.3032,155
19.3404,184
19.3775,168
19.4147,178
19.4518,159
19.4890,158
19.5261,168
19.5633,167
19.6004,182
19.6376,154
19.6747,202
19.7119,172
19.7490,162
19.7862,187
19.8233,169
19.8605,181
19.8976,188
19.9348,188
19.9719,185
20.0091,207
20.0462,165
20.0834,173
20.1205,180
20.1577,183
20.1948,190
20.2320,191
20.2691,187
20.3063,184
20.3434,181
20.3806,207
20.4177,188
20.4549,170
20.4921,177
20.5292,186
20.5664,151
20.6035,193
20.6407,167
20.6778,202
20.7150,187
20.7521,184
20.7893,191
20.8264,181
20.8636,186
20.9007,180
20.9379,207
20.9750,197
21.0122,211
21.0493,204
21.0865,211
21.1236,241
21.1608,228
21.1979,277
21.2351,327
21.2722,270
21.3094,321
21.3465,486
21.3837,444
21.4208,338
21.4580,226
21.4951,214
21.5323,214
21.5694,184
21.6066,192
21.6437,197
21.6809,205
21.7180,165
21.7552,162
21.7923,181
21.8295,208
21.8666,207
21.9038,182
21.9409,206
21.9781,173
22.0152,233
22.0524,212
22.0896,198
22.1267,200
22.1639,206
22.2010,172
22.2382,187
22.2753,190
22.3125,201
22.3496,211
22.3868,211
22.4239,188
22.4611,199
22.4982,199
22.5354,199
22.5725,212
22.6097,187
22.6468,201
22.6840,198
22.7211,183
22.7583,207
22.7954,206
22.8326,194
22.8697,205
22.9069,189
22.9440,193
22.9812,216
23.0183,188
23.0555,196
23.0926,197
23.1298,222
23.1669,216
23.2041,223
23.2412,204
23.2784,193
23.3155,184
23.3527,205
23.3898,214
23.4270,186
23.4641,204
23.5013,205
23.5384,211
23.5756,208
23.6128,213
23.6499,211
23.6871,202
23.7242,232
23.7614,181
23.7985,185
23.8357,193
23.8728,221
23.9100,203
23.9471,205
23.9843,203
24.0214,189
24.0586,218
24.0957,201
24.1329,200
24.1700,233
24.2072,214
24.2443,197
24.2815,214
24.3186,216
24.3558,205
24.3929,221
24.4301,192
24.4672,206
24.5044,183
24.5415,208
24.5787,191
24.6158,215
24.6530,193
24.6901,194
24.7273,185
24.7644,196
24.8016,206
24.8387,182
24.8759,228
24.9130,193
24.9502,199
24.9873,204
25.0245,192
25.0616,236
25.0988,143
25.1360,184
25.1731,228
25.2103,192
25.2474,207
25.2846,190
25.3217,207
25.3589,189
25.3960,189
25.4332,198
25.4703,175
25.5075,182
25.5446,208
25.5818,192
25.6189,194
25.6561,209
25.6932,197
25.7304,177
25.7675,191
25.8047,188
25.8418,186
25.8790,212
25.9161,197
25.9533,209
25.9904,203
26.0276,199
26.0647,189
26.1019,177
26.1390,228
26.1762,212
26.2133,170
26.2505,193
26.2876,202
26.3248,177
26.3619,192
26.3991,186
26.4362,160
26.4734,188
26.5105,196
26.5477,216
26.5848,187
26.6220,158
26.6591,177
26.6963,205
26.7335,175
26.7706,200
26.8078,179
26.8449,177
26.8821,180
26.9192,179
26.9564,180
26.9935,170
27.0307,176
27.0678,184
27.1050,206
27.1421,207
27.1793,221
27.2164,236
27.2536,214
27.2907,189
27.3279,187
27.3650,176
27.4022,195
27.4393,162
27.4765,188
27.5136,188
27.5508,187
27.5879,194
27.6251,184
27.6622,181
27.6994,167
27.7365,183
27.7737,171
27.8108,164
27.8480,173
27.8851,190
27.9223,149
27.9594,190
27.9966,196
28.0337,165
28.0709,174
28.1080,155
28.1452,167
28.1823,182
28.2195,184
28.2567,180
28.2938,193
28.3310,158
28.3681,168
28.4053,160
28.4424,175
28.4796,137
28.5167,187
28.5539,197
28.5910,154
28.6282,157
28.6653,147
28.7025,167
28.7396,164
28.7768,174
28.8139,163
28.8511,157
28.8882,180
28.9254,170
28.9625,181
28.9997,141
29.0368,185
29.0740,156
29.1111,152
29.1483,165
29.1854,171
29.2226,167
29.2597,149
29.2969,157
29.3340,165
29.3712,166
29.4083,141
29.4455,164
29.4826,161
29.5198,147
29.5569,159
29.5941,130
29.6312,150
29.6684,178
29.7055,142
29.7427,143
29.7799,148
29.8170,157
29.8542,157
29.8913,139
29.9285,132
29.9656,171
30.0028,154
30.0399,179
30.0771,173
30.1142,164
30.1514,140
30.1885,173
30.2257,159
30.2628,173
30.3000,181
30.3371,198
30.3743,310
30.4114,248
30.4486,254
30.4857,245
30.5229,155
30.5600,175
30.5972,128
30.6343,145
30.6715,147
30.7086,134
30.7458,149
30.7829,153
30.8201,146
30.8572,141
30.8944,163
30.9315,137
30.9687,152
31.0058,132
31.0430,152
31.0801,118
31.1173,134
31.1544,149
31.1916,151
31.2287,141
31.2659,144
31.3030,138
31.3402,124
31.3774,164
31.4145,131
31.4517,133
31.4888,142
31.5260,124
31.5631,152
31.6003,138
31.6374,126
31.6746,157
31.7117,130
31.7489,139
31.7860,148
31.8232,133
31.8603,126
31.8975,142
31.9346,110
31.9718,142
32.0089,151
32.0461,122
32.0832,128
32.1204,127
32.1575,120
32.1947,145
32.2318,148
32.2690,131
32.3061,126
32.3433,122
32.3804,130
32.4176,132
32.4547,129
32.4919,141
32.5290,154
32.5662,160
32.6033,127
32.6405,136
32.6776,133
32.7148,145
32.7519,116
32.7891,131
32.8262,161
32.8634,142
32.9006,117
32.9377,115
32.9749,114
33.0120,118
33.0492,129
33.0863,113
33.1235,127
33.1606,113
33.1978,134
33.2349,111
33.2721,116
33.3092,121
33.3464,125
33.3835,116
33.4207,125
33.4578,122
33.4950,126
33.5321,129
33.5693,128
33.6064,90
33.6436,106
33.6807,113
33.7179,108
33.7550,108
33.7922,108
33.8293,112
33.8665,92
33.9036,111
33.9408,103
33.9779,93
34.0151,97
34.0522,119
34.0894,127
34.1265,135
34.1637,111
34.2008,109
34.2380,129
34.2751,117
34.3123,109
34.3494,118
34.3866,132
34.4238,104
34.4609,118
34.4981,112
34.5352,126
34.5724,107
34.6095,112
34.6467,117
34.6838,133
34.7210,142
34.7581,150
34.7953,148
34.8324,135
34.8696,150
34.9067,104
34.9439,111
34.9810,100
35.0182,116
35.0553,107
35.0925,117
35.1296,101
35.1668,104
35.2039,115
35.2411,97
35.2782,91
35.3154,109
35.3525,112
35.3897,108
35.4268,95
35.4640,96
35.5011,102
35.5383,94
35.5754,102
35.6126,108
35.6497,100
35.6869,97
35.7240,86
35.7612,102
35.7983,110
35.8355,111
35.8726,99
35.9098,108
35.9469,100
35.9841,109
36.0213,112
36.0584,95
36.0956,90
36.1327,95
36.1699,98
36.2070,86
36.2442,98
36.2813,103
36.3185,111
36.3556,103
36.3928,90
36.4299,107
36.4671,94
36.5042,92
36.5414,78
36.5785,108
36.6157,97
36.6528,90
36.6900,98
36.7271,109
36.7643,104
36.8014,96
36.8386,91
36.8757,109
36.9129,102
36.9500,100
36.9872,96
37.0243,95
37.0615,80
37.0986,81
37.1358,83
37.1729,98
37.2101,99
37.2472,93
37.2844,76
37.3215,100
37.3587,91
37.3958,104
37.4330,156
37.4701,120
37.5073,105
37.5445,114
37.5816,106
37.6188,92
37.6559,109
37.6931,79
37.7302,102
37.7674,88
37.8045,86
37.8417,72
37.8788,79
37.9160,91
37.9531,86
37.9903,82
38.0274,83
38.0646,82
38.1017,85
38.1389,78
38.1760,94
38.2132,88
38.2503,76
38.2875,85
38.3246,95
38.3618,91
38.3989,89
38.4361,85
38.4732,70
38.5104,90
38.5475,103
38.5847,75
38.6218,79
38.6590,80
38.6961,82
38.7333,91
38.7704,78
38.8076,87
38.8447,76
38.8819,98
38.9190,90
38.9562,73
38.9933,80
39.0305,89
39.0677,73
39.1048,91
39.1420,87
39.1791,75
39.2163,78
39.2534,87
39.2906,79
39.3277,70
39.3649,78
39.4020,99
39.4392,65
39.4763,83
39.5135,85
39.5506,88
39.5878,66
39.6249,77
39.6621,62
39.6992,81
39.7364,68
39.7735,91
39.8107,71
39.8478,81
39.8850,85
39.9221,82
39.9593,70
39.9964,72
40.0336,88
40.0707,78
40.1079,72
40.1450,77
40.1822,58
40.2193,77
40.2565,75
40.2936,79
40.3308,101
40.3679,75
40.4051,93
40.4422,89
40.4794,89
40.5165,76
40.5537,71
40.5908,73
40.6280,81
40.6652,73
40.7023,77
40.7395,83
40.7766,70
40.8138,71
40.8509,77
40.8881,80
40.9252,77
40.9624,84
40.9995,70
41.0367,68
41.0738,60
41.1110,71
41.1481,63
41.1853,87
41.2224,81
41.2596,75
41.2967,68
41.3339,69
41.3710,73
41.4082,65
41.4453,76
41.4825,80
41.5196,72
41.5568,61
41.5939,58
41.6311,82
41.6682,75
41.7054,75
41.7425,74
41.7797,74
41.8168,79
41.8540,74
41.8911,71
41.9283,70
41.9654,72
42.0026,84
42.0397,69
42.0769,72
42.1140,64
42.1512,69
42.1884,76
42.2255,57
42.2627,82
42.2998,70
42.3370,77
42.3741,66
42.4113,84
42.4484,60
42.4856,72
42.5227,73
42.5599,65
42.5970,79
42.6342,69
42.6713,80
42.7085,75
42.7456,88
42.7828,74
42.8199,74
42.8571,60
42.8942,69
42.9314,77
42.9685,74
43.0057,65
43.0428,69
43.0800,67
43.1171,64
43.1543,72
43.1914,73
43.2286,99
43.2657,71
43.3029,85
43.3400,78
43.3772,70
43.4143,85
43.4515,84
43.4886,115
43.5258,128
43.5629,87
43.6001,92
43.6372,76
43.6744,79
43.7116,85
43.7487,67
43.7859,77
43.8230,78
43.8602,68
43.8973,74
43.9345,76
43.9716,80
44.0088,71
44.0459,66
44.0831,73
44.1202,81
44.1574,59
44.1945,64
44.2317,79
44.2688,76
44.3060,74
44.3431,84
44.3803,92
44.4174,81
44.4546,77
44.4917,67
44.5289,78
44.5660,82
44.6032,63
44.6403,69
44.6775,79
44.7146,71
44.7518,84
44.7889,75
44.8261,98
44.8632,89
44.9004,48
44.9375,67
44.9747,62
45.0118,89
45.0490,80
45.0861,65
45.1233,72
45.1604,68
45.1976,87
45.2347,74
45.2719,63
45.3091,73
45.3462,68
45.3834,59
45.4205,71
45.4577,66
45.4948,64
45.5320,75
45.5691,62
45.6063,64
45.6434,60
45.6806,69
45.7177,64
45.7549,56
45.7920,67
45.8292,65
45.8663,63
45.9035,67
45.9406,67
45.9778,67
46.0149,75
46.0521,65
46.0892,68
46.1264,67
46.1635,61
46.2007,56
46.2378,52
46.2750,76
46.3121,55
46.3493,58
46.3864,69
46.4236,65
46.4607,59
46.4979,76
46.5350,67
46.5722,54
46.6093,75
46.6465,63
46.6836,55
46.7208,61
46.7579,72
46.7951,73
46.8323,61
46.8694,64
46.9066,60
46.9437,72
46.9809,63
47.0180,74
47.0552,73
47.0923,68
47.1295,62
47.1666,81
47.2038,67
47.2409,58
47.2781,76
47.3152,67
47.3524,64
47.3895,52
47.4267,65
47.4638,74
47.5010,77
47.5381,69
47.5753,76
47.6124,72
47.6496,49
47.6867,60
47.7239,51
47.7610,65
47.7982,60
47.8353,51
47.8725,64
47.9096,67
47.9468,91
47.9839,37
48.0211,63
48.0582,49
48.0954,59
48.1325,55
48.1697,68
48.2068,64
48.2440,78
48.2811,73
48.3183,67
48.3555,54
48.3926,55
48.4298,67
48.4669,73
48.5041,62
48.5412,72
48.5784,60
48.6155,80
48.6527,59
48.6898,70
48.7270,49
48.7641,60
48.8013,70
48.8384,65
48.8756,69
48.9127,67
48.9499,102
48.9870,114
49.0242,78
49.0613,79
49.0985,75
49.1356,71
49.1728,53
49.2099,59
49.2471,66
49.2842,64
49.3214,76
49.3585,59
49.3957,63
49.4328,55
49.4700,57
49.5071,59
49.5443,72
49.5814,66
49.6186,62
49.6557,57
49.6929,48
49.7300,72
49.7672,73
49.8043,55
49.8415,45
49.8786,56
49.9158,72
49.9530,55
49.9901,66
50.0273,50
50.0644,67
50.1016,70
50.1387,85
50.1759,46
50.2130,59
50.2502,59
50.2873,63
50.3245,77
50.3616,69
50.3988,64
50.4359,53
50.4731,69
50.5102,68
50.5474,53
50.5845,58
50.6217,69
50.6588,66
50.6960,68
50.7331,62
50.7703,68
50.8074,74
50.8446,62
50.8817,61
50.9189,65
50.9560,67
50.9932,60
51.0303,65
51.0675,50
51.1046,56
51.1418,71
51.1789,42
51.2161,73
51.2532,60
51.2904,64
51.3275,65
51.3647,59
51.4018,56
51.4390,79
51.4762,77
51.5133,82
51.5505,74
51.5876,68
51.6248,54
51.6619,62
51.6991,72
51.7362,70
51.7734,66
51.8105,58
51.8477,70
51.8848,66
51.9220,52
51.9591,68
51.9963,50
52.0334,60
52.0706,68
52.1077,68
52.1449,56
52.1820,45
52.2192,67
52.2563,60
52.2935,55
52.3306,62
52.3678,46
52.4049,64
52.4421,60
52.4792,51
52.5164,57
52.5535,58
52.5907,45
52.6278,63
52.6650,65
52.7021,61
52.7393,57
52.7764,66
52.8136,59
52.8507,66
52.8879,51
52.9250,72
52.9622,74
52.9994,60
53.0365,50
53.0737,54
53.1108,52
53.1480,68
53.1851,57
53.2223,68
53.2594,61
53.2966,55
53.3337,56
53.3709,66
53.4080,55
53.4452,56
53.4823,53
53.5195,67
53.5566,69
53.5938,55
53.6309,51
53.6681,49
53.7052,51
53.7424,66
53.7795,50
53.8167,53
53.8538,64
53.8910,76
53.9281,65
53.9653,84
54.0024,77
54.0396,67
54.0767,64
54.1139,80
54.1510,73
54.1882,77
54.2253,50
54.2625,70
54.2996,43
54.3368,67
54.3739,52
54.4111,57
54.4482,52
54.4854,61
54.5225,60
54.5597,49
54.5969,65
54.6340,64
54.6712,69
54.7083,77
54.7455,43
54.7826,58
54.8198,50
54.8569,49
54.8941,60
54.9312,52
54.9684,51
55.0055,60
55.0427,57
55.0798,53
55.1170,55
55.1541,69
55.1913,59
55.2284,57
55.2656,58
55.3027,53
55.3399,59
55.3770,49
55.4142,66
55.4513,65
55.4885,77
55.5256,61
55.5628,55
55.5999,45
55.6371,63
55.6742,52
55.7114,71
55.7485,55
55.7857,50
55.8228,58
55.8600,44
55.8971,74
55.9343,45
55.9714,49
56.0086,51
56.0457,77
56.0829,67
56.1201,66
56.1572,50
56.1944,73
56.2315,55
56.2687,56
56.3058,62
56.3430,54
56.3801,51
56.4173,52
56.4544,52
56.4916,63
56.5287,51
56.5659,59
56.6030,59
56.6402,47
56.6773,60
56.7145,51
56.7516,48
56.7888,68
56.8259,57
56.8631,46
56.9002,69
56.9374,64
56.9745,47
57.0117,62
57.0488,45
57.0860,63
57.1231,62
57.1603,46
57.1974,62
57.2346,55
57.2717,62
57.3089,56
57.3460,50
57.3832,74
57.4203,40
57.4575,44
57.4946,57
57.5318,50
57.5689,52
57.6061,64
57.6433,68
57.6804,50
57.7176,47
57.7547,53
57.7919,71
57.8290,69
57.8662,71
57.9033,56
57.9405,59
57.9776,49
58.0148,58
58.0519,65
58.0891,57
58.1262,61
58.1634,67
58.2005,51
58.2377,51
58.2748,61
58.3120,51
58.3491,50
58.3863,54
58.4234,62
58.4606,62
58.4977,54
58.5349,57
58.5720,57
58.6092,56
58.6463,41
58.6835,48
58.7206,58
58.7578,60
58.7949,43
58.8321,58
58.8692,55
58.9064,55
58.9435,45
58.9807,47
59.0178,59
59.0550,66
59.0921,54
59.1293,65
59.1664,55
59.2036,46
59.2408,57
59.2779,43
59.3151,55
59.3522,44
59.3894,70
59.4265,62
59.4637,53
59.5008,48
59.5380,52
59.5751,61
59.6123,62
59.6494,58
59.6866,57
59.7237,42
59.7609,58
59.7980,52
59.8352,47
59.8723,56
59.9095,54
59.9466,46
59.9838,47
60.0024,64