File: notebooks/data/xrd_data/ML_20220718_56_SJD_4_LaB6-1min.uxd
; (content of file Y:\Sam\Apurva-07-20-2022\puck4\ML_20220718_56_SJD_4_LaB6-1min.raw)
_FILEVERSION = 3
_SAMPLE = ML_20220718_56_SJD_4_LaB6-1min
_+SAMPLE =
_SITE = USA
_USER = Administrator
_GONIOMETER_CODE = 20
; Goniometer : D8 theta/2theta, stage : Unknown
_ATTACHMENTS_CODE = 0
_GONIOMETER_RADIUS = 200.5
_FIXED_DIVSLIT = 0.6
_FIXED_SAMPLESLIT = 0
_SOLLER_SLITS = 2
_FIXED_DETSLIT = 9.55
_MONOCHROMATOR = 0
; Incident beam monochromator : None
_SOLLER_SLITS_2 = N
_THIN_FILM = N
_BETA_FILTER = Y
_FIXED_ANTISLIT = 5.89
_ANALYZER_CODE = 0
; Received beam analyzer : None
_DATEMEASURED = "26-Jul-2022 11:00:35"
_WL_UNIT = A
_WL1 = 1.5406
_WL2 = 1.54439
_WL3 = 1.39222
_WLRATIO = 0.5
_ANODE = Cu
_V4_INF_CREATOR = XRDWizard
_V4_INF_CREATOR_VERSION = V2.9.0.22
_V4_INF_WIZARD_VERSION = V2.9.0.22
_V4_INF_WIZARD_ADDINS = V2.9.0.22
_V4_INF_WIZARD_DOCTYPE = XRD
_V4_INF_OSUSER = McQueenLab
_V4_INF_USER = Administrator
_V4_INF_SITE = USA
_V4_INF_SAMPLEID = ML_20220718_56_SJD_4_LaB6-1min

; Data for range 1
_DRIVE = COUPLED
_STEPTIME = 4.23
_STEPSIZE = 0.0185756
_STEPMODE = C
_START = 5
_THETA = 2.5
_2THETA = 5
_KHI = 0
_PHI = 0
_X = 0
_Y = 0
_Z = 0
_DETECTOR = 5
; Detector type : Unknown
_DETECTORSLIT = unkn
_AUX1 = 0
_AUX2 = 0
_AUX3 = 0
_TIMESTARTED = 15
_TEMP_RATE = -1
_TEMP_DELAY = -1
_KV = 40
_MA = 40
_RANGE_WL = 1.5406
_3DPLANE = 0
_V4_ADDITIONALDETECTOR = 257
_V4_PSD2THETA = 3.3771
_V4_PSDCHANNEL1 = 0
_V4_PSDAPERTURE = 12.68
_V4_PSDTYPE = 5
_V4_PSDFIXED = 0
_V4_COUNTERS_MASK = 4096
_V4_DRIVES_MASK = 0
_V4_ENCODERS_MASK = 0
_2THETACOUNTS = 1
; 2THETA  PSD
   5.0000         99
   5.0372         96
   5.0743         83
   5.1115        104
   5.1486         95
   5.1858        102
   5.2229         85
   5.2601         85
   5.2972         93
   5.3344         96
   5.3715         81
   5.4087         76
   5.4458         93
   5.4830         65
   5.5201         89
   5.5573         89
   5.5944         75
   5.6316         69
   5.6687         87
   5.7059         98
   5.7430         92
   5.7802         75
   5.8173         83
   5.8545         84
   5.8916         72
   5.9288         66
   5.9659         66
   6.0031         87
   6.0402         64
   6.0774         63
   6.1145         73
   6.1517         50
   6.1888         65
   6.2260         54
   6.2631         51
   6.3003         74
   6.3374         62
   6.3746         70
   6.4117         72
   6.4489         58
   6.4860         66
   6.5232         66
   6.5604         55
   6.5975         73
   6.6347         62
   6.6718         61
   6.7090         78
   6.7461         65
   6.7833         54
   6.8204         50
   6.8576         70
   6.8947         52
   6.9319         65
   6.9690         63
   7.0062         59
   7.0433         63
   7.0805         57
   7.1176         42
   7.1548         59
   7.1919         50
   7.2291         77
   7.2662         59
   7.3034         76
   7.3405         51
   7.3777         67
   7.4148         61
   7.4520         61
   7.4891         54
   7.5263         49
   7.5634         64
   7.6006         65
   7.6377         63
   7.6749         56
   7.7120         56
   7.7492         67
   7.7863         66
   7.8235         71
   7.8606         63
   7.8978         77
   7.9349         89
   7.9721         63
   8.0092         69
   8.0464         66
   8.0835         74
   8.1207         66
   8.1579         67
   8.1950         68
   8.2322         62
   8.2693         68
   8.3065         77
   8.3436         87
   8.3808         68
   8.4179         86
   8.4551         87
   8.4922         70
   8.5294         72
   8.5665         79
   8.6037         77
   8.6408         95
   8.6780         74
   8.7151         64
   8.7523         66
   8.7894         62
   8.8266         78
   8.8637         79
   8.9009         82
   8.9380         82
   8.9752         82
   9.0123         83
   9.0495         71
   9.0866         65
   9.1238         73
   9.1609         68
   9.1981         78
   9.2352         81
   9.2724         92
   9.3095         78
   9.3467         76
   9.3838         78
   9.4210         85
   9.4581         80
   9.4953         63
   9.5324         82
   9.5696         92
   9.6067         79
   9.6439         95
   9.6811         83
   9.7182         83
   9.7554         87
   9.7925         89
   9.8297         80
   9.8668         90
   9.9040         98
   9.9411         81
   9.9783         80
  10.0154         98
  10.0526         77
  10.0897         93
  10.1269         87
  10.1640         78
  10.2012        100
  10.2383         78
  10.2755         83
  10.3126         93
  10.3498         79
  10.3869         70
  10.4241         87
  10.4612         88
  10.4984         82
  10.5355         91
  10.5727         91
  10.6098         79
  10.6470        102
  10.6841         91
  10.7213         75
  10.7584         93
  10.7956         94
  10.8327         76
  10.8699        108
  10.9070        107
  10.9442        104
  10.9813         91
  11.0185         92
  11.0556         82
  11.0928         78
  11.1299        117
  11.1671         84
  11.2043         87
  11.2414        106
  11.2786         95
  11.3157         97
  11.3529         94
  11.3900         84
  11.4272         81
  11.4643         88
  11.5015         80
  11.5386         89
  11.5758         79
  11.6129         90
  11.6501         85
  11.6872         91
  11.7244         85
  11.7615         93
  11.7987        101
  11.8358         75
  11.8730         83
  11.9101         72
  11.9473         99
  11.9844         88
  12.0216         83
  12.0587         69
  12.0959         87
  12.1330         81
  12.1702        103
  12.2073         95
  12.2445         71
  12.2816         85
  12.3188         73
  12.3559         94
  12.3931         79
  12.4302         85
  12.4674         72
  12.5045         97
  12.5417         62
  12.5788         85
  12.6160         84
  12.6531         86
  12.6903         80
  12.7274         70
  12.7646         77
  12.8018         78
  12.8389         73
  12.8761         64
  12.9132         76
  12.9504         58
  12.9875         79
  13.0247         85
  13.0618         81
  13.0990         67
  13.1361         69
  13.1733         64
  13.2104         66
  13.2476         67
  13.2847         71
  13.3219         85
  13.3590         85
  13.3962         90
  13.4333         72
  13.4705         64
  13.5076         68
  13.5448         85
  13.5819         87
  13.6191         77
  13.6562         69
  13.6934         75
  13.7305         71
  13.7677         71
  13.8048         76
  13.8420         67
  13.8791         65
  13.9163         71
  13.9534         79
  13.9906         76
  14.0277         77
  14.0649         75
  14.1020         63
  14.1392         67
  14.1763         65
  14.2135         62
  14.2506         69
  14.2878         78
  14.3250         76
  14.3621         75
  14.3993         59
  14.4364         65
  14.4736         54
  14.5107         68
  14.5479         78
  14.5850         68
  14.6222         54
  14.6593         59
  14.6965         64
  14.7336         68
  14.7708         49
  14.8079         54
  14.8451         71
  14.8822         47
  14.9194         55
  14.9565         52
  14.9937         57
  15.0308         57
  15.0680         47
  15.1051         57
  15.1423         63
  15.1794         50
  15.2166         58
  15.2537         53
  15.2909         64
  15.3280         50
  15.3652         64
  15.4023         65
  15.4395         40
  15.4766         47
  15.5138         60
  15.5509         56
  15.5881         53
  15.6252         50
  15.6624         63
  15.6995         59
  15.7367         62
  15.7738         61
  15.8110         64
  15.8482         73
  15.8853         59
  15.9225         61
  15.9596         71
  15.9968         65
  16.0339         52
  16.0711         46
  16.1082         62
  16.1454         50
  16.1825         60
  16.2197         64
  16.2568         53
  16.2940         56
  16.3311         60
  16.3683         60
  16.4054         55
  16.4426         58
  16.4797         64
  16.5169         56
  16.5540         75
  16.5912         63
  16.6283         58
  16.6655         60
  16.7026         60
  16.7398         55
  16.7769         61
  16.8141         58
  16.8512         66
  16.8884         57
  16.9255         60
  16.9627         57
  16.9998         59
  17.0370         62
  17.0741         44
  17.1113         68
  17.1484         52
  17.1856         72
  17.2227         63
  17.2599         63
  17.2970         59
  17.3342         61
  17.3713         58
  17.4085         55
  17.4457         65
  17.4828         67
  17.5200         57
  17.5571         56
  17.5943         67
  17.6314         63
  17.6686         44
  17.7057         56
  17.7429         53
  17.7800         56
  17.8172         66
  17.8543         55
  17.8915         50
  17.9286         42
  17.9658         57
  18.0029         59
  18.0401         73
  18.0772         52
  18.1144         61
  18.1515         59
  18.1887         64
  18.2258         78
  18.2630         59
  18.3001         61
  18.3373         57
  18.3744         52
  18.4116         59
  18.4487         71
  18.4859         54
  18.5230         65
  18.5602         67
  18.5973         63
  18.6345         55
  18.6716         55
  18.7088         60
  18.7459         79
  18.7831         69
  18.8202         75
  18.8574         57
  18.8945         62
  18.9317         59
  18.9689         62
  19.0060         57
  19.0432         66
  19.0803         61
  19.1175         55
  19.1546         52
  19.1918         65
  19.2289         83
  19.2661         72
  19.3032         70
  19.3404         58
  19.3775         61
  19.4147         68
  19.4518         70
  19.4890         65
  19.5261         65
  19.5633         58
  19.6004         64
  19.6376         64
  19.6747         64
  19.7119         73
  19.7490         56
  19.7862         65
  19.8233         64
  19.8605         68
  19.8976         64
  19.9348         50
  19.9719         56
  20.0091         56
  20.0462         59
  20.0834         64
  20.1205         74
  20.1577         56
  20.1948         63
  20.2320         82
  20.2691         56
  20.3063         54
  20.3434         84
  20.3806         53
  20.4177         59
  20.4549         76
  20.4921         74
  20.5292         61
  20.5664         71
  20.6035         65
  20.6407         85
  20.6778         67
  20.7150         72
  20.7521         60
  20.7893         80
  20.8264         63
  20.8636         72
  20.9007         78
  20.9379         92
  20.9750         91
  21.0122         56
  21.0493         87
  21.0865         87
  21.1236         90
  21.1608         80
  21.1979         92
  21.2351        120
  21.2722        101
  21.3094        121
  21.3465        187
  21.3837        151
  21.4208        121
  21.4580         76
  21.4951         83
  21.5323         85
  21.5694         64
  21.6066         67
  21.6437         58
  21.6809         85
  21.7180         69
  21.7552         76
  21.7923         76
  21.8295         60
  21.8666         66
  21.9038         68
  21.9409         70
  21.9781         66
  22.0152         53
  22.0524         74
  22.0896         70
  22.1267         69
  22.1639         80
  22.2010         69
  22.2382         75
  22.2753         61
  22.3125         71
  22.3496         70
  22.3868         72
  22.4239         73
  22.4611         64
  22.4982         81
  22.5354         70
  22.5725         68
  22.6097         68
  22.6468         73
  22.6840         73
  22.7211         85
  22.7583         57
  22.7954         75
  22.8326         71
  22.8697         64
  22.9069         63
  22.9440         90
  22.9812         71
  23.0183         79
  23.0555         77
  23.0926         79
  23.1298         75
  23.1669         71
  23.2041         66
  23.2412         87
  23.2784         82
  23.3155         84
  23.3527         82
  23.3898         95
  23.4270         74
  23.4641         65
  23.5013         71
  23.5384         77
  23.5756         70
  23.6128         82
  23.6499         87
  23.6871         83
  23.7242         79
  23.7614         72
  23.7985         67
  23.8357         64
  23.8728         87
  23.9100         92
  23.9471         66
  23.9843         75
  24.0214         76
  24.0586         81
  24.0957         71
  24.1329         54
  24.1700         71
  24.2072         78
  24.2443         79
  24.2815        103
  24.3186         93
  24.3558         89
  24.3929         83
  24.4301         77
  24.4672         81
  24.5044         58
  24.5415         64
  24.5787         66
  24.6158         74
  24.6530         75
  24.6901         61
  24.7273         76
  24.7644         65
  24.8016         74
  24.8387         81
  24.8759         79
  24.9130         66
  24.9502         78
  24.9873         84
  25.0245         76
  25.0616         80
  25.0988         85
  25.1360         55
  25.1731         63
  25.2103         75
  25.2474         62
  25.2846         67
  25.3217         79
  25.3589         59
  25.3960         67
  25.4332         86
  25.4703         74
  25.5075         56
  25.5446         72
  25.5818         59
  25.6189         86
  25.6561         63
  25.6932         85
  25.7304         93
  25.7675         68
  25.8047         79
  25.8418         82
  25.8790         67
  25.9161         66
  25.9533         69
  25.9904         60
  26.0276         70
  26.0647         67
  26.1019         62
  26.1390         86
  26.1762         73
  26.2133         56
  26.2505         78
  26.2876         74
  26.3248         64
  26.3619         79
  26.3991         85
  26.4362         72
  26.4734         62
  26.5105         67
  26.5477         58
  26.5848         78
  26.6220         56
  26.6591         66
  26.6963         75
  26.7335         74
  26.7706         71
  26.8078         73
  26.8449         73
  26.8821         65
  26.9192         81
  26.9564         67
  26.9935         78
  27.0307         62
  27.0678         72
  27.1050         86
  27.1421         74
  27.1793         91
  27.2164         85
  27.2536         79
  27.2907         54
  27.3279         81
  27.3650         65
  27.4022         59
  27.4393         67
  27.4765         60
  27.5136         64
  27.5508         68
  27.5879         70
  27.6251         65
  27.6622         73
  27.6994         66
  27.7365         62
  27.7737         63
  27.8108         72
  27.8480         59
  27.8851         71
  27.9223         83
  27.9594         61
  27.9966         57
  28.0337         69
  28.0709         64
  28.1080         73
  28.1452         75
  28.1823         62
  28.2195         67
  28.2567         77
  28.2938         58
  28.3310         50
  28.3681         60
  28.4053         51
  28.4424         55
  28.4796         62
  28.5167         72
  28.5539         51
  28.5910         62
  28.6282         67
  28.6653         58
  28.7025         56
  28.7396         59
  28.7768         65
  28.8139         62
  28.8511         70
  28.8882         59
  28.9254         61
  28.9625         50
  28.9997         68
  29.0368         64
  29.0740         62
  29.1111         62
  29.1483         58
  29.1854         57
  29.2226         68
  29.2597         50
  29.2969         58
  29.3340         59
  29.3712         63
  29.4083         66
  29.4455         82
  29.4826         56
  29.5198         68
  29.5569         62
  29.5941         54
  29.6312         55
  29.6684         73
  29.7055         62
  29.7427         48
  29.7799         48
  29.8170         60
  29.8542         58
  29.8913         56
  29.9285         51
  29.9656         57
  30.0028         56
  30.0399         53
  30.0771         51
  30.1142         51
  30.1514         63
  30.1885         50
  30.2257         84
  30.2628         45
  30.3000         56
  30.3371         65
  30.3743        102
  30.4114         97
  30.4486         85
  30.4857         68
  30.5229         58
  30.5600         61
  30.5972         55
  30.6343         60
  30.6715         47
  30.7086         58
  30.7458         53
  30.7829         53
  30.8201         48
  30.8572         50
  30.8944         64
  30.9315         61
  30.9687         59
  31.0058         55
  31.0430         52
  31.0801         45
  31.1173         50
  31.1544         63
  31.1916         49
  31.2287         61
  31.2659         49
  31.3030         50
  31.3402         51
  31.3774         50
  31.4145         49
  31.4517         42
  31.4888         53
  31.5260         46
  31.5631         49
  31.6003         49
  31.6374         56
  31.6746         48
  31.7117         55
  31.7489         42
  31.7860         52
  31.8232         46
  31.8603         55
  31.8975         47
  31.9346         52
  31.9718         45
  32.0089         53
  32.0461         39
  32.0832         51
  32.1204         58
  32.1575         48
  32.1947         42
  32.2318         37
  32.2690         53
  32.3061         45
  32.3433         49
  32.3804         41
  32.4176         53
  32.4547         48
  32.4919         50
  32.5290         62
  32.5662         60
  32.6033         46
  32.6405         57
  32.6776         46
  32.7148         36
  32.7519         41
  32.7891         46
  32.8262         49
  32.8634         40
  32.9006         34
  32.9377         52
  32.9749         46
  33.0120         44
  33.0492         44
  33.0863         35
  33.1235         44
  33.1606         57
  33.1978         43
  33.2349         29
  33.2721         46
  33.3092         45
  33.3464         39
  33.3835         55
  33.4207         50
  33.4578         57
  33.4950         46
  33.5321         43
  33.5693         30
  33.6064         53
  33.6436         40
  33.6807         57
  33.7179         52
  33.7550         45
  33.7922         38
  33.8293         44
  33.8665         37
  33.9036         38
  33.9408         49
  33.9779         44
  34.0151         38
  34.0522         39
  34.0894         38
  34.1265         38
  34.1637         36
  34.2008         54
  34.2380         51
  34.2751         36
  34.3123         39
  34.3494         39
  34.3866         45
  34.4238         50
  34.4609         36
  34.4981         32
  34.5352         38
  34.5724         44
  34.6095         54
  34.6467         51
  34.6838         45
  34.7210         63
  34.7581         67
  34.7953         46
  34.8324         63
  34.8696         63
  34.9067         45
  34.9439         41
  34.9810         39
  35.0182         38
  35.0553         44
  35.0925         32
  35.1296         32
  35.1668         32
  35.2039         35
  35.2411         40
  35.2782         51
  35.3154         32
  35.3525         34
  35.3897         37
  35.4268         42
  35.4640         29
  35.5011         27
  35.5383         42
  35.5754         34
  35.6126         26
  35.6497         36
  35.6869         41
  35.7240         46
  35.7612         34
  35.7983         46
  35.8355         31
  35.8726         40
  35.9098         37
  35.9469         43
  35.9841         32
  36.0213         38
  36.0584         32
  36.0956         33
  36.1327         28
  36.1699         39
  36.2070         37
  36.2442         44
  36.2813         38
  36.3185         32
  36.3556         29
  36.3928         33
  36.4299         24
  36.4671         29
  36.5042         37
  36.5414         33
  36.5785         36
  36.6157         29
  36.6528         24
  36.6900         29
  36.7271         41
  36.7643         40
  36.8014         39
  36.8386         37
  36.8757         35
  36.9129         34
  36.9500         21
  36.9872         37
  37.0243         38
  37.0615         26
  37.0986         32
  37.1358         26
  37.1729         31
  37.2101         31
  37.2472         30
  37.2844         29
  37.3215         27
  37.3587         33
  37.3958         51
  37.4330         52
  37.4701         49
  37.5073         36
  37.5445         45
  37.5816         29
  37.6188         37
  37.6559         31
  37.6931         33
  37.7302         28
  37.7674         35
  37.8045         33
  37.8417         25
  37.8788         38
  37.9160         34
  37.9531         34
  37.9903         35
  38.0274         32
  38.0646         32
  38.1017         27
  38.1389         29
  38.1760         27
  38.2132         25
  38.2503         31
  38.2875         27
  38.3246         27
  38.3618         39
  38.3989         25
  38.4361         29
  38.4732         30
  38.5104         40
  38.5475         40
  38.5847         38
  38.6218         31
  38.6590         40
  38.6961         37
  38.7333         37
  38.7704         37
  38.8076         30
  38.8447         27
  38.8819         31
  38.9190         30
  38.9562         33
  38.9933         29
  39.0305         28
  39.0677         36
  39.1048         33
  39.1420         30
  39.1791         30
  39.2163         20
  39.2534         19
  39.2906         36
  39.3277         34
  39.3649         43
  39.4020         33
  39.4392         30
  39.4763         28
  39.5135         32
  39.5506         23
  39.5878         30
  39.6249         31
  39.6621         28
  39.6992         24
  39.7364         37
  39.7735         31
  39.8107         27
  39.8478         27
  39.8850         30
  39.9221         24
  39.9593         24
  39.9964         26
  40.0336         23
  40.0707         32
  40.1079         29
  40.1450         27
  40.1822         31
  40.2193         31
  40.2565         27
  40.2936         25
  40.3308         18
  40.3679         34
  40.4051         32
  40.4422         42
  40.4794         17
  40.5165         26
  40.5537         23
  40.5908         28
  40.6280         25
  40.6652         24
  40.7023         23
  40.7395         27
  40.7766         32
  40.8138         29
  40.8509         18
  40.8881         27
  40.9252         30
  40.9624         41
  40.9995         32
  41.0367         29
  41.0738         31
  41.1110         34
  41.1481         21
  41.1853         30
  41.2224         25
  41.2596         27
  41.2967         30
  41.3339         28
  41.3710         33
  41.4082         19
  41.4453         37
  41.4825         34
  41.5196         32
  41.5568         29
  41.5939         29
  41.6311         28
  41.6682         33
  41.7054         30
  41.7425         20
  41.7797         26
  41.8168         26
  41.8540         38
  41.8911         40
  41.9283         26
  41.9654         26
  42.0026         29
  42.0397         21
  42.0769         29
  42.1140         23
  42.1512         33
  42.1884         20
  42.2255         34
  42.2627         26
  42.2998         30
  42.3370         20
  42.3741         26
  42.4113         29
  42.4484         30
  42.4856         26
  42.5227         20
  42.5599         23
  42.5970         23
  42.6342         30
  42.6713         25
  42.7085         29
  42.7456         26
  42.7828         18
  42.8199         35
  42.8571         30
  42.8942         28
  42.9314         24
  42.9685         27
  43.0057         35
  43.0428         27
  43.0800         21
  43.1171         17
  43.1543         26
  43.1914         31
  43.2286         30
  43.2657         16
  43.3029         32
  43.3400         37
  43.3772         22
  43.4143         26
  43.4515         32
  43.4886         57
  43.5258         37
  43.5629         23
  43.6001         43
  43.6372         46
  43.6744         33
  43.7116         37
  43.7487         25
  43.7859         21
  43.8230         33
  43.8602         25
  43.8973         27
  43.9345         27
  43.9716         20
  44.0088         25
  44.0459         20
  44.0831         25
  44.1202         21
  44.1574         26
  44.1945         27
  44.2317         36
  44.2688         29
  44.3060         29
  44.3431         29
  44.3803         28
  44.4174         30
  44.4546         24
  44.4917         35
  44.5289         25
  44.5660         28
  44.6032         30
  44.6403         30
  44.6775         38
  44.7146         36
  44.7518         22
  44.7889         30
  44.8261         23
  44.8632         27
  44.9004         36
  44.9375         28
  44.9747         22
  45.0118         24
  45.0490         24
  45.0861         21
  45.1233         20
  45.1604         25
  45.1976         23
  45.2347         27
  45.2719         27
  45.3091         23
  45.3462          6
  45.3834         20
  45.4205         26
  45.4577         19
  45.4948         18
  45.5320         24
  45.5691         31
  45.6063         31
  45.6434         28
  45.6806         35
  45.7177         22
  45.7549         21
  45.7920         26
  45.8292         32
  45.8663         18
  45.9035         31
  45.9406         31
  45.9778         20
  46.0149         23
  46.0521         28
  46.0892         17
  46.1264         28
  46.1635         15
  46.2007         35
  46.2378         25
  46.2750         25
  46.3121         26
  46.3493         19
  46.3864         24
  46.4236         23
  46.4607         23
  46.4979         24
  46.5350         27
  46.5722         13
  46.6093         20
  46.6465         28
  46.6836         33
  46.7208         21
  46.7579         18
  46.7951         19
  46.8323         18
  46.8694         25
  46.9066         21
  46.9437         24
  46.9809         24
  47.0180         23
  47.0552         27
  47.0923         19
  47.1295         31
  47.1666         22
  47.2038         27
  47.2409         22
  47.2781         21
  47.3152         24
  47.3524         27
  47.3895         19
  47.4267         25
  47.4638         19
  47.5010         25
  47.5381         23
  47.5753         28
  47.6124         24
  47.6496         27
  47.6867         30
  47.7239         21
  47.7610         17
  47.7982         25
  47.8353         23
  47.8725         26
  47.9096         15
  47.9468         19
  47.9839         25
  48.0211         28
  48.0582         23
  48.0954         16
  48.1325         26
  48.1697         26
  48.2068         15
  48.2440         17
  48.2811         26
  48.3183         18
  48.3555         19
  48.3926         17
  48.4298         26
  48.4669         31
  48.5041         22
  48.5412         20
  48.5784         24
  48.6155         26
  48.6527         21
  48.6898         17
  48.7270         16
  48.7641         37
  48.8013         21
  48.8384         26
  48.8756         25
  48.9127         31
  48.9499         50
  48.9870         33
  49.0242         27
  49.0613         29
  49.0985         36
  49.1356         33
  49.1728         25
  49.2099         20
  49.2471         15
  49.2842         25
  49.3214         19
  49.3585         27
  49.3957         20
  49.4328         12
  49.4700         21
  49.5071         21
  49.5443         27
  49.5814         28
  49.6186         20
  49.6557         22
  49.6929         24
  49.7300         28
  49.7672         16
  49.8043         21
  49.8415         14
  49.8786         26
  49.9158         23
  49.9530         20
  49.9901         25
  50.0273         31
  50.0644         30
  50.1016         17
  50.1387         25
  50.1759         21
  50.2130         25
  50.2502         26
  50.2873         26
  50.3245         23
  50.3616         22
  50.3988         25
  50.4359         19
  50.4731         21
  50.5102         22
  50.5474         20
  50.5845         15
  50.6217         28
  50.6588         34
  50.6960         23
  50.7331         24
  50.7703         20
  50.8074         17
  50.8446         19
  50.8817         22
  50.9189         24
  50.9560         29
  50.9932         24
  51.0303         15
  51.0675         25
  51.1046         27
  51.1418         31
  51.1789         22
  51.2161         16
  51.2532         32
  51.2904         17
  51.3275         20
  51.3647         28
  51.4018         27
  51.4390         19
  51.4762         35
  51.5133         28
  51.5505         22
  51.5876         27
  51.6248         20
  51.6619         27
  51.6991         26
  51.7362         17
  51.7734         23
  51.8105         19
  51.8477         20
  51.8848         19
  51.9220         24
  51.9591         22
  51.9963         13
  52.0334         19
  52.0706         25
  52.1077         19
  52.1449         16
  52.1820         20
  52.2192         26
  52.2563         20
  52.2935         28
  52.3306         19
  52.3678         31
  52.4049         19
  52.4421         21
  52.4792         24
  52.5164         20
  52.5535         21
  52.5907         16
  52.6278         24
  52.6650         26
  52.7021         25
  52.7393         19
  52.7764         20
  52.8136         22
  52.8507         25
  52.8879         28
  52.9250         19
  52.9622         30
  52.9994         24
  53.0365         21
  53.0737         18
  53.1108         26
  53.1480         19
  53.1851         16
  53.2223         22
  53.2594         22
  53.2966         17
  53.3337         13
  53.3709         27
  53.4080         23
  53.4452         28
  53.4823         17
  53.5195         25
  53.5566         22
  53.5938         20
  53.6309         23
  53.6681         16
  53.7052         16
  53.7424         25
  53.7795         31
  53.8167         24
  53.8538         21
  53.8910         17
  53.9281         28
  53.9653         35
  54.0024         32
  54.0396         19
  54.0767         21
  54.1139         25
  54.1510         36
  54.1882         23
  54.2253         19
  54.2625         25
  54.2996         14
  54.3368         16
  54.3739         24
  54.4111         24
  54.4482         21
  54.4854         23
  54.5225         13
  54.5597         29
  54.5969         23
  54.6340         20
  54.6712         15
  54.7083         23
  54.7455         18
  54.7826         21
  54.8198         20
  54.8569         17
  54.8941         24
  54.9312         19
  54.9684         27
  55.0055         18
  55.0427         23
  55.0798         16
  55.1170         21
  55.1541         19
  55.1913         20
  55.2284         22
  55.2656         18
  55.3027         18
  55.3399         26
  55.3770         16
  55.4142         15
  55.4513         27
  55.4885         17
  55.5256         20
  55.5628         26
  55.5999         20
  55.6371         18
  55.6742         25
  55.7114         24
  55.7485         21
  55.7857         17
  55.8228         16
  55.8600         23
  55.8971         17
  55.9343         24
  55.9714         24
  56.0086         16
  56.0457         31
  56.0829         20
  56.1201         20
  56.1572         18
  56.1944         17
  56.2315         27
  56.2687         23
  56.3058         16
  56.3430         19
  56.3801         20
  56.4173         17
  56.4544         26
  56.4916         24
  56.5287         15
  56.5659         21
  56.6030         24
  56.6402         15
  56.6773         16
  56.7145         25
  56.7516         12
  56.7888         21
  56.8259         16
  56.8631         18
  56.9002         22
  56.9374         21
  56.9745         25
  57.0117         20
  57.0488         24
  57.0860         19
  57.1231         17
  57.1603          9
  57.1974         24
  57.2346         19
  57.2717         24
  57.3089         20
  57.3460         18
  57.3832         13
  57.4203         21
  57.4575         18
  57.4946         19
  57.5318         26
  57.5689         20
  57.6061         31
  57.6433         22
  57.6804         20
  57.7176         26
  57.7547         23
  57.7919         18
  57.8290         23
  57.8662         22
  57.9033         33
  57.9405         23
  57.9776         17
  58.0148         17
  58.0519         21
  58.0891         29
  58.1262         20
  58.1634         29
  58.2005         25
  58.2377         25
  58.2748         18
  58.3120         17
  58.3491         22
  58.3863         23
  58.4234         17
  58.4606         16
  58.4977         18
  58.5349         18
  58.5720         18
  58.6092         11
  58.6463         20
  58.6835         24
  58.7206         21
  58.7578         14
  58.7949         22
  58.8321         25
  58.8692         27
  58.9064         25
  58.9435         18
  58.9807         22
  59.0178         18
  59.0550         16
  59.0921         18
  59.1293         19
  59.1664         26
  59.2036         27
  59.2408         25
  59.2779         20
  59.3151         21
  59.3522         27
  59.3894         21
  59.4265         16
  59.4637         22
  59.5008         19
  59.5380         17
  59.5751         17
  59.6123         24
  59.6494         17
  59.6866         23
  59.7237         17
  59.7609         13
  59.7980         12
  59.8352         24
  59.8723         25
  59.9095         17
  59.9466         11
  59.9838         29
  60.0024         20