File: notebooks/data/xrd_data/ML_20220720_16_SJD_4_LaB6-1min.uxd
; (content of file Y:\Sam\Apurva-07-20-2022\puck2\ML_20220720_16_SJD_0_LaB6-1min.raw)
_FILEVERSION = 3
_SAMPLE = ML_20220720_16_SJD_0_LaB6-1mi
_+SAMPLE =
_SITE = USA
_USER = Administrator
_GONIOMETER_CODE = 20
; Goniometer : D8 theta/2theta, stage : Unknown
_ATTACHMENTS_CODE = 0
_GONIOMETER_RADIUS = 200.5
_FIXED_DIVSLIT = 0.6
_FIXED_SAMPLESLIT = 0
_SOLLER_SLITS = 2
_FIXED_DETSLIT = 9.55
_MONOCHROMATOR = 0
; Incident beam monochromator : None
_SOLLER_SLITS_2 = N
_THIN_FILM = N
_BETA_FILTER = Y
_FIXED_ANTISLIT = 5.89
_ANALYZER_CODE = 0
; Received beam analyzer : None
_DATEMEASURED = "25-Jul-2022 18:16:10"
_WL_UNIT = A
_WL1 = 1.5406
_WL2 = 1.54439
_WL3 = 1.39222
_WLRATIO = 0.5
_ANODE = Cu
_V4_INF_CREATOR = XRDWizard
_V4_INF_CREATOR_VERSION = V2.9.0.22
_V4_INF_WIZARD_VERSION = V2.9.0.22
_V4_INF_WIZARD_ADDINS = V2.9.0.22
_V4_INF_WIZARD_DOCTYPE = XRD
_V4_INF_OSUSER = McQueenLab
_V4_INF_USER = Administrator
_V4_INF_SITE = USA
_V4_INF_SAMPLEID = ML_20220720_16_SJD_0_LaB6-1mi

; Data for range 1
_DRIVE = COUPLED
_STEPTIME = 4.23
_STEPSIZE = 0.0185756
_STEPMODE = C
_START = 5
_THETA = 2.5
_2THETA = 5
_KHI = 0
_PHI = 0
_X = 0
_Y = 0
_Z = 0
_DETECTOR = 5
; Detector type : Unknown
_DETECTORSLIT = unkn
_AUX1 = 0
_AUX2 = 0
_AUX3 = 0
_TIMESTARTED = 15
_TEMP_RATE = -1
_TEMP_DELAY = -1
_KV = 40
_MA = 40
_RANGE_WL = 1.5406
_3DPLANE = 0
_V4_ADDITIONALDETECTOR = 257
_V4_PSD2THETA = 3.3706
_V4_PSDCHANNEL1 = 0
_V4_PSDAPERTURE = 12.68
_V4_PSDTYPE = 5
_V4_PSDFIXED = 0
_V4_COUNTERS_MASK = 4096
_V4_DRIVES_MASK = 0
_V4_ENCODERS_MASK = 0
_2THETACOUNTS = 1
; 2THETA  PSD
   5.0000         90
   5.0372         89
   5.0743         92
   5.1115         97
   5.1486         98
   5.1858        106
   5.2229         95
   5.2601         79
   5.2972         87
   5.3344         84
   5.3715         84
   5.4087         86
   5.4458        104
   5.4830         65
   5.5201         90
   5.5573         85
   5.5944         79
   5.6316         76
   5.6687         71
   5.7059         93
   5.7430         82
   5.7802         89
   5.8173         74
   5.8545         70
   5.8916         88
   5.9288         73
   5.9659         81
   6.0031         67
   6.0402         74
   6.0774         83
   6.1145         61
   6.1517         81
   6.1888         61
   6.2260         62
   6.2631         80
   6.3003         59
   6.3374         73
   6.3746         65
   6.4117         58
   6.4489         64
   6.4860         67
   6.5232         66
   6.5604         68
   6.5975         68
   6.6347         86
   6.6718         48
   6.7090         76
   6.7461         66
   6.7833         60
   6.8204         62
   6.8576         62
   6.8947         56
   6.9319         47
   6.9690         60
   7.0062         58
   7.0433         49
   7.0805         56
   7.1176         54
   7.1548         54
   7.1919         53
   7.2291         61
   7.2662         62
   7.3034         56
   7.3405         60
   7.3777         57
   7.4148         63
   7.4520         46
   7.4891         55
   7.5263         67
   7.5634         71
   7.6006         62
   7.6377         53
   7.6749         69
   7.7120         59
   7.7492         85
   7.7863         72
   7.8235         66
   7.8606         71
   7.8978         63
   7.9349         52
   7.9721         64
   8.0092         64
   8.0464         65
   8.0835         55
   8.1207         82
   8.1579         77
   8.1950         79
   8.2322         73
   8.2693         87
   8.3065         61
   8.3436         69
   8.3808         75
   8.4179         77
   8.4551         70
   8.4922         67
   8.5294         76
   8.5665         75
   8.6037         73
   8.6408         69
   8.6780         76
   8.7151         83
   8.7523         84
   8.7894         57
   8.8266         72
   8.8637         82
   8.9009         67
   8.9380         80
   8.9752         74
   9.0123         81
   9.0495        101
   9.0866         96
   9.1238         83
   9.1609         79
   9.1981         85
   9.2352         74
   9.2724         93
   9.3095         78
   9.3467         71
   9.3838         74
   9.4210         81
   9.4581         64
   9.4953         76
   9.5324         98
   9.5696         94
   9.6067         77
   9.6439         81
   9.6811         95
   9.7182         82
   9.7554         92
   9.7925        101
   9.8297        105
   9.8668         90
   9.9040         97
   9.9411         88
   9.9783         92
  10.0154         92
  10.0526         99
  10.0897         75
  10.1269         95
  10.1640         87
  10.2012        106
  10.2383        105
  10.2755         94
  10.3126         89
  10.3498         85
  10.3869         83
  10.4241         82
  10.4612         93
  10.4984         88
  10.5355         90
  10.5727        113
  10.6098         87
  10.6470         89
  10.6841        101
  10.7213         76
  10.7584        105
  10.7956        113
  10.8327        104
  10.8699         83
  10.9070         63
  10.9442         73
  10.9813         87
  11.0185         93
  11.0556         84
  11.0928         80
  11.1299         88
  11.1671         79
  11.2043         87
  11.2414         92
  11.2786         86
  11.3157         78
  11.3529         74
  11.3900         75
  11.4272         98
  11.4643         77
  11.5015         71
  11.5386        100
  11.5758        114
  11.6129         77
  11.6501        108
  11.6872         71
  11.7244        104
  11.7615        101
  11.7987         86
  11.8358         89
  11.8730         86
  11.9101        104
  11.9473         88
  11.9844         63
  12.0216         79
  12.0587         75
  12.0959         86
  12.1330         68
  12.1702         79
  12.2073         77
  12.2445         77
  12.2816         70
  12.3188         91
  12.3559         74
  12.3931         58
  12.4302         74
  12.4674         95
  12.5045         90
  12.5417         81
  12.5788         81
  12.6160         80
  12.6531         71
  12.6903         85
  12.7274         83
  12.7646         76
  12.8018         77
  12.8389         74
  12.8761         87
  12.9132         70
  12.9504         48
  12.9875         60
  13.0247         62
  13.0618         96
  13.0990         90
  13.1361         67
  13.1733         57
  13.2104         79
  13.2476         74
  13.2847         75
  13.3219         67
  13.3590         79
  13.3962         78
  13.4333         68
  13.4705         65
  13.5076         84
  13.5448         79
  13.5819         68
  13.6191         81
  13.6562         66
  13.6934         73
  13.7305         63
  13.7677         66
  13.8048         78
  13.8420         55
  13.8791         69
  13.9163         66
  13.9534         68
  13.9906         69
  14.0277         65
  14.0649         74
  14.1020         72
  14.1392         69
  14.1763         68
  14.2135         74
  14.2506         63
  14.2878         69
  14.3250         63
  14.3621         61
  14.3993         71
  14.4364         73
  14.4736         60
  14.5107         66
  14.5479         59
  14.5850         63
  14.6222         58
  14.6593         74
  14.6965         55
  14.7336         55
  14.7708         58
  14.8079         53
  14.8451         67
  14.8822         66
  14.9194         51
  14.9565         70
  14.9937         67
  15.0308         55
  15.0680         61
  15.1051         63
  15.1423         61
  15.1794         60
  15.2166         49
  15.2537         60
  15.2909         55
  15.3280         67
  15.3652         61
  15.4023         56
  15.4395         80
  15.4766         59
  15.5138         63
  15.5509         60
  15.5881         51
  15.6252         40
  15.6624         71
  15.6995         59
  15.7367         49
  15.7738         56
  15.8110         66
  15.8482         68
  15.8853         57
  15.9225         54
  15.9596         50
  15.9968         45
  16.0339         70
  16.0711         60
  16.1082         69
  16.1454         56
  16.1825         69
  16.2197         67
  16.2568         57
  16.2940         56
  16.3311         62
  16.3683         62
  16.4054         65
  16.4426         60
  16.4797         59
  16.5169         53
  16.5540         58
  16.5912         46
  16.6283         57
  16.6655         56
  16.7026         57
  16.7398         50
  16.7769         53
  16.8141         59
  16.8512         55
  16.8884         51
  16.9255         64
  16.9627         53
  16.9998         48
  17.0370         60
  17.0741         57
  17.1113         64
  17.1484         60
  17.1856         48
  17.2227         65
  17.2599         69
  17.2970         62
  17.3342         67
  17.3713         58
  17.4085         64
  17.4457         65
  17.4828         57
  17.5200         59
  17.5571         54
  17.5943         64
  17.6314         53
  17.6686         65
  17.7057         57
  17.7429         49
  17.7800         60
  17.8172         54
  17.8543         68
  17.8915         70
  17.9286         65
  17.9658         57
  18.0029         63
  18.0401         48
  18.0772         65
  18.1144         85
  18.1515         62
  18.1887         64
  18.2258         47
  18.2630         63
  18.3001         52
  18.3373         53
  18.3744         49
  18.4116         47
  18.4487         54
  18.4859         56
  18.5230         66
  18.5602         72
  18.5973         56
  18.6345         67
  18.6716         51
  18.7088         63
  18.7459         46
  18.7831         55
  18.8202         65
  18.8574         56
  18.8945         61
  18.9317         47
  18.9689         66
  19.0060         60
  19.0432         56
  19.0803         65
  19.1175         65
  19.1546         58
  19.1918         66
  19.2289         58
  19.2661         68
  19.3032         56
  19.3404         73
  19.3775         57
  19.4147         71
  19.4518         59
  19.4890         55
  19.5261         64
  19.5633         58
  19.6004         58
  19.6376         59
  19.6747         68
  19.7119         78
  19.7490         70
  19.7862         75
  19.8233         65
  19.8605         61
  19.8976         76
  19.9348         56
  19.9719         60
  20.0091         56
  20.0462         64
  20.0834         66
  20.1205         67
  20.1577         60
  20.1948         60
  20.2320         58
  20.2691         80
  20.3063         56
  20.3434         66
  20.3806         60
  20.4177         68
  20.4549         68
  20.4921         61
  20.5292         71
  20.5664         61
  20.6035         67
  20.6407         82
  20.6778         74
  20.7150         68
  20.7521         85
  20.7893         65
  20.8264         75
  20.8636         63
  20.9007         56
  20.9379         53
  20.9750         77
  21.0122         79
  21.0493         72
  21.0865         71
  21.1236         88
  21.1608         81
  21.1979         98
  21.2351        110
  21.2722        108
  21.3094        124
  21.3465        196
  21.3837        150
  21.4208        147
  21.4580         71
  21.4951         70
  21.5323         74
  21.5694         76
  21.6066         72
  21.6437         65
  21.6809         90
  21.7180         75
  21.7552         73
  21.7923         54
  21.8295         62
  21.8666         67
  21.9038         52
  21.9409         78
  21.9781         68
  22.0152         58
  22.0524         75
  22.0896         68
  22.1267         74
  22.1639         82
  22.2010         63
  22.2382         66
  22.2753         87
  22.3125         76
  22.3496         47
  22.3868         81
  22.4239         72
  22.4611         70
  22.4982         76
  22.5354         59
  22.5725         85
  22.6097         69
  22.6468         68
  22.6840         72
  22.7211         85
  22.7583         58
  22.7954         91
  22.8326         83
  22.8697         61
  22.9069         70
  22.9440         65
  22.9812         86
  23.0183         76
  23.0555         74
  23.0926         65
  23.1298         78
  23.1669         82
  23.2041         68
  23.2412         78
  23.2784         81
  23.3155         77
  23.3527         57
  23.3898         93
  23.4270         72
  23.4641         82
  23.5013         72
  23.5384         82
  23.5756         89
  23.6128         74
  23.6499         81
  23.6871         64
  23.7242         80
  23.7614         75
  23.7985         59
  23.8357         70
  23.8728         72
  23.9100         74
  23.9471         65
  23.9843         96
  24.0214         70
  24.0586         69
  24.0957         64
  24.1329         73
  24.1700         75
  24.2072         62
  24.2443         73
  24.2815         85
  24.3186         80
  24.3558         69
  24.3929         76
  24.4301         68
  24.4672         67
  24.5044         82
  24.5415         95
  24.5787         73
  24.6158         89
  24.6530         70
  24.6901         67
  24.7273         68
  24.7644         69
  24.8016         77
  24.8387         68
  24.8759         56
  24.9130         60
  24.9502         74
  24.9873         66
  25.0245         75
  25.0616         77
  25.0988         78
  25.1360         67
  25.1731         69
  25.2103         69
  25.2474         76
  25.2846         54
  25.3217         74
  25.3589         74
  25.3960         77
  25.4332         78
  25.4703         81
  25.5075         61
  25.5446         70
  25.5818         69
  25.6189         79
  25.6561         71
  25.6932         58
  25.7304         77
  25.7675         72
  25.8047         80
  25.8418         69
  25.8790         67
  25.9161         65
  25.9533         77
  25.9904         86
  26.0276         66
  26.0647         79
  26.1019         73
  26.1390         51
  26.1762         78
  26.2133         76
  26.2505         74
  26.2876         66
  26.3248         70
  26.3619         81
  26.3991         73
  26.4362         65
  26.4734         72
  26.5105         77
  26.5477         71
  26.5848         64
  26.6220         68
  26.6591         71
  26.6963         65
  26.7335         84
  26.7706         61
  26.8078         54
  26.8449         61
  26.8821         67
  26.9192         67
  26.9564         74
  26.9935         76
  27.0307         63
  27.0678         88
  27.1050         56
  27.1421         76
  27.1793         81
  27.2164         98
  27.2536         89
  27.2907         72
  27.3279         63
  27.3650         72
  27.4022         69
  27.4393         54
  27.4765         73
  27.5136         68
  27.5508         64
  27.5879         58
  27.6251         66
  27.6622         64
  27.6994         67
  27.7365         83
  27.7737         68
  27.8108         56
  27.8480         77
  27.8851         65
  27.9223         57
  27.9594         58
  27.9966         58
  28.0337         75
  28.0709         65
  28.1080         56
  28.1452         71
  28.1823         53
  28.2195         51
  28.2567         56
  28.2938         52
  28.3310         51
  28.3681         73
  28.4053         60
  28.4424         55
  28.4796         72
  28.5167         48
  28.5539         62
  28.5910         64
  28.6282         49
  28.6653         65
  28.7025         79
  28.7396         71
  28.7768         49
  28.8139         58
  28.8511         79
  28.8882         70
  28.9254         37
  28.9625         61
  28.9997         57
  29.0368         67
  29.0740         72
  29.1111         65
  29.1483         51
  29.1854         60
  29.2226         58
  29.2597         66
  29.2969         60
  29.3340         44
  29.3712         58
  29.4083         74
  29.4455         67
  29.4826         54
  29.5198         55
  29.5569         45
  29.5941         60
  29.6312         65
  29.6684         56
  29.7055         53
  29.7427         70
  29.7799         56
  29.8170         60
  29.8542         53
  29.8913         45
  29.9285         49
  29.9656         61
  30.0028         63
  30.0399         49
  30.0771         63
  30.1142         72
  30.1514         55
  30.1885         55
  30.2257         48
  30.2628         64
  30.3000         62
  30.3371         85
  30.3743        130
  30.4114        123
  30.4486         89
  30.4857         88
  30.5229         70
  30.5600         43
  30.5972         54
  30.6343         61
  30.6715         57
  30.7086         61
  30.7458         61
  30.7829         52
  30.8201         50
  30.8572         59
  30.8944         53
  30.9315         52
  30.9687         52
  31.0058         56
  31.0430         51
  31.0801         69
  31.1173         49
  31.1544         53
  31.1916         51
  31.2287         39
  31.2659         74
  31.3030         46
  31.3402         51
  31.3774         50
  31.4145         54
  31.4517         52
  31.4888         60
  31.5260         44
  31.5631         57
  31.6003         51
  31.6374         61
  31.6746         40
  31.7117         42
  31.7489         42
  31.7860         49
  31.8232         59
  31.8603         40
  31.8975         47
  31.9346         46
  31.9718         53
  32.0089         41
  32.0461         46
  32.0832         49
  32.1204         43
  32.1575         54
  32.1947         55
  32.2318         52
  32.2690         44
  32.3061         46
  32.3433         57
  32.3804         47
  32.4176         49
  32.4547         61
  32.4919         47
  32.5290         53
  32.5662         55
  32.6033         66
  32.6405         40
  32.6776         57
  32.7148         37
  32.7519         49
  32.7891         45
  32.8262         42
  32.8634         41
  32.9006         47
  32.9377         50
  32.9749         50
  33.0120         55
  33.0492         50
  33.0863         54
  33.1235         49
  33.1606         42
  33.1978         47
  33.2349         50
  33.2721         38
  33.3092         55
  33.3464         38
  33.3835         54
  33.4207         34
  33.4578         31
  33.4950         41
  33.5321         36
  33.5693         39
  33.6064         37
  33.6436         52
  33.6807         45
  33.7179         46
  33.7550         51
  33.7922         55
  33.8293         46
  33.8665         41
  33.9036         41
  33.9408         51
  33.9779         31
  34.0151         44
  34.0522         48
  34.0894         34
  34.1265         40
  34.1637         33
  34.2008         36
  34.2380         36
  34.2751         37
  34.3123         38
  34.3494         47
  34.3866         39
  34.4238         41
  34.4609         54
  34.4981         36
  34.5352         46
  34.5724         51
  34.6095         47
  34.6467         42
  34.6838         50
  34.7210         53
  34.7581         62
  34.7953         59
  34.8324         45
  34.8696         49
  34.9067         39
  34.9439         43
  34.9810         39
  35.0182         36
  35.0553         43
  35.0925         42
  35.1296         43
  35.1668         39
  35.2039         42
  35.2411         36
  35.2782         38
  35.3154         46
  35.3525         26
  35.3897         30
  35.4268         39
  35.4640         42
  35.5011         50
  35.5383         39
  35.5754         48
  35.6126         42
  35.6497         42
  35.6869         33
  35.7240         38
  35.7612         36
  35.7983         51
  35.8355         44
  35.8726         31
  35.9098         28
  35.9469         34
  35.9841         37
  36.0213         42
  36.0584         32
  36.0956         27
  36.1327         32
  36.1699         36
  36.2070         37
  36.2442         28
  36.2813         35
  36.3185         33
  36.3556         30
  36.3928         45
  36.4299         38
  36.4671         33
  36.5042         23
  36.5414         43
  36.5785         35
  36.6157         41
  36.6528         32
  36.6900         38
  36.7271         41
  36.7643         31
  36.8014         41
  36.8386         49
  36.8757         35
  36.9129         30
  36.9500         28
  36.9872         32
  37.0243         27
  37.0615         28
  37.0986         46
  37.1358         40
  37.1729         25
  37.2101         46
  37.2472         30
  37.2844         33
  37.3215         31
  37.3587         38
  37.3958         38
  37.4330         57
  37.4701         49
  37.5073         42
  37.5445         50
  37.5816         35
  37.6188         32
  37.6559         38
  37.6931         34
  37.7302         13
  37.7674         30
  37.8045         32
  37.8417         36
  37.8788         33
  37.9160         28
  37.9531         31
  37.9903         37
  38.0274         36
  38.0646         39
  38.1017         29
  38.1389         35
  38.1760         35
  38.2132         26
  38.2503         30
  38.2875         37
  38.3246         33
  38.3618         33
  38.3989         33
  38.4361         32
  38.4732         33
  38.5104         35
  38.5475         38
  38.5847         30
  38.6218         45
  38.6590         31
  38.6961         28
  38.7333         29
  38.7704         32
  38.8076         31
  38.8447         42
  38.8819         30
  38.9190         24
  38.9562         38
  38.9933         29
  39.0305         30
  39.0677         28
  39.1048         26
  39.1420         31
  39.1791         35
  39.2163         33
  39.2534         27
  39.2906         26
  39.3277         29
  39.3649         32
  39.4020         25
  39.4392         29
  39.4763         36
  39.5135         34
  39.5506         29
  39.5878         37
  39.6249         46
  39.6621         28
  39.6992         27
  39.7364         22
  39.7735         24
  39.8107         23
  39.8478         27
  39.8850         21
  39.9221         32
  39.9593         29
  39.9964         22
  40.0336         35
  40.0707         38
  40.1079         35
  40.1450         21
  40.1822         34
  40.2193         23
  40.2565         35
  40.2936         35
  40.3308         28
  40.3679         32
  40.4051         23
  40.4422         28
  40.4794         34
  40.5165         31
  40.5537         33
  40.5908         26
  40.6280         27
  40.6652         24
  40.7023         28
  40.7395         34
  40.7766         30
  40.8138         36
  40.8509         36
  40.8881         24
  40.9252         24
  40.9624         32
  40.9995         32
  41.0367         39
  41.0738         27
  41.1110         29
  41.1481         34
  41.1853         27
  41.2224         32
  41.2596         24
  41.2967         32
  41.3339         29
  41.3710         32
  41.4082         26
  41.4453         19
  41.4825         22
  41.5196         32
  41.5568         22
  41.5939         26
  41.6311         26
  41.6682         20
  41.7054         18
  41.7425         29
  41.7797         25
  41.8168         36
  41.8540         20
  41.8911         28
  41.9283         26
  41.9654         22
  42.0026         29
  42.0397         31
  42.0769         32
  42.1140         28
  42.1512         20
  42.1884         40
  42.2255         26
  42.2627         31
  42.2998         33
  42.3370         30
  42.3741         22
  42.4113         17
  42.4484         28
  42.4856         23
  42.5227         29
  42.5599         23
  42.5970         29
  42.6342         15
  42.6713         25
  42.7085         30
  42.7456         34
  42.7828         25
  42.8199         16
  42.8571         28
  42.8942         35
  42.9314         37
  42.9685         32
  43.0057         31
  43.0428         25
  43.0800         31
  43.1171         37
  43.1543         23
  43.1914         31
  43.2286         26
  43.2657         35
  43.3029         35
  43.3400         30
  43.3772         27
  43.4143         23
  43.4515         26
  43.4886         48
  43.5258         39
  43.5629         29
  43.6001         33
  43.6372         41
  43.6744         35
  43.7116         28
  43.7487         28
  43.7859         36
  43.8230         33
  43.8602         29
  43.8973         32
  43.9345         27
  43.9716         29
  44.0088         23
  44.0459         21
  44.0831         36
  44.1202         27
  44.1574         33
  44.1945         28
  44.2317         34
  44.2688         31
  44.3060         26
  44.3431         24
  44.3803         34
  44.4174         30
  44.4546         20
  44.4917         32
  44.5289         19
  44.5660         20
  44.6032         19
  44.6403         29
  44.6775         27
  44.7146         30
  44.7518         34
  44.7889         46
  44.8261         21
  44.8632         27
  44.9004         21
  44.9375         27
  44.9747         32
  45.0118         23
  45.0490         24
  45.0861         26
  45.1233         24
  45.1604         23
  45.1976         23
  45.2347         23
  45.2719         32
  45.3091         26
  45.3462         30
  45.3834         25
  45.4205         27
  45.4577         28
  45.4948         21
  45.5320         32
  45.5691         27
  45.6063         27
  45.6434         21
  45.6806         25
  45.7177         36
  45.7549         19
  45.7920         20
  45.8292         28
  45.8663         25
  45.9035         22
  45.9406         20
  45.9778         32
  46.0149         37
  46.0521         20
  46.0892         16
  46.1264         22
  46.1635         25
  46.2007         23
  46.2378         22
  46.2750         24
  46.3121         21
  46.3493         16
  46.3864         26
  46.4236         29
  46.4607         24
  46.4979         23
  46.5350         25
  46.5722         29
  46.6093         34
  46.6465         25
  46.6836         25
  46.7208         18
  46.7579         18
  46.7951         17
  46.8323         23
  46.8694         33
  46.9066         22
  46.9437         23
  46.9809         21
  47.0180         30
  47.0552         24
  47.0923         24
  47.1295         21
  47.1666         18
  47.2038         26
  47.2409         25
  47.2781         24
  47.3152         23
  47.3524         36
  47.3895         34
  47.4267         23
  47.4638         15
  47.5010         23
  47.5381         21
  47.5753         34
  47.6124         22
  47.6496         31
  47.6867         16
  47.7239         19
  47.7610         22
  47.7982         23
  47.8353         20
  47.8725         16
  47.9096         38
  47.9468         23
  47.9839         31
  48.0211         21
  48.0582         28
  48.0954         25
  48.1325         24
  48.1697         23
  48.2068         24
  48.2440         26
  48.2811         15
  48.3183         20
  48.3555         18
  48.3926         29
  48.4298         32
  48.4669         28
  48.5041         20
  48.5412         26
  48.5784         21
  48.6155         26
  48.6527         25
  48.6898         32
  48.7270         19
  48.7641         27
  48.8013         24
  48.8384         30
  48.8756         28
  48.9127         33
  48.9499         40
  48.9870         34
  49.0242         28
  49.0613         39
  49.0985         26
  49.1356         30
  49.1728         26
  49.2099         22
  49.2471         21
  49.2842         24
  49.3214         26
  49.3585         34
  49.3957         21
  49.4328         20
  49.4700         27
  49.5071         15
  49.5443         19
  49.5814         21
  49.6186         23
  49.6557         18
  49.6929         23
  49.7300         27
  49.7672         26
  49.8043         28
  49.8415         28
  49.8786         20
  49.9158         30
  49.9530         19
  49.9901         23
  50.0273         24
  50.0644         12
  50.1016         30
  50.1387         26
  50.1759         28
  50.2130         26
  50.2502         17
  50.2873         17
  50.3245         17
  50.3616         28
  50.3988         21
  50.4359         26
  50.4731         19
  50.5102         20
  50.5474         17
  50.5845         28
  50.6217         17
  50.6588         23
  50.6960         25
  50.7331         26
  50.7703         20
  50.8074         20
  50.8446         23
  50.8817         26
  50.9189         18
  50.9560         22
  50.9932         21
  51.0303         28
  51.0675         23
  51.1046         17
  51.1418         19
  51.1789         22
  51.2161         29
  51.2532         18
  51.2904         19
  51.3275         22
  51.3647         26
  51.4018         24
  51.4390         35
  51.4762         27
  51.5133         24
  51.5505         25
  51.5876         28
  51.6248         29
  51.6619         22
  51.6991         33
  51.7362         24
  51.7734         24
  51.8105         19
  51.8477         30
  51.8848         24
  51.9220         20
  51.9591         31
  51.9963         20
  52.0334         23
  52.0706         15
  52.1077         16
  52.1449         16
  52.1820         15
  52.2192         21
  52.2563         14
  52.2935         18
  52.3306         25
  52.3678         23
  52.4049         18
  52.4421         23
  52.4792         22
  52.5164         18
  52.5535         12
  52.5907         22
  52.6278         19
  52.6650         24
  52.7021         26
  52.7393         30
  52.7764         30
  52.8136         20
  52.8507         25
  52.8879         17
  52.9250         29
  52.9622         29
  52.9994         26
  53.0365         21
  53.0737         23
  53.1108         31
  53.1480         22
  53.1851         19
  53.2223         33
  53.2594         24
  53.2966         29
  53.3337         23
  53.3709         26
  53.4080         21
  53.4452         17
  53.4823         18
  53.5195         22
  53.5566         16
  53.5938         12
  53.6309         19
  53.6681         16
  53.7052         23
  53.7424         22
  53.7795         16
  53.8167         21
  53.8538         20
  53.8910         17
  53.9281         21
  53.9653         21
  54.0024         29
  54.0396         28
  54.0767         23
  54.1139         32
  54.1510         26
  54.1882         20
  54.2253         29
  54.2625         19
  54.2996         23
  54.3368         23
  54.3739         19
  54.4111         20
  54.4482         23
  54.4854         17
  54.5225         20
  54.5597         24
  54.5969         24
  54.6340         22
  54.6712         26
  54.7083         17
  54.7455         18
  54.7826         22
  54.8198         19
  54.8569         24
  54.8941         22
  54.9312         17
  54.9684         24
  55.0055         22
  55.0427         22
  55.0798         19
  55.1170         26
  55.1541         23
  55.1913         19
  55.2284         23
  55.2656         16
  55.3027         26
  55.3399         25
  55.3770         17
  55.4142         19
  55.4513         19
  55.4885         22
  55.5256         14
  55.5628         21
  55.5999         17
  55.6371         19
  55.6742         21
  55.7114         18
  55.7485         22
  55.7857         16
  55.8228         16
  55.8600         26
  55.8971         22
  55.9343         24
  55.9714         20
  56.0086         26
  56.0457         21
  56.0829         27
  56.1201         19
  56.1572         28
  56.1944         28
  56.2315         24
  56.2687         28
  56.3058         22
  56.3430         23
  56.3801         27
  56.4173         13
  56.4544         15
  56.4916         18
  56.5287         13
  56.5659         20
  56.6030         23
  56.6402         20
  56.6773         19
  56.7145         17
  56.7516         18
  56.7888         21
  56.8259         20
  56.8631         25
  56.9002         23
  56.9374         22
  56.9745         12
  57.0117         18
  57.0488         26
  57.0860         23
  57.1231         24
  57.1603         17
  57.1974         13
  57.2346         19
  57.2717         14
  57.3089         21
  57.3460         17
  57.3832         21
  57.4203         18
  57.4575         19
  57.4946         30
  57.5318         18
  57.5689         21
  57.6061         32
  57.6433         26
  57.6804         24
  57.7176         22
  57.7547         23
  57.7919         19
  57.8290         19
  57.8662         21
  57.9033         19
  57.9405         21
  57.9776         26
  58.0148         19
  58.0519         23
  58.0891         15
  58.1262         13
  58.1634         20
  58.2005         21
  58.2377         27
  58.2748         17
  58.3120         18
  58.3491         18
  58.3863         15
  58.4234         22
  58.4606         21
  58.4977         13
  58.5349         19
  58.5720         21
  58.6092         12
  58.6463         21
  58.6835         16
  58.7206         19
  58.7578         20
  58.7949         29
  58.8321         22
  58.8692         22
  58.9064         19
  58.9435         16
  58.9807         16
  59.0178         17
  59.0550         20
  59.0921         15
  59.1293         19
  59.1664         24
  59.2036         24
  59.2408         20
  59.2779         14
  59.3151         12
  59.3522         29
  59.3894         19
  59.4265         17
  59.4637         23
  59.5008         22
  59.5380         20
  59.5751         32
  59.6123         24
  59.6494         17
  59.6866         21
  59.7237         28
  59.7609         20
  59.7980         19
  59.8352         25
  59.8723         16
  59.9095         19
  59.9466         21
  59.9838         19
  60.0024         20