File: notebooks/data/xrd_data/ML_20220718_39_SJD_4_LaB6-2min.uxd
; (content of file Y:\Sam\Apurva-07-20-2022\puck4\ML_20220718_39_SJD_0_LaB6-2min.raw)
_FILEVERSION = 3
_SAMPLE = ML_20220718_39_SJD_0_LaB6-2min
_+SAMPLE =
_SITE = USA
_USER = Administrator
_GONIOMETER_CODE = 20
; Goniometer : D8 theta/2theta, stage : Unknown
_ATTACHMENTS_CODE = 0
_GONIOMETER_RADIUS = 200.5
_FIXED_DIVSLIT = 0.6
_FIXED_SAMPLESLIT = 0
_SOLLER_SLITS = 2
_FIXED_DETSLIT = 9.55
_MONOCHROMATOR = 0
; Incident beam monochromator : None
_SOLLER_SLITS_2 = N
_THIN_FILM = N
_BETA_FILTER = Y
_FIXED_ANTISLIT = 5.89
_ANALYZER_CODE = 0
; Received beam analyzer : None
_DATEMEASURED = "26-Jul-2022 08:52:05"
_WL_UNIT = A
_WL1 = 1.5406
_WL2 = 1.54439
_WL3 = 1.39222
_WLRATIO = 0.5
_ANODE = Cu
_V4_INF_CREATOR = XRDWizard
_V4_INF_CREATOR_VERSION = V2.9.0.22
_V4_INF_WIZARD_VERSION = V2.9.0.22
_V4_INF_WIZARD_ADDINS = V2.9.0.22
_V4_INF_WIZARD_DOCTYPE = XRD
_V4_INF_OSUSER = McQueenLab
_V4_INF_USER = Administrator
_V4_INF_SITE = USA
_V4_INF_SAMPLEID = ML_20220718_39_SJD_0_LaB6-2min

; Data for range 1
_DRIVE = COUPLED
_STEPTIME = 5.64
_STEPSIZE = 0.0185756
_STEPMODE = C
_START = 5
_THETA = 2.5
_2THETA = 5
_KHI = 0
_PHI = 0
_X = 0
_Y = 0
_Z = 0
_DETECTOR = 5
; Detector type : Unknown
_DETECTORSLIT = unkn
_AUX1 = 0
_AUX2 = 0
_AUX3 = 0
_TIMESTARTED = 16
_TEMP_RATE = -1
_TEMP_DELAY = -1
_KV = 40
_MA = 40
_RANGE_WL = 1.5406
_3DPLANE = 0
_V4_ADDITIONALDETECTOR = 257
_V4_PSD2THETA = 3.3714
_V4_PSDCHANNEL1 = 0
_V4_PSDAPERTURE = 12.68
_V4_PSDTYPE = 5
_V4_PSDFIXED = 0
_V4_COUNTERS_MASK = 4096
_V4_DRIVES_MASK = 0
_V4_ENCODERS_MASK = 0
_2THETACOUNTS = 1
; 2THETA  PSD
   5.0000        124
   5.0372        117
   5.0743        116
   5.1115        112
   5.1486        131
   5.1858        141
   5.2229        119
   5.2601        120
   5.2972        117
   5.3344        137
   5.3715        128
   5.4087         98
   5.4458         97
   5.4830        105
   5.5201        126
   5.5573        123
   5.5944        121
   5.6316        111
   5.6687         95
   5.7059         93
   5.7430        123
   5.7802         86
   5.8173         97
   5.8545        117
   5.8916        127
   5.9288        102
   5.9659         89
   6.0031        104
   6.0402         95
   6.0774        103
   6.1145         94
   6.1517         91
   6.1888         90
   6.2260         95
   6.2631         71
   6.3003        100
   6.3374         84
   6.3746        108
   6.4117        106
   6.4489         96
   6.4860         92
   6.5232         81
   6.5604         81
   6.5975         95
   6.6347         99
   6.6718         80
   6.7090         89
   6.7461         61
   6.7833        102
   6.8204         82
   6.8576         79
   6.8947         74
   6.9319         89
   6.9690         83
   7.0062         82
   7.0433         76
   7.0805         86
   7.1176         85
   7.1548         95
   7.1919         82
   7.2291         77
   7.2662         81
   7.3034         77
   7.3405         67
   7.3777         86
   7.4148         81
   7.4520         81
   7.4891         85
   7.5263         78
   7.5634         89
   7.6006         78
   7.6377         77
   7.6749         79
   7.7120         82
   7.7492         83
   7.7863         76
   7.8235         89
   7.8606         78
   7.8978         97
   7.9349         91
   7.9721         93
   8.0092         98
   8.0464         89
   8.0835         86
   8.1207         88
   8.1579         78
   8.1950        102
   8.2322        102
   8.2693         97
   8.3065        111
   8.3436         94
   8.3808         92
   8.4179         95
   8.4551        110
   8.4922         95
   8.5294         87
   8.5665        113
   8.6037         81
   8.6408         86
   8.6780        101
   8.7151        101
   8.7523         93
   8.7894        111
   8.8266        108
   8.8637         91
   8.9009         98
   8.9380        111
   8.9752        106
   9.0123        119
   9.0495        103
   9.0866         87
   9.1238        113
   9.1609        101
   9.1981        113
   9.2352        111
   9.2724        112
   9.3095        118
   9.3467        118
   9.3838        108
   9.4210        123
   9.4581        119
   9.4953        113
   9.5324        112
   9.5696         99
   9.6067         88
   9.6439        132
   9.6811        103
   9.7182        117
   9.7554        104
   9.7925        129
   9.8297        111
   9.8668        109
   9.9040        129
   9.9411        117
   9.9783        114
  10.0154        105
  10.0526        115
  10.0897        123
  10.1269        124
  10.1640         98
  10.2012        120
  10.2383        129
  10.2755        126
  10.3126        125
  10.3498        120
  10.3869        132
  10.4241        102
  10.4612        124
  10.4984        108
  10.5355        106
  10.5727        114
  10.6098        119
  10.6470        113
  10.6841        111
  10.7213        112
  10.7584        134
  10.7956        107
  10.8327        103
  10.8699        123
  10.9070        120
  10.9442        129
  10.9813        112
  11.0185        127
  11.0556        115
  11.0928        134
  11.1299        143
  11.1671        122
  11.2043        120
  11.2414        110
  11.2786        126
  11.3157        106
  11.3529        131
  11.3900        111
  11.4272        108
  11.4643        123
  11.5015        118
  11.5386        119
  11.5758        109
  11.6129        111
  11.6501        115
  11.6872        116
  11.7244        121
  11.7615        101
  11.7987        111
  11.8358         98
  11.8730        128
  11.9101         93
  11.9473        105
  11.9844        119
  12.0216        105
  12.0587        107
  12.0959        128
  12.1330        106
  12.1702        119
  12.2073         97
  12.2445        100
  12.2816         94
  12.3188        100
  12.3559        106
  12.3931        112
  12.4302        133
  12.4674        108
  12.5045        109
  12.5417        105
  12.5788        107
  12.6160        116
  12.6531        111
  12.6903        121
  12.7274        107
  12.7646        101
  12.8018        102
  12.8389        122
  12.8761        116
  12.9132        105
  12.9504         98
  12.9875        113
  13.0247        120
  13.0618         93
  13.0990         92
  13.1361        106
  13.1733        109
  13.2104        104
  13.2476         94
  13.2847         82
  13.3219         97
  13.3590         96
  13.3962        106
  13.4333         97
  13.4705         86
  13.5076         86
  13.5448        105
  13.5819         76
  13.6191         90
  13.6562         99
  13.6934         96
  13.7305         83
  13.7677         78
  13.8048         71
  13.8420         86
  13.8791         93
  13.9163        104
  13.9534         95
  13.9906         88
  14.0277         97
  14.0649         98
  14.1020         89
  14.1392         85
  14.1763         86
  14.2135         98
  14.2506         83
  14.2878         91
  14.3250         97
  14.3621         83
  14.3993         75
  14.4364         77
  14.4736         85
  14.5107         86
  14.5479         80
  14.5850         96
  14.6222         74
  14.6593         68
  14.6965         82
  14.7336         92
  14.7708         74
  14.8079         71
  14.8451         87
  14.8822        101
  14.9194         81
  14.9565         78
  14.9937        104
  15.0308         87
  15.0680         94
  15.1051         82
  15.1423        100
  15.1794         87
  15.2166         90
  15.2537         69
  15.2909         83
  15.3280         84
  15.3652         77
  15.4023         94
  15.4395         72
  15.4766         72
  15.5138         91
  15.5509         69
  15.5881         82
  15.6252         79
  15.6624         81
  15.6995         78
  15.7367         74
  15.7738         90
  15.8110         72
  15.8482         67
  15.8853         64
  15.9225         96
  15.9596         90
  15.9968         86
  16.0339         84
  16.0711         83
  16.1082         69
  16.1454         81
  16.1825         83
  16.2197         79
  16.2568         81
  16.2940         81
  16.3311         75
  16.3683         92
  16.4054         76
  16.4426         89
  16.4797         72
  16.5169         84
  16.5540         89
  16.5912         72
  16.6283         79
  16.6655         76
  16.7026         87
  16.7398         83
  16.7769         91
  16.8141         87
  16.8512         77
  16.8884         82
  16.9255         76
  16.9627        101
  16.9998         82
  17.0370         91
  17.0741         75
  17.1113         85
  17.1484         78
  17.1856         75
  17.2227         81
  17.2599         84
  17.2970         81
  17.3342         66
  17.3713         71
  17.4085         75
  17.4457         80
  17.4828         80
  17.5200         63
  17.5571         94
  17.5943         74
  17.6314         69
  17.6686         86
  17.7057         69
  17.7429         78
  17.7800         72
  17.8172         87
  17.8543         94
  17.8915         80
  17.9286         80
  17.9658         65
  18.0029         74
  18.0401         66
  18.0772         74
  18.1144         78
  18.1515         93
  18.1887         65
  18.2258         82
  18.2630         89
  18.3001         72
  18.3373         91
  18.3744         95
  18.4116         80
  18.4487         83
  18.4859         75
  18.5230         95
  18.5602         99
  18.5973         71
  18.6345         61
  18.6716         78
  18.7088         69
  18.7459         76
  18.7831         90
  18.8202         65
  18.8574         77
  18.8945         83
  18.9317         85
  18.9689         74
  19.0060        101
  19.0432         88
  19.0803         84
  19.1175         79
  19.1546         86
  19.1918        106
  19.2289         77
  19.2661         85
  19.3032         88
  19.3404         93
  19.3775         73
  19.4147         88
  19.4518         96
  19.4890         84
  19.5261         73
  19.5633         88
  19.6004         71
  19.6376         80
  19.6747         77
  19.7119         82
  19.7490         86
  19.7862         85
  19.8233        103
  19.8605         92
  19.8976         84
  19.9348         91
  19.9719        110
  20.0091         82
  20.0462         86
  20.0834         86
  20.1205         80
  20.1577         87
  20.1948         86
  20.2320         86
  20.2691         83
  20.3063         88
  20.3434         93
  20.3806         94
  20.4177         75
  20.4549         88
  20.4921         86
  20.5292         99
  20.5664        103
  20.6035         78
  20.6407         82
  20.6778        119
  20.7150         87
  20.7521        100
  20.7893         92
  20.8264        109
  20.8636         91
  20.9007         82
  20.9379         86
  20.9750        108
  21.0122         75
  21.0493         88
  21.0865         97
  21.1236        107
  21.1608        116
  21.1979        147
  21.2351        157
  21.2722        130
  21.3094        157
  21.3465        241
  21.3837        239
  21.4208        175
  21.4580        115
  21.4951        113
  21.5323         84
  21.5694         88
  21.6066        111
  21.6437        109
  21.6809         96
  21.7180        110
  21.7552         98
  21.7923         77
  21.8295         82
  21.8666         92
  21.9038         88
  21.9409         94
  21.9781        108
  22.0152        100
  22.0524        106
  22.0896        113
  22.1267        103
  22.1639         91
  22.2010        100
  22.2382        115
  22.2753         97
  22.3125         89
  22.3496        100
  22.3868         89
  22.4239         93
  22.4611         92
  22.4982         80
  22.5354         87
  22.5725         92
  22.6097         94
  22.6468         92
  22.6840         93
  22.7211        103
  22.7583         97
  22.7954        120
  22.8326         88
  22.8697         87
  22.9069         91
  22.9440         95
  22.9812        111
  23.0183         92
  23.0555         94
  23.0926         76
  23.1298         82
  23.1669        103
  23.2041         95
  23.2412        101
  23.2784         95
  23.3155        100
  23.3527        102
  23.3898         91
  23.4270         88
  23.4641         98
  23.5013         94
  23.5384         86
  23.5756         95
  23.6128         85
  23.6499         88
  23.6871         87
  23.7242        126
  23.7614         87
  23.7985         96
  23.8357        128
  23.8728         87
  23.9100         99
  23.9471        111
  23.9843         89
  24.0214        100
  24.0586         94
  24.0957         93
  24.1329        102
  24.1700        102
  24.2072         91
  24.2443        118
  24.2815        116
  24.3186        107
  24.3558        102
  24.3929        100
  24.4301        121
  24.4672         86
  24.5044        102
  24.5415        103
  24.5787        114
  24.6158        113
  24.6530         95
  24.6901         91
  24.7273         85
  24.7644         83
  24.8016        109
  24.8387         71
  24.8759         85
  24.9130        102
  24.9502         94
  24.9873         88
  25.0245         81
  25.0616        116
  25.0988        104
  25.1360         96
  25.1731         89
  25.2103         98
  25.2474        102
  25.2846        107
  25.3217        116
  25.3589         94
  25.3960         99
  25.4332         86
  25.4703        100
  25.5075        102
  25.5446         91
  25.5818        112
  25.6189        117
  25.6561         98
  25.6932         86
  25.7304         88
  25.7675        110
  25.8047         83
  25.8418        109
  25.8790         88
  25.9161         93
  25.9533         94
  25.9904         99
  26.0276         91
  26.0647         80
  26.1019         90
  26.1390        100
  26.1762         85
  26.2133         92
  26.2505         88
  26.2876        108
  26.3248         95
  26.3619        103
  26.3991        100
  26.4362         95
  26.4734         98
  26.5105         90
  26.5477        115
  26.5848         99
  26.6220         71
  26.6591         92
  26.6963         90
  26.7335         77
  26.7706         92
  26.8078         89
  26.8449         85
  26.8821         77
  26.9192         88
  26.9564         92
  26.9935         94
  27.0307         85
  27.0678        104
  27.1050         85
  27.1421         97
  27.1793        117
  27.2164        119
  27.2536        107
  27.2907         75
  27.3279         91
  27.3650         83
  27.4022        109
  27.4393         88
  27.4765         80
  27.5136         80
  27.5508         79
  27.5879         77
  27.6251         89
  27.6622         78
  27.6994         96
  27.7365         85
  27.7737         94
  27.8108         85
  27.8480         98
  27.8851         97
  27.9223         83
  27.9594         83
  27.9966         83
  28.0337         72
  28.0709         95
  28.1080         91
  28.1452         64
  28.1823         79
  28.2195         85
  28.2567         90
  28.2938         82
  28.3310         86
  28.3681         89
  28.4053         72
  28.4424         82
  28.4796         89
  28.5167         82
  28.5539         83
  28.5910         95
  28.6282         94
  28.6653         79
  28.7025         75
  28.7396         82
  28.7768         88
  28.8139         84
  28.8511         78
  28.8882         78
  28.9254         91
  28.9625         77
  28.9997        102
  29.0368         87
  29.0740         79
  29.1111         95
  29.1483         76
  29.1854         82
  29.2226         75
  29.2597         81
  29.2969         76
  29.3340         92
  29.3712         90
  29.4083         99
  29.4455        102
  29.4826         86
  29.5198         85
  29.5569         83
  29.5941         70
  29.6312         72
  29.6684         80
  29.7055         83
  29.7427         88
  29.7799         70
  29.8170         74
  29.8542         70
  29.8913         76
  29.9285         77
  29.9656         79
  30.0028         84
  30.0399         76
  30.0771         85
  30.1142         84
  30.1514         76
  30.1885         70
  30.2257         75
  30.2628         78
  30.3000         84
  30.3371         77
  30.3743        158
  30.4114        151
  30.4486        117
  30.4857        106
  30.5229         93
  30.5600         82
  30.5972         92
  30.6343         77
  30.6715         71
  30.7086         74
  30.7458         57
  30.7829         69
  30.8201         71
  30.8572         77
  30.8944         61
  30.9315         67
  30.9687         75
  31.0058         61
  31.0430         77
  31.0801         57
  31.1173         64
  31.1544         64
  31.1916         61
  31.2287         81
  31.2659         87
  31.3030         69
  31.3402         70
  31.3774         67
  31.4145         66
  31.4517         57
  31.4888         60
  31.5260         50
  31.5631         58
  31.6003         61
  31.6374         65
  31.6746         53
  31.7117         66
  31.7489         67
  31.7860         63
  31.8232         63
  31.8603         57
  31.8975         67
  31.9346         64
  31.9718         61
  32.0089         61
  32.0461         69
  32.0832         67
  32.1204         65
  32.1575         53
  32.1947         61
  32.2318         73
  32.2690         61
  32.3061         69
  32.3433         58
  32.3804         66
  32.4176         74
  32.4547         72
  32.4919         90
  32.5290         78
  32.5662         78
  32.6033         60
  32.6405         73
  32.6776         55
  32.7148         46
  32.7519         70
  32.7891         45
  32.8262         53
  32.8634         67
  32.9006         66
  32.9377         66
  32.9749         56
  33.0120         68
  33.0492         62
  33.0863         47
  33.1235         59
  33.1606         58
  33.1978         57
  33.2349         52
  33.2721         64
  33.3092         50
  33.3464         57
  33.3835         57
  33.4207         58
  33.4578         71
  33.4950         64
  33.5321         45
  33.5693         53
  33.6064         54
  33.6436         48
  33.6807         51
  33.7179         56
  33.7550         44
  33.7922         69
  33.8293         60
  33.8665         47
  33.9036         50
  33.9408         55
  33.9779         57
  34.0151         52
  34.0522         35
  34.0894         49
  34.1265         40
  34.1637         60
  34.2008         49
  34.2380         55
  34.2751         68
  34.3123         64
  34.3494         46
  34.3866         54
  34.4238         50
  34.4609         55
  34.4981         58
  34.5352         65
  34.5724         63
  34.6095         55
  34.6467         64
  34.6838         79
  34.7210         74
  34.7581         73
  34.7953         78
  34.8324         68
  34.8696         61
  34.9067         64
  34.9439         53
  34.9810         58
  35.0182         44
  35.0553         50
  35.0925         60
  35.1296         61
  35.1668         52
  35.2039         62
  35.2411         54
  35.2782         51
  35.3154         54
  35.3525         62
  35.3897         41
  35.4268         44
  35.4640         47
  35.5011         55
  35.5383         42
  35.5754         49
  35.6126         49
  35.6497         41
  35.6869         55
  35.7240         38
  35.7612         43
  35.7983         59
  35.8355         50
  35.8726         56
  35.9098         39
  35.9469         50
  35.9841         50
  36.0213         47
  36.0584         36
  36.0956         45
  36.1327         40
  36.1699         52
  36.2070         43
  36.2442         37
  36.2813         40
  36.3185         45
  36.3556         53
  36.3928         39
  36.4299         51
  36.4671         45
  36.5042         35
  36.5414         53
  36.5785         43
  36.6157         46
  36.6528         44
  36.6900         43
  36.7271         33
  36.7643         40
  36.8014         52
  36.8386         45
  36.8757         51
  36.9129         49
  36.9500         35
  36.9872         42
  37.0243         43
  37.0615         40
  37.0986         43
  37.1358         37
  37.1729         52
  37.2101         41
  37.2472         41
  37.2844         52
  37.3215         51
  37.3587         45
  37.3958         60
  37.4330         74
  37.4701         68
  37.5073         61
  37.5445         61
  37.5816         58
  37.6188         59
  37.6559         36
  37.6931         35
  37.7302         47
  37.7674         43
  37.8045         37
  37.8417         31
  37.8788         45
  37.9160         41
  37.9531         48
  37.9903         52
  38.0274         59
  38.0646         41
  38.1017         41
  38.1389         57
  38.1760         31
  38.2132         53
  38.2503         37
  38.2875         42
  38.3246         38
  38.3618         44
  38.3989         45
  38.4361         49
  38.4732         37
  38.5104         47
  38.5475         33
  38.5847         36
  38.6218         41
  38.6590         38
  38.6961         37
  38.7333         38
  38.7704         44
  38.8076         34
  38.8447         42
  38.8819         49
  38.9190         55
  38.9562         40
  38.9933         41
  39.0305         30
  39.0677         45
  39.1048         36
  39.1420         45
  39.1791         33
  39.2163         39
  39.2534         31
  39.2906         32
  39.3277         27
  39.3649         36
  39.4020         41
  39.4392         36
  39.4763         33
  39.5135         33
  39.5506         39
  39.5878         40
  39.6249         44
  39.6621         36
  39.6992         44
  39.7364         40
  39.7735         36
  39.8107         36
  39.8478         37
  39.8850         32
  39.9221         29
  39.9593         34
  39.9964         44
  40.0336         45
  40.0707         48
  40.1079         32
  40.1450         39
  40.1822         38
  40.2193         39
  40.2565         41
  40.2936         36
  40.3308         41
  40.3679         32
  40.4051         29
  40.4422         35
  40.4794         28
  40.5165         43
  40.5537         59
  40.5908         36
  40.6280         39
  40.6652         37
  40.7023         44
  40.7395         49
  40.7766         39
  40.8138         33
  40.8509         37
  40.8881         34
  40.9252         39
  40.9624         35
  40.9995         48
  41.0367         52
  41.0738         41
  41.1110         40
  41.1481         34
  41.1853         28
  41.2224         43
  41.2596         37
  41.2967         39
  41.3339         42
  41.3710         36
  41.4082         32
  41.4453         35
  41.4825         43
  41.5196         33
  41.5568         35
  41.5939         34
  41.6311         47
  41.6682         25
  41.7054         39
  41.7425         32
  41.7797         28
  41.8168         37
  41.8540         42
  41.8911         35
  41.9283         39
  41.9654         44
  42.0026         35
  42.0397         41
  42.0769         49
  42.1140         39
  42.1512         49
  42.1884         41
  42.2255         26
  42.2627         34
  42.2998         38
  42.3370         27
  42.3741         39
  42.4113         35
  42.4484         36
  42.4856         44
  42.5227         39
  42.5599         34
  42.5970         33
  42.6342         41
  42.6713         38
  42.7085         35
  42.7456         35
  42.7828         33
  42.8199         32
  42.8571         44
  42.8942         40
  42.9314         42
  42.9685         40
  43.0057         35
  43.0428         33
  43.0800         27
  43.1171         40
  43.1543         34
  43.1914         43
  43.2286         59
  43.2657         42
  43.3029         40
  43.3400         47
  43.3772         36
  43.4143         40
  43.4515         44
  43.4886         53
  43.5258         61
  43.5629         43
  43.6001         43
  43.6372         44
  43.6744         37
  43.7116         37
  43.7487         50
  43.7859         34
  43.8230         37
  43.8602         43
  43.8973         34
  43.9345         34
  43.9716         36
  44.0088         36
  44.0459         34
  44.0831         27
  44.1202         39
  44.1574         45
  44.1945         40
  44.2317         35
  44.2688         28
  44.3060         36
  44.3431         31
  44.3803         44
  44.4174         26
  44.4546         34
  44.4917         34
  44.5289         39
  44.5660         42
  44.6032         26
  44.6403         34
  44.6775         41
  44.7146         29
  44.7518         36
  44.7889         31
  44.8261         40
  44.8632         36
  44.9004         36
  44.9375         36
  44.9747         33
  45.0118         40
  45.0490         32
  45.0861         34
  45.1233         34
  45.1604         44
  45.1976         29
  45.2347         36
  45.2719         37
  45.3091         37
  45.3462         43
  45.3834         30
  45.4205         31
  45.4577         32
  45.4948         31
  45.5320         28
  45.5691         35
  45.6063         36
  45.6434         32
  45.6806         34
  45.7177         26
  45.7549         40
  45.7920         25
  45.8292         32
  45.8663         21
  45.9035         32
  45.9406         28
  45.9778         33
  46.0149         34
  46.0521         21
  46.0892         33
  46.1264         38
  46.1635         39
  46.2007         28
  46.2378         40
  46.2750         35
  46.3121         33
  46.3493         33
  46.3864         39
  46.4236         36
  46.4607         28
  46.4979         29
  46.5350         29
  46.5722         28
  46.6093         28
  46.6465         38
  46.6836         32
  46.7208         28
  46.7579         29
  46.7951         21
  46.8323         34
  46.8694         27
  46.9066         23
  46.9437         28
  46.9809         40
  47.0180         39
  47.0552         32
  47.0923         35
  47.1295         43
  47.1666         38
  47.2038         18
  47.2409         31
  47.2781         36
  47.3152         33
  47.3524         25
  47.3895         33
  47.4267         27
  47.4638         29
  47.5010         36
  47.5381         37
  47.5753         26
  47.6124         28
  47.6496         41
  47.6867         32
  47.7239         36
  47.7610         34
  47.7982         40
  47.8353         27
  47.8725         29
  47.9096         36
  47.9468         28
  47.9839         38
  48.0211         26
  48.0582         35
  48.0954         27
  48.1325         26
  48.1697         21
  48.2068         24
  48.2440         27
  48.2811         36
  48.3183         29
  48.3555         30
  48.3926         27
  48.4298         35
  48.4669         25
  48.5041         27
  48.5412         34
  48.5784         33
  48.6155         39
  48.6527         31
  48.6898         22
  48.7270         29
  48.7641         40
  48.8013         30
  48.8384         27
  48.8756         27
  48.9127         39
  48.9499         55
  48.9870         59
  49.0242         37
  49.0613         53
  49.0985         40
  49.1356         38
  49.1728         43
  49.2099         44
  49.2471         36
  49.2842         38
  49.3214         42
  49.3585         33
  49.3957         35
  49.4328         29
  49.4700         27
  49.5071         29
  49.5443         25
  49.5814         37
  49.6186         37
  49.6557         32
  49.6929         33
  49.7300         26
  49.7672         26
  49.8043         47
  49.8415         28
  49.8786         34
  49.9158         33
  49.9530         21
  49.9901         30
  50.0273         32
  50.0644         31
  50.1016         27
  50.1387         29
  50.1759         23
  50.2130         21
  50.2502         33
  50.2873         33
  50.3245         22
  50.3616         23
  50.3988         33
  50.4359         30
  50.4731         22
  50.5102         32
  50.5474         26
  50.5845         30
  50.6217         41
  50.6588         26
  50.6960         22
  50.7331         24
  50.7703         36
  50.8074         33
  50.8446         26
  50.8817         34
  50.9189         33
  50.9560         29
  50.9932         39
  51.0303         28
  51.0675         29
  51.1046         32
  51.1418         32
  51.1789         25
  51.2161         31
  51.2532         29
  51.2904         23
  51.3275         37
  51.3647         23
  51.4018         33
  51.4390         43
  51.4762         21
  51.5133         29
  51.5505         37
  51.5876         40
  51.6248         20
  51.6619         26
  51.6991         25
  51.7362         36
  51.7734         37
  51.8105         31
  51.8477         35
  51.8848         36
  51.9220         19
  51.9591         37
  51.9963         25
  52.0334         30
  52.0706         24
  52.1077         27
  52.1449         22
  52.1820         27
  52.2192         26
  52.2563         34
  52.2935         19
  52.3306         22
  52.3678         27
  52.4049         34
  52.4421         27
  52.4792         30
  52.5164         19
  52.5535         31
  52.5907         25
  52.6278         22
  52.6650         18
  52.7021         30
  52.7393         37
  52.7764         26
  52.8136         29
  52.8507         22
  52.8879         23
  52.9250         30
  52.9622         30
  52.9994         31
  53.0365         26
  53.0737         34
  53.1108         23
  53.1480         29
  53.1851         34
  53.2223         38
  53.2594         25
  53.2966         22
  53.3337         30
  53.3709         22
  53.4080         26
  53.4452         36
  53.4823         25
  53.5195         30
  53.5566         24
  53.5938         25
  53.6309         20
  53.6681         33
  53.7052         28
  53.7424         21
  53.7795         20
  53.8167         33
  53.8538         31
  53.8910         34
  53.9281         35
  53.9653         39
  54.0024         42
  54.0396         24
  54.0767         26
  54.1139         34
  54.1510         38
  54.1882         35
  54.2253         37
  54.2625         34
  54.2996         27
  54.3368         23
  54.3739         26
  54.4111         29
  54.4482         34
  54.4854         23
  54.5225         24
  54.5597         25
  54.5969         25
  54.6340         29
  54.6712         25
  54.7083         32
  54.7455         35
  54.7826         35
  54.8198         24
  54.8569         23
  54.8941         23
  54.9312         26
  54.9684         28
  55.0055         29
  55.0427         30
  55.0798         33
  55.1170         36
  55.1541         24
  55.1913         23
  55.2284         28
  55.2656         32
  55.3027         37
  55.3399         24
  55.3770         29
  55.4142         27
  55.4513         26
  55.4885         29
  55.5256         26
  55.5628         28
  55.5999         24
  55.6371         24
  55.6742         27
  55.7114         26
  55.7485         31
  55.7857         40
  55.8228         23
  55.8600         25
  55.8971         20
  55.9343         26
  55.9714         25
  56.0086         21
  56.0457         27
  56.0829         29
  56.1201         26
  56.1572         24
  56.1944         26
  56.2315         36
  56.2687         30
  56.3058         39
  56.3430         31
  56.3801         18
  56.4173         18
  56.4544         25
  56.4916         25
  56.5287         35
  56.5659         37
  56.6030         30
  56.6402         24
  56.6773         28
  56.7145         22
  56.7516         21
  56.7888         13
  56.8259         15
  56.8631         35
  56.9002         27
  56.9374         20
  56.9745         31
  57.0117         31
  57.0488         24
  57.0860         26
  57.1231         29
  57.1603         33
  57.1974         29
  57.2346         19
  57.2717         32
  57.3089         34
  57.3460         25
  57.3832         33
  57.4203         24
  57.4575         25
  57.4946         34
  57.5318         31
  57.5689         33
  57.6061         20
  57.6433         21
  57.6804         26
  57.7176         16
  57.7547         31
  57.7919         25
  57.8290         38
  57.8662         21
  57.9033         21
  57.9405         27
  57.9776         17
  58.0148         22
  58.0519         21
  58.0891         31
  58.1262         30
  58.1634         35
  58.2005         23
  58.2377         21
  58.2748         28
  58.3120         33
  58.3491         24
  58.3863         23
  58.4234         20
  58.4606         18
  58.4977         28
  58.5349         29
  58.5720         26
  58.6092         26
  58.6463         34
  58.6835         22
  58.7206         25
  58.7578         30
  58.7949         23
  58.8321         19
  58.8692         18
  58.9064         35
  58.9435         29
  58.9807         26
  59.0178         24
  59.0550         27
  59.0921         23
  59.1293         32
  59.1664         30
  59.2036         23
  59.2408         32
  59.2779         26
  59.3151         30
  59.3522         23
  59.3894         25
  59.4265         31
  59.4637         18
  59.5008         30
  59.5380         28
  59.5751         31
  59.6123         28
  59.6494         23
  59.6866         15
  59.7237         23
  59.7609         39
  59.7980         20
  59.8352         29
  59.8723         27
  59.9095         20
  59.9466         37
  59.9838         24
  60.0024         24