File: notebooks/data/xrd_data/ML_20220718_59_SJD_4_LaB6-2min.csv
;,2THETA,
5.0000,122
5.0372,129
5.0743,136
5.1115,123
5.1486,120
5.1858,129
5.2229,124
5.2601,131
5.2972,148
5.3344,108
5.3715,126
5.4087,122
5.4458,119
5.4830,117
5.5201,100
5.5573,123
5.5944,89
5.6316,85
5.6687,109
5.7059,100
5.7430,103
5.7802,115
5.8173,109
5.8545,97
5.8916,96
5.9288,98
5.9659,97
6.0031,94
6.0402,89
6.0774,95
6.1145,95
6.1517,85
6.1888,114
6.2260,96
6.2631,102
6.3003,86
6.3374,97
6.3746,86
6.4117,106
6.4489,79
6.4860,86
6.5232,70
6.5604,92
6.5975,76
6.6347,90
6.6718,80
6.7090,92
6.7461,79
6.7833,78
6.8204,106
6.8576,75
6.8947,62
6.9319,80
6.9690,79
7.0062,99
7.0433,74
7.0805,81
7.1176,83
7.1548,84
7.1919,93
7.2291,88
7.2662,79
7.3034,74
7.3405,81
7.3777,89
7.4148,85
7.4520,82
7.4891,76
7.5263,74
7.5634,102
7.6006,83
7.6377,78
7.6749,83
7.7120,78
7.7492,90
7.7863,72
7.8235,94
7.8606,86
7.8978,90
7.9349,88
7.9721,95
8.0092,83
8.0464,107
8.0835,86
8.1207,102
8.1579,101
8.1950,75
8.2322,103
8.2693,105
8.3065,103
8.3436,108
8.3808,84
8.4179,92
8.4551,69
8.4922,109
8.5294,102
8.5665,84
8.6037,104
8.6408,87
8.6780,96
8.7151,106
8.7523,95
8.7894,97
8.8266,113
8.8637,111
8.9009,78
8.9380,96
8.9752,101
9.0123,109
9.0495,111
9.0866,98
9.1238,87
9.1609,100
9.1981,106
9.2352,106
9.2724,109
9.3095,129
9.3467,106
9.3838,117
9.4210,113
9.4581,110
9.4953,99
9.5324,107
9.5696,124
9.6067,123
9.6439,112
9.6811,118
9.7182,99
9.7554,121
9.7925,117
9.8297,118
9.8668,114
9.9040,145
9.9411,116
9.9783,116
10.0154,118
10.0526,113
10.0897,122
10.1269,129
10.1640,119
10.2012,123
10.2383,119
10.2755,118
10.3126,107
10.3498,107
10.3869,111
10.4241,112
10.4612,112
10.4984,112
10.5355,112
10.5727,133
10.6098,115
10.6470,123
10.6841,114
10.7213,124
10.7584,126
10.7956,109
10.8327,127
10.8699,112
10.9070,131
10.9442,113
10.9813,123
11.0185,132
11.0556,115
11.0928,114
11.1299,99
11.1671,120
11.2043,115
11.2414,118
11.2786,111
11.3157,112
11.3529,122
11.3900,109
11.4272,114
11.4643,110
11.5015,116
11.5386,123
11.5758,111
11.6129,115
11.6501,118
11.6872,124
11.7244,112
11.7615,107
11.7987,121
11.8358,103
11.8730,97
11.9101,101
11.9473,112
11.9844,108
12.0216,114
12.0587,120
12.0959,117
12.1330,102
12.1702,106
12.2073,107
12.2445,123
12.2816,115
12.3188,112
12.3559,113
12.3931,105
12.4302,100
12.4674,113
12.5045,118
12.5417,102
12.5788,111
12.6160,111
12.6531,106
12.6903,106
12.7274,127
12.7646,93
12.8018,96
12.8389,101
12.8761,121
12.9132,105
12.9504,108
12.9875,102
13.0247,117
13.0618,113
13.0990,111
13.1361,105
13.1733,94
13.2104,98
13.2476,82
13.2847,89
13.3219,89
13.3590,83
13.3962,98
13.4333,108
13.4705,99
13.5076,83
13.5448,99
13.5819,98
13.6191,77
13.6562,90
13.6934,89
13.7305,89
13.7677,79
13.8048,83
13.8420,93
13.8791,93
13.9163,104
13.9534,89
13.9906,90
14.0277,109
14.0649,101
14.1020,98
14.1392,94
14.1763,84
14.2135,95
14.2506,88
14.2878,79
14.3250,92
14.3621,99
14.3993,96
14.4364,69
14.4736,73
14.5107,88
14.5479,79
14.5850,80
14.6222,88
14.6593,98
14.6965,89
14.7336,92
14.7708,64
14.8079,106
14.8451,71
14.8822,77
14.9194,95
14.9565,90
14.9937,73
15.0308,73
15.0680,83
15.1051,73
15.1423,73
15.1794,83
15.2166,90
15.2537,90
15.2909,79
15.3280,76
15.3652,79
15.4023,80
15.4395,83
15.4766,78
15.5138,87
15.5509,90
15.5881,90
15.6252,83
15.6624,92
15.6995,79
15.7367,84
15.7738,89
15.8110,84
15.8482,84
15.8853,88
15.9225,84
15.9596,86
15.9968,88
16.0339,78
16.0711,77
16.1082,80
16.1454,79
16.1825,83
16.2197,79
16.2568,69
16.2940,67
16.3311,87
16.3683,80
16.4054,86
16.4426,77
16.4797,79
16.5169,91
16.5540,77
16.5912,75
16.6283,75
16.6655,79
16.7026,91
16.7398,84
16.7769,79
16.8141,85
16.8512,80
16.8884,67
16.9255,111
16.9627,78
16.9998,77
17.0370,79
17.0741,79
17.1113,89
17.1484,60
17.1856,67
17.2227,96
17.2599,72
17.2970,82
17.3342,77
17.3713,81
17.4085,85
17.4457,74
17.4828,81
17.5200,81
17.5571,75
17.5943,74
17.6314,81
17.6686,80
17.7057,72
17.7429,70
17.7800,75
17.8172,59
17.8543,67
17.8915,84
17.9286,91
17.9658,75
18.0029,70
18.0401,93
18.0772,80
18.1144,86
18.1515,84
18.1887,71
18.2258,68
18.2630,90
18.3001,99
18.3373,93
18.3744,83
18.4116,69
18.4487,95
18.4859,80
18.5230,81
18.5602,89
18.5973,70
18.6345,64
18.6716,66
18.7088,68
18.7459,78
18.7831,79
18.8202,68
18.8574,92
18.8945,81
18.9317,100
18.9689,91
19.0060,78
19.0432,84
19.0803,87
19.1175,78
19.1546,92
19.1918,89
19.2289,92
19.2661,80
19.3032,84
19.3404,72
19.3775,97
19.4147,86
19.4518,98
19.4890,92
19.5261,92
19.5633,83
19.6004,92
19.6376,85
19.6747,85
19.7119,88
19.7490,95
19.7862,84
19.8233,75
19.8605,80
19.8976,83
19.9348,78
19.9719,91
20.0091,88
20.0462,88
20.0834,100
20.1205,84
20.1577,95
20.1948,73
20.2320,89
20.2691,97
20.3063,89
20.3434,74
20.3806,96
20.4177,74
20.4549,82
20.4921,87
20.5292,105
20.5664,100
20.6035,104
20.6407,93
20.6778,70
20.7150,105
20.7521,92
20.7893,74
20.8264,81
20.8636,97
20.9007,102
20.9379,83
20.9750,97
21.0122,95
21.0493,93
21.0865,93
21.1236,98
21.1608,106
21.1979,128
21.2351,150
21.2722,147
21.3094,150
21.3465,239
21.3837,209
21.4208,190
21.4580,105
21.4951,107
21.5323,105
21.5694,117
21.6066,84
21.6437,86
21.6809,112
21.7180,78
21.7552,89
21.7923,98
21.8295,83
21.8666,91
21.9038,98
21.9409,99
21.9781,74
22.0152,97
22.0524,108
22.0896,93
22.1267,95
22.1639,104
22.2010,92
22.2382,102
22.2753,96
22.3125,95
22.3496,87
22.3868,101
22.4239,75
22.4611,105
22.4982,106
22.5354,100
22.5725,92
22.6097,100
22.6468,102
22.6840,102
22.7211,102
22.7583,99
22.7954,101
22.8326,108
22.8697,93
22.9069,102
22.9440,106
22.9812,96
23.0183,84
23.0555,89
23.0926,90
23.1298,106
23.1669,91
23.2041,100
23.2412,94
23.2784,102
23.3155,114
23.3527,92
23.3898,100
23.4270,103
23.4641,111
23.5013,84
23.5384,105
23.5756,92
23.6128,88
23.6499,96
23.6871,107
23.7242,99
23.7614,87
23.7985,102
23.8357,88
23.8728,117
23.9100,76
23.9471,98
23.9843,95
24.0214,106
24.0586,93
24.0957,96
24.1329,106
24.1700,101
24.2072,100
24.2443,93
24.2815,112
24.3186,105
24.3558,106
24.3929,108
24.4301,102
24.4672,110
24.5044,101
24.5415,95
24.5787,84
24.6158,83
24.6530,105
24.6901,109
24.7273,103
24.7644,89
24.8016,106
24.8387,104
24.8759,116
24.9130,104
24.9502,105
24.9873,83
25.0245,105
25.0616,117
25.0988,97
25.1360,81
25.1731,95
25.2103,87
25.2474,109
25.2846,97
25.3217,106
25.3589,86
25.3960,129
25.4332,96
25.4703,92
25.5075,100
25.5446,101
25.5818,88
25.6189,118
25.6561,87
25.6932,92
25.7304,91
25.7675,75
25.8047,110
25.8418,121
25.8790,98
25.9161,89
25.9533,87
25.9904,92
26.0276,78
26.0647,93
26.1019,102
26.1390,83
26.1762,86
26.2133,113
26.2505,82
26.2876,87
26.3248,87
26.3619,80
26.3991,103
26.4362,96
26.4734,85
26.5105,96
26.5477,96
26.5848,110
26.6220,94
26.6591,79
26.6963,100
26.7335,85
26.7706,84
26.8078,95
26.8449,77
26.8821,82
26.9192,80
26.9564,87
26.9935,84
27.0307,100
27.0678,94
27.1050,101
27.1421,100
27.1793,98
27.2164,118
27.2536,104
27.2907,108
27.3279,88
27.3650,110
27.4022,90
27.4393,77
27.4765,94
27.5136,97
27.5508,101
27.5879,78
27.6251,89
27.6622,107
27.6994,94
27.7365,97
27.7737,73
27.8108,92
27.8480,81
27.8851,90
27.9223,86
27.9594,103
27.9966,97
28.0337,79
28.0709,88
28.1080,81
28.1452,81
28.1823,77
28.2195,80
28.2567,64
28.2938,90
28.3310,90
28.3681,103
28.4053,90
28.4424,70
28.4796,79
28.5167,73
28.5539,77
28.5910,95
28.6282,78
28.6653,81
28.7025,81
28.7396,81
28.7768,85
28.8139,86
28.8511,83
28.8882,91
28.9254,91
28.9625,73
28.9997,86
29.0368,91
29.0740,76
29.1111,69
29.1483,68
29.1854,81
29.2226,74
29.2597,83
29.2969,87
29.3340,75
29.3712,85
29.4083,76
29.4455,70
29.4826,79
29.5198,86
29.5569,73
29.5941,86
29.6312,76
29.6684,93
29.7055,87
29.7427,65
29.7799,80
29.8170,72
29.8542,74
29.8913,76
29.9285,60
29.9656,82
30.0028,64
30.0399,90
30.0771,73
30.1142,69
30.1514,79
30.1885,70
30.2257,88
30.2628,60
30.3000,92
30.3371,102
30.3743,132
30.4114,129
30.4486,111
30.4857,118
30.5229,86
30.5600,69
30.5972,76
30.6343,64
30.6715,77
30.7086,71
30.7458,70
30.7829,81
30.8201,79
30.8572,80
30.8944,73
30.9315,77
30.9687,75
31.0058,85
31.0430,54
31.0801,70
31.1173,77
31.1544,77
31.1916,59
31.2287,66
31.2659,78
31.3030,65
31.3402,70
31.3774,49
31.4145,69
31.4517,70
31.4888,69
31.5260,80
31.5631,68
31.6003,71
31.6374,73
31.6746,81
31.7117,79
31.7489,78
31.7860,67
31.8232,75
31.8603,70
31.8975,59
31.9346,90
31.9718,53
32.0089,61
32.0461,72
32.0832,66
32.1204,57
32.1575,69
32.1947,66
32.2318,60
32.2690,52
32.3061,69
32.3433,49
32.3804,63
32.4176,61
32.4547,71
32.4919,73
32.5290,77
32.5662,76
32.6033,61
32.6405,53
32.6776,64
32.7148,69
32.7519,64
32.7891,67
32.8262,61
32.8634,53
32.9006,69
32.9377,55
32.9749,50
33.0120,59
33.0492,62
33.0863,70
33.1235,67
33.1606,63
33.1978,54
33.2349,59
33.2721,55
33.3092,55
33.3464,54
33.3835,49
33.4207,54
33.4578,65
33.4950,60
33.5321,56
33.5693,53
33.6064,60
33.6436,60
33.6807,47
33.7179,56
33.7550,55
33.7922,46
33.8293,55
33.8665,62
33.9036,37
33.9408,52
33.9779,54
34.0151,63
34.0522,51
34.0894,55
34.1265,62
34.1637,53
34.2008,51
34.2380,55
34.2751,47
34.3123,62
34.3494,55
34.3866,53
34.4238,48
34.4609,56
34.4981,47
34.5352,49
34.5724,52
34.6095,60
34.6467,58
34.6838,63
34.7210,76
34.7581,67
34.7953,70
34.8324,66
34.8696,62
34.9067,54
34.9439,56
34.9810,50
35.0182,53
35.0553,60
35.0925,54
35.1296,55
35.1668,61
35.2039,61
35.2411,43
35.2782,57
35.3154,51
35.3525,54
35.3897,43
35.4268,63
35.4640,39
35.5011,35
35.5383,40
35.5754,45
35.6126,48
35.6497,46
35.6869,47
35.7240,48
35.7612,51
35.7983,45
35.8355,45
35.8726,51
35.9098,49
35.9469,54
35.9841,44
36.0213,44
36.0584,39
36.0956,44
36.1327,60
36.1699,51
36.2070,47
36.2442,60
36.2813,48
36.3185,52
36.3556,49
36.3928,55
36.4299,39
36.4671,45
36.5042,44
36.5414,48
36.5785,40
36.6157,46
36.6528,50
36.6900,45
36.7271,53
36.7643,40
36.8014,43
36.8386,33
36.8757,33
36.9129,30
36.9500,38
36.9872,38
37.0243,44
37.0615,52
37.0986,48
37.1358,44
37.1729,42
37.2101,50
37.2472,43
37.2844,49
37.3215,59
37.3587,34
37.3958,50
37.4330,71
37.4701,49
37.5073,52
37.5445,65
37.5816,47
37.6188,45
37.6559,55
37.6931,35
37.7302,41
37.7674,54
37.8045,49
37.8417,30
37.8788,28
37.9160,31
37.9531,48
37.9903,31
38.0274,39
38.0646,37
38.1017,42
38.1389,41
38.1760,53
38.2132,38
38.2503,45
38.2875,32
38.3246,39
38.3618,39
38.3989,58
38.4361,48
38.4732,58
38.5104,30
38.5475,53
38.5847,38
38.6218,43
38.6590,39
38.6961,39
38.7333,43
38.7704,34
38.8076,47
38.8447,45
38.8819,38
38.9190,44
38.9562,33
38.9933,48
39.0305,39
39.0677,42
39.1048,46
39.1420,35
39.1791,44
39.2163,48
39.2534,45
39.2906,47
39.3277,42
39.3649,45
39.4020,65
39.4392,38
39.4763,30
39.5135,34
39.5506,33
39.5878,36
39.6249,49
39.6621,42
39.6992,42
39.7364,32
39.7735,43
39.8107,40
39.8478,46
39.8850,29
39.9221,49
39.9593,38
39.9964,36
40.0336,40
40.0707,48
40.1079,48
40.1450,50
40.1822,32
40.2193,40
40.2565,52
40.2936,36
40.3308,38
40.3679,36
40.4051,48
40.4422,33
40.4794,46
40.5165,37
40.5537,44
40.5908,33
40.6280,19
40.6652,41
40.7023,43
40.7395,37
40.7766,38
40.8138,34
40.8509,54
40.8881,45
40.9252,37
40.9624,32
40.9995,30
41.0367,49
41.0738,39
41.1110,47
41.1481,35
41.1853,43
41.2224,27
41.2596,35
41.2967,47
41.3339,46
41.3710,40
41.4082,35
41.4453,43
41.4825,35
41.5196,37
41.5568,31
41.5939,40
41.6311,35
41.6682,38
41.7054,38
41.7425,25
41.7797,38
41.8168,38
41.8540,37
41.8911,42
41.9283,47
41.9654,37
42.0026,51
42.0397,34
42.0769,36
42.1140,46
42.1512,41
42.1884,48
42.2255,36
42.2627,47
42.2998,49
42.3370,40
42.3741,40
42.4113,34
42.4484,40
42.4856,35
42.5227,31
42.5599,48
42.5970,28
42.6342,42
42.6713,36
42.7085,31
42.7456,32
42.7828,35
42.8199,40
42.8571,49
42.8942,39
42.9314,29
42.9685,36
43.0057,43
43.0428,33
43.0800,29
43.1171,35
43.1543,47
43.1914,39
43.2286,42
43.2657,40
43.3029,40
43.3400,56
43.3772,49
43.4143,42
43.4515,44
43.4886,51
43.5258,58
43.5629,28
43.6001,47
43.6372,53
43.6744,39
43.7116,38
43.7487,33
43.7859,35
43.8230,31
43.8602,31
43.8973,39
43.9345,35
43.9716,38
44.0088,35
44.0459,39
44.0831,32
44.1202,31
44.1574,33
44.1945,38
44.2317,43
44.2688,37
44.3060,47
44.3431,33
44.3803,43
44.4174,29
44.4546,43
44.4917,38
44.5289,37
44.5660,32
44.6032,43
44.6403,25
44.6775,42
44.7146,42
44.7518,43
44.7889,42
44.8261,36
44.8632,40
44.9004,34
44.9375,36
44.9747,35
45.0118,37
45.0490,25
45.0861,36
45.1233,29
45.1604,20
45.1976,28
45.2347,44
45.2719,27
45.3091,27
45.3462,41
45.3834,34
45.4205,37
45.4577,39
45.4948,41
45.5320,27
45.5691,30
45.6063,42
45.6434,27
45.6806,38
45.7177,28
45.7549,37
45.7920,36
45.8292,48
45.8663,30
45.9035,25
45.9406,32
45.9778,29
46.0149,38
46.0521,30
46.0892,42
46.1264,37
46.1635,26
46.2007,30
46.2378,34
46.2750,30
46.3121,31
46.3493,39
46.3864,38
46.4236,24
46.4607,34
46.4979,37
46.5350,42
46.5722,37
46.6093,34
46.6465,29
46.6836,30
46.7208,24
46.7579,26
46.7951,36
46.8323,22
46.8694,23
46.9066,41
46.9437,28
46.9809,23
47.0180,35
47.0552,26
47.0923,41
47.1295,23
47.1666,25
47.2038,32
47.2409,41
47.2781,30
47.3152,29
47.3524,35
47.3895,27
47.4267,33
47.4638,31
47.5010,33
47.5381,32
47.5753,33
47.6124,30
47.6496,27
47.6867,33
47.7239,32
47.7610,20
47.7982,38
47.8353,28
47.8725,32
47.9096,28
47.9468,29
47.9839,39
48.0211,34
48.0582,33
48.0954,23
48.1325,40
48.1697,31
48.2068,37
48.2440,44
48.2811,32
48.3183,23
48.3555,32
48.3926,35
48.4298,32
48.4669,28
48.5041,32
48.5412,26
48.5784,28
48.6155,26
48.6527,29
48.6898,33
48.7270,36
48.7641,26
48.8013,25
48.8384,43
48.8756,39
48.9127,41
48.9499,54
48.9870,61
49.0242,46
49.0613,35
49.0985,48
49.1356,22
49.1728,34
49.2099,26
49.2471,29
49.2842,34
49.3214,19
49.3585,32
49.3957,32
49.4328,36
49.4700,23
49.5071,34
49.5443,39
49.5814,24
49.6186,34
49.6557,35
49.6929,36
49.7300,26
49.7672,19
49.8043,35
49.8415,29
49.8786,26
49.9158,36
49.9530,37
49.9901,39
50.0273,35
50.0644,23
50.1016,19
50.1387,31
50.1759,29
50.2130,34
50.2502,26
50.2873,23
50.3245,25
50.3616,40
50.3988,27
50.4359,33
50.4731,25
50.5102,37
50.5474,30
50.5845,36
50.6217,34
50.6588,40
50.6960,25
50.7331,38
50.7703,21
50.8074,20
50.8446,31
50.8817,30
50.9189,29
50.9560,27
50.9932,23
51.0303,25
51.0675,28
51.1046,31
51.1418,30
51.1789,25
51.2161,27
51.2532,27
51.2904,27
51.3275,35
51.3647,34
51.4018,42
51.4390,31
51.4762,31
51.5133,39
51.5505,28
51.5876,22
51.6248,25
51.6619,32
51.6991,24
51.7362,30
51.7734,30
51.8105,25
51.8477,38
51.8848,37
51.9220,22
51.9591,32
51.9963,17
52.0334,32
52.0706,29
52.1077,25
52.1449,22
52.1820,28
52.2192,27
52.2563,23
52.2935,28
52.3306,32
52.3678,28
52.4049,28
52.4421,28
52.4792,30
52.5164,30
52.5535,23
52.5907,19
52.6278,31
52.6650,31
52.7021,33
52.7393,31
52.7764,25
52.8136,31
52.8507,28
52.8879,24
52.9250,25
52.9622,33
52.9994,37
53.0365,25
53.0737,32
53.1108,37
53.1480,23
53.1851,14
53.2223,32
53.2594,23
53.2966,25
53.3337,32
53.3709,32
53.4080,24
53.4452,35
53.4823,26
53.5195,29
53.5566,24
53.5938,42
53.6309,28
53.6681,32
53.7052,37
53.7424,24
53.7795,22
53.8167,24
53.8538,21
53.8910,38
53.9281,29
53.9653,39
54.0024,37
54.0396,34
54.0767,34
54.1139,32
54.1510,31
54.1882,24
54.2253,36
54.2625,32
54.2996,25
54.3368,26
54.3739,27
54.4111,25
54.4482,26
54.4854,30
54.5225,23
54.5597,22
54.5969,31
54.6340,25
54.6712,27
54.7083,30
54.7455,24
54.7826,28
54.8198,28
54.8569,31
54.8941,16
54.9312,25
54.9684,32
55.0055,29
55.0427,33
55.0798,34
55.1170,29
55.1541,24
55.1913,25
55.2284,19
55.2656,23
55.3027,19
55.3399,40
55.3770,34
55.4142,27
55.4513,33
55.4885,19
55.5256,30
55.5628,29
55.5999,34
55.6371,24
55.6742,27
55.7114,52
55.7485,25
55.7857,25
55.8228,30
55.8600,33
55.8971,28
55.9343,23
55.9714,23
56.0086,25
56.0457,27
56.0829,40
56.1201,31
56.1572,30
56.1944,25
56.2315,44
56.2687,26
56.3058,28
56.3430,34
56.3801,27
56.4173,25
56.4544,36
56.4916,19
56.5287,32
56.5659,23
56.6030,22
56.6402,18
56.6773,29
56.7145,31
56.7516,29
56.7888,30
56.8259,32
56.8631,24
56.9002,21
56.9374,33
56.9745,34
57.0117,26
57.0488,26
57.0860,30
57.1231,35
57.1603,27
57.1974,30
57.2346,38
57.2717,24
57.3089,33
57.3460,24
57.3832,38
57.4203,31
57.4575,24
57.4946,27
57.5318,25
57.5689,25
57.6061,28
57.6433,24
57.6804,34
57.7176,22
57.7547,36
57.7919,35
57.8290,24
57.8662,31
57.9033,22
57.9405,25
57.9776,24
58.0148,27
58.0519,26
58.0891,23
58.1262,33
58.1634,20
58.2005,27
58.2377,30
58.2748,29
58.3120,31
58.3491,36
58.3863,24
58.4234,31
58.4606,23
58.4977,22
58.5349,19
58.5720,31
58.6092,31
58.6463,34
58.6835,27
58.7206,17
58.7578,19
58.7949,36
58.8321,25
58.8692,22
58.9064,27
58.9435,35
58.9807,18
59.0178,26
59.0550,35
59.0921,26
59.1293,28
59.1664,24
59.2036,36
59.2408,26
59.2779,35
59.3151,30
59.3522,29
59.3894,27
59.4265,27
59.4637,36
59.5008,27
59.5380,21
59.5751,29
59.6123,30
59.6494,31
59.6866,20
59.7237,24
59.7609,25
59.7980,37
59.8352,18
59.8723,27
59.9095,24
59.9466,27
59.9838,27
60.0024,27