File: notebooks/data/xrd_data/ML_20220720_7_SJD_4_LaB6-1min.csv
;,2THETA,
5.0000,92
5.0372,92
5.0743,88
5.1115,76
5.1486,99
5.1858,86
5.2229,94
5.2601,95
5.2972,91
5.3344,90
5.3715,74
5.4087,67
5.4458,75
5.4830,80
5.5201,71
5.5573,84
5.5944,85
5.6316,71
5.6687,67
5.7059,80
5.7430,59
5.7802,81
5.8173,71
5.8545,80
5.8916,62
5.9288,72
5.9659,86
6.0031,74
6.0402,78
6.0774,58
6.1145,76
6.1517,64
6.1888,77
6.2260,76
6.2631,58
6.3003,64
6.3374,55
6.3746,54
6.4117,72
6.4489,54
6.4860,55
6.5232,62
6.5604,67
6.5975,63
6.6347,68
6.6718,50
6.7090,69
6.7461,46
6.7833,70
6.8204,60
6.8576,57
6.8947,62
6.9319,56
6.9690,68
7.0062,70
7.0433,55
7.0805,70
7.1176,73
7.1548,60
7.1919,46
7.2291,56
7.2662,59
7.3034,63
7.3405,69
7.3777,50
7.4148,50
7.4520,55
7.4891,53
7.5263,52
7.5634,62
7.6006,59
7.6377,59
7.6749,62
7.7120,56
7.7492,69
7.7863,64
7.8235,58
7.8606,64
7.8978,77
7.9349,74
7.9721,76
8.0092,64
8.0464,60
8.0835,48
8.1207,56
8.1579,60
8.1950,62
8.2322,86
8.2693,75
8.3065,68
8.3436,84
8.3808,73
8.4179,64
8.4551,66
8.4922,73
8.5294,67
8.5665,76
8.6037,64
8.6408,72
8.6780,81
8.7151,76
8.7523,78
8.7894,81
8.8266,86
8.8637,87
8.9009,67
8.9380,81
8.9752,72
9.0123,64
9.0495,82
9.0866,74
9.1238,67
9.1609,72
9.1981,80
9.2352,88
9.2724,76
9.3095,86
9.3467,71
9.3838,84
9.4210,79
9.4581,78
9.4953,70
9.5324,79
9.5696,74
9.6067,79
9.6439,91
9.6811,75
9.7182,74
9.7554,86
9.7925,79
9.8297,83
9.8668,95
9.9040,78
9.9411,97
9.9783,77
10.0154,88
10.0526,77
10.0897,80
10.1269,77
10.1640,77
10.2012,74
10.2383,94
10.2755,75
10.3126,66
10.3498,105
10.3869,94
10.4241,88
10.4612,85
10.4984,81
10.5355,95
10.5727,105
10.6098,102
10.6470,101
10.6841,89
10.7213,86
10.7584,103
10.7956,89
10.8327,70
10.8699,74
10.9070,67
10.9442,88
10.9813,93
11.0185,74
11.0556,81
11.0928,83
11.1299,81
11.1671,80
11.2043,69
11.2414,77
11.2786,102
11.3157,81
11.3529,80
11.3900,72
11.4272,89
11.4643,92
11.5015,66
11.5386,88
11.5758,70
11.6129,93
11.6501,74
11.6872,78
11.7244,85
11.7615,83
11.7987,68
11.8358,75
11.8730,82
11.9101,71
11.9473,86
11.9844,77
12.0216,72
12.0587,77
12.0959,78
12.1330,78
12.1702,91
12.2073,91
12.2445,73
12.2816,96
12.3188,78
12.3559,65
12.3931,82
12.4302,69
12.4674,70
12.5045,77
12.5417,55
12.5788,76
12.6160,77
12.6531,91
12.6903,85
12.7274,60
12.7646,66
12.8018,61
12.8389,79
12.8761,83
12.9132,75
12.9504,64
12.9875,86
13.0247,63
13.0618,66
13.0990,78
13.1361,61
13.1733,79
13.2104,71
13.2476,71
13.2847,77
13.3219,63
13.3590,60
13.3962,71
13.4333,70
13.4705,77
13.5076,61
13.5448,80
13.5819,72
13.6191,91
13.6562,87
13.6934,74
13.7305,57
13.7677,60
13.8048,71
13.8420,65
13.8791,69
13.9163,68
13.9534,60
13.9906,69
14.0277,63
14.0649,69
14.1020,52
14.1392,46
14.1763,63
14.2135,64
14.2506,39
14.2878,70
14.3250,73
14.3621,65
14.3993,64
14.4364,72
14.4736,56
14.5107,61
14.5479,58
14.5850,54
14.6222,62
14.6593,48
14.6965,67
14.7336,65
14.7708,72
14.8079,60
14.8451,61
14.8822,49
14.9194,42
14.9565,48
14.9937,73
15.0308,55
15.0680,69
15.1051,75
15.1423,59
15.1794,60
15.2166,59
15.2537,75
15.2909,65
15.3280,58
15.3652,44
15.4023,58
15.4395,69
15.4766,49
15.5138,58
15.5509,61
15.5881,63
15.6252,54
15.6624,64
15.6995,68
15.7367,63
15.7738,62
15.8110,63
15.8482,65
15.8853,61
15.9225,57
15.9596,60
15.9968,48
16.0339,57
16.0711,56
16.1082,51
16.1454,60
16.1825,66
16.2197,64
16.2568,64
16.2940,60
16.3311,56
16.3683,60
16.4054,69
16.4426,51
16.4797,54
16.5169,41
16.5540,65
16.5912,54
16.6283,61
16.6655,55
16.7026,62
16.7398,55
16.7769,73
16.8141,60
16.8512,58
16.8884,63
16.9255,67
16.9627,68
16.9998,71
17.0370,66
17.0741,58
17.1113,57
17.1484,68
17.1856,67
17.2227,49
17.2599,63
17.2970,61
17.3342,61
17.3713,64
17.4085,70
17.4457,63
17.4828,51
17.5200,63
17.5571,61
17.5943,67
17.6314,56
17.6686,53
17.7057,64
17.7429,44
17.7800,57
17.8172,58
17.8543,57
17.8915,64
17.9286,71
17.9658,48
18.0029,51
18.0401,53
18.0772,58
18.1144,58
18.1515,64
18.1887,67
18.2258,58
18.2630,53
18.3001,67
18.3373,49
18.3744,57
18.4116,63
18.4487,50
18.4859,59
18.5230,63
18.5602,51
18.5973,57
18.6345,53
18.6716,72
18.7088,58
18.7459,57
18.7831,56
18.8202,54
18.8574,57
18.8945,68
18.9317,73
18.9689,54
19.0060,55
19.0432,66
19.0803,69
19.1175,73
19.1546,51
19.1918,53
19.2289,60
19.2661,53
19.3032,65
19.3404,50
19.3775,70
19.4147,58
19.4518,77
19.4890,61
19.5261,62
19.5633,68
19.6004,56
19.6376,69
19.6747,49
19.7119,54
19.7490,54
19.7862,60
19.8233,71
19.8605,68
19.8976,65
19.9348,71
19.9719,70
20.0091,75
20.0462,70
20.0834,75
20.1205,72
20.1577,68
20.1948,46
20.2320,65
20.2691,72
20.3063,76
20.3434,77
20.3806,69
20.4177,63
20.4549,69
20.4921,77
20.5292,78
20.5664,67
20.6035,60
20.6407,61
20.6778,56
20.7150,73
20.7521,74
20.7893,73
20.8264,79
20.8636,74
20.9007,70
20.9379,66
20.9750,57
21.0122,68
21.0493,61
21.0865,72
21.1236,75
21.1608,84
21.1979,111
21.2351,121
21.2722,122
21.3094,127
21.3465,199
21.3837,121
21.4208,103
21.4580,91
21.4951,51
21.5323,84
21.5694,75
21.6066,66
21.6437,52
21.6809,84
21.7180,68
21.7552,76
21.7923,60
21.8295,62
21.8666,57
21.9038,82
21.9409,68
21.9781,72
22.0152,71
22.0524,61
22.0896,61
22.1267,51
22.1639,63
22.2010,68
22.2382,80
22.2753,76
22.3125,68
22.3496,70
22.3868,76
22.4239,63
22.4611,71
22.4982,76
22.5354,70
22.5725,69
22.6097,69
22.6468,77
22.6840,70
22.7211,49
22.7583,59
22.7954,81
22.8326,67
22.8697,72
22.9069,72
22.9440,66
22.9812,81
23.0183,58
23.0555,63
23.0926,70
23.1298,62
23.1669,63
23.2041,76
23.2412,72
23.2784,81
23.3155,59
23.3527,65
23.3898,69
23.4270,64
23.4641,76
23.5013,56
23.5384,59
23.5756,91
23.6128,78
23.6499,76
23.6871,71
23.7242,75
23.7614,69
23.7985,58
23.8357,85
23.8728,56
23.9100,85
23.9471,62
23.9843,64
24.0214,52
24.0586,64
24.0957,79
24.1329,69
24.1700,69
24.2072,62
24.2443,70
24.2815,85
24.3186,79
24.3558,66
24.3929,66
24.4301,73
24.4672,72
24.5044,72
24.5415,73
24.5787,64
24.6158,71
24.6530,78
24.6901,67
24.7273,77
24.7644,61
24.8016,85
24.8387,67
24.8759,68
24.9130,70
24.9502,69
24.9873,78
25.0245,70
25.0616,72
25.0988,80
25.1360,84
25.1731,73
25.2103,66
25.2474,56
25.2846,65
25.3217,75
25.3589,72
25.3960,67
25.4332,65
25.4703,77
25.5075,71
25.5446,83
25.5818,79
25.6189,71
25.6561,66
25.6932,64
25.7304,64
25.7675,64
25.8047,80
25.8418,51
25.8790,82
25.9161,75
25.9533,60
25.9904,68
26.0276,74
26.0647,69
26.1019,75
26.1390,61
26.1762,61
26.2133,73
26.2505,72
26.2876,61
26.3248,73
26.3619,75
26.3991,57
26.4362,59
26.4734,67
26.5105,69
26.5477,64
26.5848,70
26.6220,79
26.6591,74
26.6963,82
26.7335,72
26.7706,84
26.8078,66
26.8449,64
26.8821,73
26.9192,64
26.9564,74
26.9935,91
27.0307,54
27.0678,72
27.1050,70
27.1421,70
27.1793,85
27.2164,87
27.2536,83
27.2907,92
27.3279,64
27.3650,63
27.4022,71
27.4393,74
27.4765,58
27.5136,65
27.5508,56
27.5879,54
27.6251,56
27.6622,49
27.6994,69
27.7365,81
27.7737,79
27.8108,45
27.8480,67
27.8851,60
27.9223,71
27.9594,64
27.9966,50
28.0337,75
28.0709,56
28.1080,61
28.1452,66
28.1823,67
28.2195,58
28.2567,65
28.2938,62
28.3310,58
28.3681,69
28.4053,64
28.4424,55
28.4796,60
28.5167,59
28.5539,78
28.5910,76
28.6282,66
28.6653,49
28.7025,66
28.7396,62
28.7768,61
28.8139,62
28.8511,56
28.8882,50
28.9254,52
28.9625,53
28.9997,68
29.0368,55
29.0740,48
29.1111,47
29.1483,58
29.1854,67
29.2226,62
29.2597,55
29.2969,53
29.3340,69
29.3712,74
29.4083,57
29.4455,51
29.4826,61
29.5198,57
29.5569,55
29.5941,48
29.6312,64
29.6684,40
29.7055,55
29.7427,48
29.7799,51
29.8170,72
29.8542,55
29.8913,71
29.9285,65
29.9656,46
30.0028,52
30.0399,62
30.0771,56
30.1142,60
30.1514,47
30.1885,57
30.2257,66
30.2628,65
30.3000,67
30.3371,93
30.3743,128
30.4114,80
30.4486,78
30.4857,61
30.5229,69
30.5600,70
30.5972,60
30.6343,59
30.6715,59
30.7086,61
30.7458,51
30.7829,54
30.8201,50
30.8572,47
30.8944,50
30.9315,62
30.9687,64
31.0058,63
31.0430,51
31.0801,54
31.1173,52
31.1544,53
31.1916,53
31.2287,52
31.2659,52
31.3030,55
31.3402,46
31.3774,63
31.4145,58
31.4517,60
31.4888,59
31.5260,57
31.5631,48
31.6003,53
31.6374,56
31.6746,61
31.7117,64
31.7489,49
31.7860,47
31.8232,61
31.8603,41
31.8975,51
31.9346,58
31.9718,38
32.0089,44
32.0461,52
32.0832,40
32.1204,58
32.1575,58
32.1947,59
32.2318,46
32.2690,51
32.3061,48
32.3433,36
32.3804,47
32.4176,53
32.4547,42
32.4919,46
32.5290,46
32.5662,41
32.6033,47
32.6405,54
32.6776,52
32.7148,48
32.7519,42
32.7891,52
32.8262,53
32.8634,44
32.9006,38
32.9377,44
32.9749,37
33.0120,47
33.0492,49
33.0863,40
33.1235,48
33.1606,67
33.1978,51
33.2349,54
33.2721,32
33.3092,41
33.3464,33
33.3835,40
33.4207,47
33.4578,41
33.4950,46
33.5321,56
33.5693,42
33.6064,44
33.6436,45
33.6807,54
33.7179,41
33.7550,41
33.7922,41
33.8293,35
33.8665,37
33.9036,34
33.9408,36
33.9779,41
34.0151,47
34.0522,52
34.0894,47
34.1265,46
34.1637,50
34.2008,56
34.2380,44
34.2751,37
34.3123,34
34.3494,36
34.3866,33
34.4238,38
34.4609,40
34.4981,41
34.5352,42
34.5724,56
34.6095,49
34.6467,47
34.6838,55
34.7210,44
34.7581,58
34.7953,41
34.8324,62
34.8696,42
34.9067,49
34.9439,42
34.9810,46
35.0182,36
35.0553,29
35.0925,35
35.1296,30
35.1668,58
35.2039,44
35.2411,22
35.2782,43
35.3154,29
35.3525,37
35.3897,38
35.4268,35
35.4640,41
35.5011,25
35.5383,39
35.5754,35
35.6126,47
35.6497,40
35.6869,31
35.7240,36
35.7612,36
35.7983,29
35.8355,30
35.8726,34
35.9098,35
35.9469,45
35.9841,32
36.0213,42
36.0584,36
36.0956,40
36.1327,27
36.1699,31
36.2070,31
36.2442,32
36.2813,31
36.3185,35
36.3556,39
36.3928,38
36.4299,36
36.4671,46
36.5042,29
36.5414,24
36.5785,30
36.6157,39
36.6528,28
36.6900,34
36.7271,35
36.7643,35
36.8014,35
36.8386,42
36.8757,38
36.9129,28
36.9500,26
36.9872,27
37.0243,32
37.0615,27
37.0986,29
37.1358,25
37.1729,32
37.2101,39
37.2472,47
37.2844,36
37.3215,36
37.3587,41
37.3958,59
37.4330,44
37.4701,33
37.5073,41
37.5445,42
37.5816,40
37.6188,34
37.6559,43
37.6931,29
37.7302,40
37.7674,29
37.8045,28
37.8417,23
37.8788,25
37.9160,32
37.9531,26
37.9903,29
38.0274,26
38.0646,27
38.1017,31
38.1389,31
38.1760,31
38.2132,33
38.2503,23
38.2875,37
38.3246,32
38.3618,36
38.3989,36
38.4361,43
38.4732,30
38.5104,33
38.5475,39
38.5847,35
38.6218,26
38.6590,36
38.6961,30
38.7333,34
38.7704,25
38.8076,28
38.8447,33
38.8819,41
38.9190,31
38.9562,30
38.9933,24
39.0305,34
39.0677,26
39.1048,30
39.1420,22
39.1791,28
39.2163,40
39.2534,36
39.2906,28
39.3277,29
39.3649,35
39.4020,34
39.4392,33
39.4763,32
39.5135,21
39.5506,30
39.5878,33
39.6249,23
39.6621,29
39.6992,36
39.7364,30
39.7735,27
39.8107,30
39.8478,22
39.8850,30
39.9221,28
39.9593,26
39.9964,40
40.0336,20
40.0707,34
40.1079,37
40.1450,34
40.1822,33
40.2193,28
40.2565,34
40.2936,21
40.3308,26
40.3679,24
40.4051,17
40.4422,29
40.4794,29
40.5165,26
40.5537,34
40.5908,28
40.6280,22
40.6652,26
40.7023,34
40.7395,31
40.7766,35
40.8138,23
40.8509,39
40.8881,41
40.9252,40
40.9624,33
40.9995,23
41.0367,31
41.0738,19
41.1110,33
41.1481,30
41.1853,33
41.2224,30
41.2596,22
41.2967,20
41.3339,28
41.3710,31
41.4082,28
41.4453,24
41.4825,24
41.5196,30
41.5568,17
41.5939,29
41.6311,30
41.6682,25
41.7054,31
41.7425,31
41.7797,24
41.8168,29
41.8540,29
41.8911,28
41.9283,33
41.9654,20
42.0026,24
42.0397,29
42.0769,38
42.1140,24
42.1512,24
42.1884,22
42.2255,31
42.2627,28
42.2998,37
42.3370,26
42.3741,23
42.4113,34
42.4484,27
42.4856,41
42.5227,23
42.5599,23
42.5970,23
42.6342,26
42.6713,26
42.7085,27
42.7456,21
42.7828,32
42.8199,39
42.8571,20
42.8942,37
42.9314,36
42.9685,29
43.0057,30
43.0428,22
43.0800,29
43.1171,22
43.1543,34
43.1914,30
43.2286,26
43.2657,34
43.3029,28
43.3400,26
43.3772,33
43.4143,36
43.4515,35
43.4886,51
43.5258,39
43.5629,29
43.6001,41
43.6372,39
43.6744,41
43.7116,28
43.7487,31
43.7859,32
43.8230,23
43.8602,27
43.8973,19
43.9345,18
43.9716,31
44.0088,33
44.0459,23
44.0831,30
44.1202,30
44.1574,21
44.1945,24
44.2317,25
44.2688,26
44.3060,38
44.3431,24
44.3803,27
44.4174,33
44.4546,29
44.4917,33
44.5289,24
44.5660,26
44.6032,27
44.6403,18
44.6775,28
44.7146,45
44.7518,27
44.7889,16
44.8261,34
44.8632,19
44.9004,24
44.9375,34
44.9747,30
45.0118,31
45.0490,22
45.0861,19
45.1233,25
45.1604,23
45.1976,29
45.2347,22
45.2719,28
45.3091,20
45.3462,21
45.3834,21
45.4205,10
45.4577,33
45.4948,22
45.5320,34
45.5691,22
45.6063,18
45.6434,24
45.6806,33
45.7177,22
45.7549,25
45.7920,31
45.8292,18
45.8663,29
45.9035,15
45.9406,30
45.9778,29
46.0149,23
46.0521,16
46.0892,17
46.1264,27
46.1635,30
46.2007,25
46.2378,21
46.2750,26
46.3121,25
46.3493,18
46.3864,31
46.4236,21
46.4607,24
46.4979,30
46.5350,21
46.5722,23
46.6093,16
46.6465,24
46.6836,21
46.7208,14
46.7579,26
46.7951,15
46.8323,16
46.8694,22
46.9066,25
46.9437,21
46.9809,22
47.0180,30
47.0552,20
47.0923,22
47.1295,21
47.1666,22
47.2038,17
47.2409,19
47.2781,25
47.3152,22
47.3524,25
47.3895,29
47.4267,19
47.4638,31
47.5010,34
47.5381,16
47.5753,18
47.6124,23
47.6496,20
47.6867,23
47.7239,30
47.7610,27
47.7982,21
47.8353,16
47.8725,32
47.9096,26
47.9468,37
47.9839,29
48.0211,25
48.0582,23
48.0954,21
48.1325,29
48.1697,24
48.2068,18
48.2440,23
48.2811,24
48.3183,22
48.3555,21
48.3926,25
48.4298,21
48.4669,25
48.5041,20
48.5412,19
48.5784,33
48.6155,29
48.6527,23
48.6898,24
48.7270,25
48.7641,21
48.8013,28
48.8384,24
48.8756,33
48.9127,34
48.9499,37
48.9870,33
49.0242,34
49.0613,27
49.0985,25
49.1356,27
49.1728,29
49.2099,18
49.2471,25
49.2842,20
49.3214,24
49.3585,23
49.3957,17
49.4328,23
49.4700,12
49.5071,26
49.5443,22
49.5814,14
49.6186,33
49.6557,34
49.6929,31
49.7300,25
49.7672,16
49.8043,12
49.8415,23
49.8786,23
49.9158,22
49.9530,18
49.9901,22
50.0273,16
50.0644,24
50.1016,23
50.1387,27
50.1759,23
50.2130,19
50.2502,14
50.2873,19
50.3245,27
50.3616,16
50.3988,22
50.4359,23
50.4731,20
50.5102,18
50.5474,24
50.5845,21
50.6217,24
50.6588,21
50.6960,23
50.7331,23
50.7703,24
50.8074,28
50.8446,26
50.8817,24
50.9189,25
50.9560,22
50.9932,20
51.0303,20
51.0675,33
51.1046,24
51.1418,21
51.1789,16
51.2161,25
51.2532,25
51.2904,27
51.3275,18
51.3647,26
51.4018,36
51.4390,25
51.4762,20
51.5133,15
51.5505,25
51.5876,20
51.6248,24
51.6619,35
51.6991,23
51.7362,30
51.7734,27
51.8105,28
51.8477,26
51.8848,20
51.9220,26
51.9591,24
51.9963,13
52.0334,31
52.0706,22
52.1077,22
52.1449,20
52.1820,18
52.2192,23
52.2563,22
52.2935,16
52.3306,28
52.3678,29
52.4049,25
52.4421,15
52.4792,25
52.5164,26
52.5535,21
52.5907,20
52.6278,15
52.6650,14
52.7021,27
52.7393,16
52.7764,21
52.8136,28
52.8507,31
52.8879,21
52.9250,18
52.9622,20
52.9994,26
53.0365,18
53.0737,25
53.1108,21
53.1480,23
53.1851,18
53.2223,23
53.2594,15
53.2966,28
53.3337,24
53.3709,18
53.4080,19
53.4452,21
53.4823,24
53.5195,17
53.5566,25
53.5938,19
53.6309,13
53.6681,23
53.7052,18
53.7424,20
53.7795,22
53.8167,22
53.8538,27
53.8910,29
53.9281,22
53.9653,24
54.0024,33
54.0396,32
54.0767,27
54.1139,23
54.1510,28
54.1882,24
54.2253,21
54.2625,25
54.2996,27
54.3368,26
54.3739,21
54.4111,19
54.4482,19
54.4854,19
54.5225,21
54.5597,11
54.5969,25
54.6340,24
54.6712,19
54.7083,12
54.7455,15
54.7826,16
54.8198,22
54.8569,19
54.8941,26
54.9312,25
54.9684,25
55.0055,20
55.0427,17
55.0798,16
55.1170,9
55.1541,19
55.1913,19
55.2284,21
55.2656,30
55.3027,13
55.3399,15
55.3770,24
55.4142,22
55.4513,22
55.4885,30
55.5256,19
55.5628,19
55.5999,14
55.6371,19
55.6742,20
55.7114,22
55.7485,22
55.7857,26
55.8228,26
55.8600,11
55.8971,12
55.9343,18
55.9714,22
56.0086,23
56.0457,21
56.0829,27
56.1201,25
56.1572,29
56.1944,33
56.2315,31
56.2687,23
56.3058,28
56.3430,22
56.3801,20
56.4173,22
56.4544,28
56.4916,16
56.5287,25
56.5659,22
56.6030,28
56.6402,28
56.6773,25
56.7145,26
56.7516,23
56.7888,25
56.8259,20
56.8631,20
56.9002,21
56.9374,21
56.9745,18
57.0117,23
57.0488,15
57.0860,28
57.1231,28
57.1603,21
57.1974,16
57.2346,18
57.2717,14
57.3089,25
57.3460,22
57.3832,21
57.4203,12
57.4575,13
57.4946,20
57.5318,15
57.5689,20
57.6061,14
57.6433,17
57.6804,27
57.7176,20
57.7547,13
57.7919,16
57.8290,16
57.8662,17
57.9033,16
57.9405,21
57.9776,16
58.0148,21
58.0519,31
58.0891,26
58.1262,21
58.1634,18
58.2005,23
58.2377,22
58.2748,22
58.3120,22
58.3491,22
58.3863,23
58.4234,17
58.4606,30
58.4977,16
58.5349,25
58.5720,13
58.6092,22
58.6463,22
58.6835,21
58.7206,25
58.7578,17
58.7949,23
58.8321,29
58.8692,19
58.9064,17
58.9435,21
58.9807,20
59.0178,22
59.0550,18
59.0921,21
59.1293,17
59.1664,15
59.2036,21
59.2408,20
59.2779,20
59.3151,10
59.3522,14
59.3894,16
59.4265,19
59.4637,19
59.5008,21
59.5380,27
59.5751,23
59.6123,14
59.6494,20
59.6866,17
59.7237,27
59.7609,22
59.7980,23
59.8352,14
59.8723,28
59.9095,9
59.9466,21
59.9838,19
60.0024,23