File: notebooks/data/xrd_data/ML_20220718_26_SJD_4_LaB6-2min.csv
;,2THETA,
5.0000,137
5.0372,128
5.0743,129
5.1115,148
5.1486,139
5.1858,119
5.2229,135
5.2601,119
5.2972,141
5.3344,144
5.3715,110
5.4087,109
5.4458,120
5.4830,124
5.5201,99
5.5573,96
5.5944,115
5.6316,109
5.6687,103
5.7059,109
5.7430,91
5.7802,98
5.8173,96
5.8545,126
5.8916,113
5.9288,110
5.9659,95
6.0031,112
6.0402,92
6.0774,111
6.1145,93
6.1517,95
6.1888,92
6.2260,109
6.2631,79
6.3003,86
6.3374,98
6.3746,103
6.4117,109
6.4489,106
6.4860,109
6.5232,88
6.5604,76
6.5975,104
6.6347,102
6.6718,88
6.7090,98
6.7461,81
6.7833,80
6.8204,90
6.8576,86
6.8947,80
6.9319,80
6.9690,76
7.0062,83
7.0433,58
7.0805,79
7.1176,84
7.1548,96
7.1919,83
7.2291,75
7.2662,75
7.3034,69
7.3405,84
7.3777,93
7.4148,83
7.4520,76
7.4891,79
7.5263,79
7.5634,82
7.6006,81
7.6377,81
7.6749,86
7.7120,91
7.7492,76
7.7863,107
7.8235,99
7.8606,81
7.8978,91
7.9349,91
7.9721,99
8.0092,103
8.0464,99
8.0835,79
8.1207,99
8.1579,91
8.1950,100
8.2322,84
8.2693,101
8.3065,84
8.3436,99
8.3808,115
8.4179,98
8.4551,93
8.4922,108
8.5294,101
8.5665,105
8.6037,91
8.6408,122
8.6780,93
8.7151,115
8.7523,110
8.7894,103
8.8266,109
8.8637,118
8.9009,91
8.9380,111
8.9752,108
9.0123,101
9.0495,105
9.0866,112
9.1238,119
9.1609,109
9.1981,81
9.2352,114
9.2724,121
9.3095,110
9.3467,112
9.3838,107
9.4210,117
9.4581,94
9.4953,109
9.5324,98
9.5696,105
9.6067,101
9.6439,105
9.6811,113
9.7182,105
9.7554,124
9.7925,117
9.8297,131
9.8668,101
9.9040,129
9.9411,108
9.9783,109
10.0154,140
10.0526,125
10.0897,113
10.1269,112
10.1640,118
10.2012,118
10.2383,101
10.2755,118
10.3126,121
10.3498,121
10.3869,114
10.4241,104
10.4612,145
10.4984,124
10.5355,110
10.5727,136
10.6098,122
10.6470,111
10.6841,121
10.7213,124
10.7584,105
10.7956,137
10.8327,118
10.8699,124
10.9070,129
10.9442,103
10.9813,129
11.0185,126
11.0556,132
11.0928,138
11.1299,132
11.1671,116
11.2043,99
11.2414,112
11.2786,121
11.3157,116
11.3529,121
11.3900,106
11.4272,103
11.4643,129
11.5015,102
11.5386,147
11.5758,116
11.6129,131
11.6501,114
11.6872,109
11.7244,124
11.7615,109
11.7987,110
11.8358,114
11.8730,91
11.9101,121
11.9473,107
11.9844,116
12.0216,110
12.0587,108
12.0959,130
12.1330,107
12.1702,119
12.2073,103
12.2445,103
12.2816,115
12.3188,120
12.3559,113
12.3931,113
12.4302,126
12.4674,112
12.5045,107
12.5417,101
12.5788,124
12.6160,98
12.6531,134
12.6903,90
12.7274,100
12.7646,105
12.8018,99
12.8389,104
12.8761,116
12.9132,112
12.9504,107
12.9875,115
13.0247,97
13.0618,112
13.0990,98
13.1361,103
13.1733,99
13.2104,93
13.2476,91
13.2847,98
13.3219,95
13.3590,111
13.3962,91
13.4333,93
13.4705,115
13.5076,92
13.5448,87
13.5819,104
13.6191,97
13.6562,109
13.6934,94
13.7305,102
13.7677,104
13.8048,96
13.8420,95
13.8791,89
13.9163,101
13.9534,96
13.9906,108
14.0277,100
14.0649,94
14.1020,86
14.1392,97
14.1763,76
14.2135,91
14.2506,101
14.2878,89
14.3250,111
14.3621,85
14.3993,69
14.4364,102
14.4736,92
14.5107,105
14.5479,87
14.5850,88
14.6222,96
14.6593,90
14.6965,99
14.7336,74
14.7708,64
14.8079,83
14.8451,90
14.8822,86
14.9194,80
14.9565,90
14.9937,76
15.0308,90
15.0680,69
15.1051,59
15.1423,104
15.1794,81
15.2166,93
15.2537,79
15.2909,86
15.3280,94
15.3652,65
15.4023,86
15.4395,98
15.4766,87
15.5138,87
15.5509,83
15.5881,73
15.6252,76
15.6624,82
15.6995,76
15.7367,83
15.7738,83
15.8110,76
15.8482,70
15.8853,97
15.9225,90
15.9596,86
15.9968,80
16.0339,64
16.0711,97
16.1082,80
16.1454,69
16.1825,68
16.2197,79
16.2568,78
16.2940,86
16.3311,88
16.3683,78
16.4054,68
16.4426,74
16.4797,85
16.5169,76
16.5540,90
16.5912,73
16.6283,88
16.6655,89
16.7026,92
16.7398,74
16.7769,93
16.8141,85
16.8512,84
16.8884,88
16.9255,68
16.9627,73
16.9998,71
17.0370,77
17.0741,60
17.1113,74
17.1484,80
17.1856,70
17.2227,70
17.2599,98
17.2970,88
17.3342,74
17.3713,93
17.4085,90
17.4457,77
17.4828,89
17.5200,80
17.5571,64
17.5943,71
17.6314,75
17.6686,78
17.7057,93
17.7429,87
17.7800,75
17.8172,79
17.8543,81
17.8915,77
17.9286,77
17.9658,103
18.0029,77
18.0401,75
18.0772,77
18.1144,79
18.1515,76
18.1887,93
18.2258,85
18.2630,79
18.3001,88
18.3373,83
18.3744,80
18.4116,83
18.4487,89
18.4859,64
18.5230,82
18.5602,71
18.5973,88
18.6345,74
18.6716,76
18.7088,75
18.7459,88
18.7831,62
18.8202,85
18.8574,87
18.8945,94
18.9317,86
18.9689,81
19.0060,70
19.0432,97
19.0803,67
19.1175,75
19.1546,85
19.1918,97
19.2289,86
19.2661,79
19.3032,88
19.3404,87
19.3775,94
19.4147,101
19.4518,93
19.4890,77
19.5261,90
19.5633,108
19.6004,111
19.6376,76
19.6747,85
19.7119,83
19.7490,87
19.7862,74
19.8233,80
19.8605,83
19.8976,88
19.9348,93
19.9719,109
20.0091,87
20.0462,79
20.0834,88
20.1205,99
20.1577,88
20.1948,83
20.2320,91
20.2691,86
20.3063,105
20.3434,95
20.3806,104
20.4177,87
20.4549,96
20.4921,102
20.5292,98
20.5664,89
20.6035,107
20.6407,104
20.6778,83
20.7150,89
20.7521,89
20.7893,89
20.8264,86
20.8636,116
20.9007,74
20.9379,101
20.9750,104
21.0122,108
21.0493,107
21.0865,116
21.1236,133
21.1608,112
21.1979,148
21.2351,168
21.2722,135
21.3094,159
21.3465,259
21.3837,197
21.4208,185
21.4580,108
21.4951,93
21.5323,107
21.5694,106
21.6066,117
21.6437,87
21.6809,94
21.7180,102
21.7552,98
21.7923,95
21.8295,99
21.8666,93
21.9038,96
21.9409,83
21.9781,97
22.0152,100
22.0524,114
22.0896,88
22.1267,100
22.1639,103
22.2010,92
22.2382,94
22.2753,115
22.3125,106
22.3496,95
22.3868,105
22.4239,94
22.4611,99
22.4982,102
22.5354,104
22.5725,81
22.6097,107
22.6468,99
22.6840,118
22.7211,99
22.7583,111
22.7954,106
22.8326,70
22.8697,93
22.9069,107
22.9440,98
22.9812,98
23.0183,95
23.0555,114
23.0926,95
23.1298,108
23.1669,96
23.2041,90
23.2412,102
23.2784,102
23.3155,94
23.3527,90
23.3898,96
23.4270,107
23.4641,107
23.5013,106
23.5384,93
23.5756,85
23.6128,84
23.6499,108
23.6871,111
23.7242,102
23.7614,107
23.7985,116
23.8357,90
23.8728,95
23.9100,113
23.9471,101
23.9843,94
24.0214,106
24.0586,103
24.0957,89
24.1329,106
24.1700,100
24.2072,98
24.2443,109
24.2815,107
24.3186,93
24.3558,119
24.3929,91
24.4301,98
24.4672,95
24.5044,106
24.5415,99
24.5787,92
24.6158,101
24.6530,89
24.6901,84
24.7273,110
24.7644,96
24.8016,104
24.8387,102
24.8759,89
24.9130,98
24.9502,64
24.9873,94
25.0245,107
25.0616,109
25.0988,83
25.1360,99
25.1731,77
25.2103,98
25.2474,108
25.2846,93
25.3217,119
25.3589,87
25.3960,101
25.4332,96
25.4703,100
25.5075,85
25.5446,98
25.5818,75
25.6189,87
25.6561,109
25.6932,93
25.7304,102
25.7675,93
25.8047,85
25.8418,108
25.8790,96
25.9161,94
25.9533,109
25.9904,111
26.0276,89
26.0647,109
26.1019,94
26.1390,100
26.1762,93
26.2133,89
26.2505,101
26.2876,76
26.3248,85
26.3619,107
26.3991,81
26.4362,96
26.4734,83
26.5105,93
26.5477,81
26.5848,73
26.6220,85
26.6591,91
26.6963,101
26.7335,77
26.7706,79
26.8078,86
26.8449,117
26.8821,93
26.9192,108
26.9564,92
26.9935,102
27.0307,104
27.0678,93
27.1050,86
27.1421,108
27.1793,102
27.2164,113
27.2536,112
27.2907,114
27.3279,107
27.3650,99
27.4022,82
27.4393,95
27.4765,89
27.5136,90
27.5508,92
27.5879,100
27.6251,90
27.6622,86
27.6994,78
27.7365,88
27.7737,93
27.8108,74
27.8480,97
27.8851,94
27.9223,84
27.9594,75
27.9966,71
28.0337,74
28.0709,89
28.1080,75
28.1452,100
28.1823,56
28.2195,78
28.2567,81
28.2938,91
28.3310,77
28.3681,89
28.4053,81
28.4424,81
28.4796,90
28.5167,90
28.5539,70
28.5910,66
28.6282,84
28.6653,88
28.7025,94
28.7396,74
28.7768,97
28.8139,85
28.8511,83
28.8882,76
28.9254,74
28.9625,104
28.9997,81
29.0368,62
29.0740,93
29.1111,67
29.1483,66
29.1854,84
29.2226,79
29.2597,83
29.2969,76
29.3340,70
29.3712,65
29.4083,92
29.4455,68
29.4826,76
29.5198,80
29.5569,69
29.5941,70
29.6312,74
29.6684,80
29.7055,69
29.7427,71
29.7799,74
29.8170,61
29.8542,71
29.8913,71
29.9285,69
29.9656,69
30.0028,96
30.0399,80
30.0771,83
30.1142,69
30.1514,102
30.1885,77
30.2257,61
30.2628,78
30.3000,106
30.3371,101
30.3743,160
30.4114,127
30.4486,115
30.4857,119
30.5229,81
30.5600,80
30.5972,100
30.6343,82
30.6715,82
30.7086,76
30.7458,74
30.7829,75
30.8201,63
30.8572,69
30.8944,79
30.9315,85
30.9687,76
31.0058,72
31.0430,69
31.0801,65
31.1173,65
31.1544,66
31.1916,73
31.2287,61
31.2659,78
31.3030,73
31.3402,70
31.3774,68
31.4145,63
31.4517,66
31.4888,70
31.5260,89
31.5631,71
31.6003,68
31.6374,65
31.6746,60
31.7117,58
31.7489,73
31.7860,66
31.8232,65
31.8603,60
31.8975,60
31.9346,74
31.9718,60
32.0089,64
32.0461,58
32.0832,51
32.1204,60
32.1575,55
32.1947,57
32.2318,75
32.2690,50
32.3061,75
32.3433,65
32.3804,70
32.4176,63
32.4547,97
32.4919,74
32.5290,74
32.5662,69
32.6033,70
32.6405,66
32.6776,76
32.7148,68
32.7519,64
32.7891,65
32.8262,59
32.8634,83
32.9006,75
32.9377,60
32.9749,61
33.0120,57
33.0492,60
33.0863,61
33.1235,60
33.1606,65
33.1978,59
33.2349,48
33.2721,50
33.3092,67
33.3464,67
33.3835,53
33.4207,67
33.4578,53
33.4950,64
33.5321,51
33.5693,56
33.6064,48
33.6436,58
33.6807,51
33.7179,55
33.7550,54
33.7922,49
33.8293,54
33.8665,55
33.9036,67
33.9408,64
33.9779,65
34.0151,54
34.0522,68
34.0894,53
34.1265,63
34.1637,50
34.2008,62
34.2380,71
34.2751,42
34.3123,58
34.3494,44
34.3866,61
34.4238,51
34.4609,74
34.4981,56
34.5352,61
34.5724,57
34.6095,68
34.6467,53
34.6838,58
34.7210,82
34.7581,89
34.7953,69
34.8324,83
34.8696,67
34.9067,74
34.9439,48
34.9810,49
35.0182,67
35.0553,65
35.0925,49
35.1296,56
35.1668,50
35.2039,54
35.2411,60
35.2782,52
35.3154,61
35.3525,59
35.3897,51
35.4268,57
35.4640,51
35.5011,42
35.5383,54
35.5754,55
35.6126,49
35.6497,43
35.6869,55
35.7240,50
35.7612,50
35.7983,43
35.8355,44
35.8726,49
35.9098,43
35.9469,53
35.9841,55
36.0213,58
36.0584,42
36.0956,49
36.1327,43
36.1699,43
36.2070,58
36.2442,50
36.2813,50
36.3185,52
36.3556,54
36.3928,36
36.4299,59
36.4671,35
36.5042,40
36.5414,43
36.5785,61
36.6157,48
36.6528,39
36.6900,36
36.7271,38
36.7643,44
36.8014,58
36.8386,59
36.8757,49
36.9129,48
36.9500,46
36.9872,38
37.0243,37
37.0615,54
37.0986,49
37.1358,63
37.1729,49
37.2101,44
37.2472,44
37.2844,41
37.3215,39
37.3587,52
37.3958,55
37.4330,80
37.4701,55
37.5073,49
37.5445,70
37.5816,57
37.6188,48
37.6559,41
37.6931,51
37.7302,30
37.7674,41
37.8045,44
37.8417,39
37.8788,44
37.9160,41
37.9531,41
37.9903,51
38.0274,46
38.0646,42
38.1017,42
38.1389,53
38.1760,36
38.2132,56
38.2503,41
38.2875,45
38.3246,33
38.3618,49
38.3989,27
38.4361,36
38.4732,42
38.5104,29
38.5475,44
38.5847,37
38.6218,34
38.6590,49
38.6961,43
38.7333,46
38.7704,47
38.8076,37
38.8447,40
38.8819,53
38.9190,47
38.9562,36
38.9933,41
39.0305,39
39.0677,34
39.1048,40
39.1420,37
39.1791,35
39.2163,44
39.2534,43
39.2906,51
39.3277,52
39.3649,35
39.4020,40
39.4392,29
39.4763,36
39.5135,43
39.5506,43
39.5878,42
39.6249,33
39.6621,47
39.6992,30
39.7364,37
39.7735,39
39.8107,49
39.8478,38
39.8850,41
39.9221,47
39.9593,33
39.9964,31
40.0336,35
40.0707,41
40.1079,38
40.1450,32
40.1822,39
40.2193,41
40.2565,40
40.2936,39
40.3308,34
40.3679,47
40.4051,33
40.4422,41
40.4794,41
40.5165,42
40.5537,25
40.5908,45
40.6280,31
40.6652,50
40.7023,40
40.7395,48
40.7766,43
40.8138,38
40.8509,36
40.8881,29
40.9252,39
40.9624,43
40.9995,36
41.0367,38
41.0738,46
41.1110,27
41.1481,37
41.1853,40
41.2224,38
41.2596,37
41.2967,40
41.3339,37
41.3710,38
41.4082,51
41.4453,49
41.4825,43
41.5196,30
41.5568,37
41.5939,39
41.6311,31
41.6682,42
41.7054,41
41.7425,46
41.7797,43
41.8168,37
41.8540,35
41.8911,30
41.9283,33
41.9654,34
42.0026,41
42.0397,40
42.0769,34
42.1140,42
42.1512,35
42.1884,39
42.2255,42
42.2627,29
42.2998,38
42.3370,28
42.3741,43
42.4113,40
42.4484,31
42.4856,33
42.5227,37
42.5599,49
42.5970,22
42.6342,30
42.6713,36
42.7085,38
42.7456,37
42.7828,22
42.8199,37
42.8571,34
42.8942,34
42.9314,47
42.9685,26
43.0057,39
43.0428,35
43.0800,47
43.1171,36
43.1543,45
43.1914,44
43.2286,50
43.2657,49
43.3029,43
43.3400,52
43.3772,45
43.4143,34
43.4515,29
43.4886,57
43.5258,57
43.5629,50
43.6001,45
43.6372,48
43.6744,28
43.7116,32
43.7487,34
43.7859,30
43.8230,34
43.8602,44
43.8973,28
43.9345,41
43.9716,40
44.0088,33
44.0459,31
44.0831,37
44.1202,47
44.1574,35
44.1945,41
44.2317,33
44.2688,35
44.3060,43
44.3431,38
44.3803,33
44.4174,21
44.4546,33
44.4917,40
44.5289,29
44.5660,34
44.6032,42
44.6403,47
44.6775,33
44.7146,41
44.7518,42
44.7889,33
44.8261,35
44.8632,43
44.9004,37
44.9375,34
44.9747,38
45.0118,34
45.0490,38
45.0861,37
45.1233,32
45.1604,40
45.1976,27
45.2347,32
45.2719,43
45.3091,42
45.3462,42
45.3834,39
45.4205,32
45.4577,28
45.4948,26
45.5320,40
45.5691,30
45.6063,27
45.6434,19
45.6806,31
45.7177,32
45.7549,39
45.7920,34
45.8292,33
45.8663,30
45.9035,42
45.9406,35
45.9778,29
46.0149,36
46.0521,33
46.0892,36
46.1264,45
46.1635,38
46.2007,24
46.2378,42
46.2750,30
46.3121,30
46.3493,24
46.3864,27
46.4236,31
46.4607,40
46.4979,23
46.5350,35
46.5722,37
46.6093,31
46.6465,36
46.6836,35
46.7208,24
46.7579,30
46.7951,30
46.8323,30
46.8694,40
46.9066,30
46.9437,34
46.9809,35
47.0180,37
47.0552,33
47.0923,35
47.1295,33
47.1666,31
47.2038,30
47.2409,27
47.2781,41
47.3152,28
47.3524,29
47.3895,29
47.4267,35
47.4638,38
47.5010,32
47.5381,25
47.5753,35
47.6124,36
47.6496,35
47.6867,32
47.7239,21
47.7610,33
47.7982,27
47.8353,19
47.8725,27
47.9096,31
47.9468,35
47.9839,31
48.0211,26
48.0582,40
48.0954,32
48.1325,28
48.1697,28
48.2068,22
48.2440,35
48.2811,29
48.3183,36
48.3555,42
48.3926,29
48.4298,19
48.4669,31
48.5041,49
48.5412,32
48.5784,35
48.6155,21
48.6527,33
48.6898,29
48.7270,39
48.7641,25
48.8013,26
48.8384,37
48.8756,38
48.9127,45
48.9499,62
48.9870,51
49.0242,41
49.0613,39
49.0985,48
49.1356,28
49.1728,30
49.2099,29
49.2471,27
49.2842,22
49.3214,21
49.3585,26
49.3957,36
49.4328,30
49.4700,23
49.5071,31
49.5443,23
49.5814,29
49.6186,25
49.6557,31
49.6929,26
49.7300,27
49.7672,23
49.8043,36
49.8415,22
49.8786,29
49.9158,27
49.9530,28
49.9901,28
50.0273,32
50.0644,35
50.1016,27
50.1387,23
50.1759,29
50.2130,40
50.2502,34
50.2873,25
50.3245,35
50.3616,32
50.3988,35
50.4359,29
50.4731,35
50.5102,29
50.5474,29
50.5845,38
50.6217,23
50.6588,28
50.6960,30
50.7331,27
50.7703,32
50.8074,26
50.8446,26
50.8817,24
50.9189,23
50.9560,30
50.9932,32
51.0303,29
51.0675,22
51.1046,44
51.1418,34
51.1789,31
51.2161,37
51.2532,35
51.2904,24
51.3275,31
51.3647,32
51.4018,38
51.4390,30
51.4762,32
51.5133,31
51.5505,44
51.5876,30
51.6248,32
51.6619,23
51.6991,39
51.7362,29
51.7734,38
51.8105,28
51.8477,24
51.8848,34
51.9220,34
51.9591,33
51.9963,39
52.0334,26
52.0706,31
52.1077,26
52.1449,30
52.1820,32
52.2192,34
52.2563,38
52.2935,31
52.3306,28
52.3678,30
52.4049,30
52.4421,37
52.4792,25
52.5164,38
52.5535,32
52.5907,26
52.6278,31
52.6650,26
52.7021,32
52.7393,32
52.7764,28
52.8136,32
52.8507,34
52.8879,32
52.9250,23
52.9622,25
52.9994,30
53.0365,17
53.0737,30
53.1108,24
53.1480,22
53.1851,25
53.2223,35
53.2594,22
53.2966,35
53.3337,31
53.3709,27
53.4080,21
53.4452,30
53.4823,20
53.5195,31
53.5566,29
53.5938,28
53.6309,26
53.6681,21
53.7052,36
53.7424,25
53.7795,27
53.8167,34
53.8538,27
53.8910,31
53.9281,33
53.9653,35
54.0024,28
54.0396,39
54.0767,30
54.1139,34
54.1510,34
54.1882,30
54.2253,30
54.2625,22
54.2996,26
54.3368,23
54.3739,32
54.4111,29
54.4482,38
54.4854,28
54.5225,27
54.5597,31
54.5969,24
54.6340,26
54.6712,20
54.7083,19
54.7455,26
54.7826,27
54.8198,36
54.8569,30
54.8941,15
54.9312,26
54.9684,22
55.0055,32
55.0427,28
55.0798,26
55.1170,22
55.1541,20
55.1913,31
55.2284,36
55.2656,30
55.3027,24
55.3399,28
55.3770,29
55.4142,27
55.4513,41
55.4885,27
55.5256,25
55.5628,26
55.5999,20
55.6371,26
55.6742,26
55.7114,33
55.7485,25
55.7857,25
55.8228,29
55.8600,24
55.8971,23
55.9343,29
55.9714,32
56.0086,26
56.0457,26
56.0829,23
56.1201,28
56.1572,30
56.1944,34
56.2315,36
56.2687,19
56.3058,22
56.3430,22
56.3801,33
56.4173,32
56.4544,26
56.4916,25
56.5287,29
56.5659,29
56.6030,32
56.6402,36
56.6773,26
56.7145,25
56.7516,31
56.7888,22
56.8259,30
56.8631,31
56.9002,31
56.9374,36
56.9745,26
57.0117,40
57.0488,29
57.0860,24
57.1231,32
57.1603,26
57.1974,34
57.2346,27
57.2717,27
57.3089,28
57.3460,30
57.3832,25
57.4203,33
57.4575,32
57.4946,30
57.5318,22
57.5689,25
57.6061,34
57.6433,34
57.6804,28
57.7176,30
57.7547,42
57.7919,24
57.8290,23
57.8662,25
57.9033,38
57.9405,29
57.9776,30
58.0148,30
58.0519,30
58.0891,18
58.1262,23
58.1634,28
58.2005,26
58.2377,28
58.2748,23
58.3120,17
58.3491,28
58.3863,24
58.4234,17
58.4606,32
58.4977,23
58.5349,29
58.5720,27
58.6092,20
58.6463,28
58.6835,28
58.7206,31
58.7578,21
58.7949,20
58.8321,33
58.8692,24
58.9064,27
58.9435,20
58.9807,28
59.0178,30
59.0550,30
59.0921,34
59.1293,22
59.1664,28
59.2036,21
59.2408,21
59.2779,25
59.3151,28
59.3522,22
59.3894,29
59.4265,30
59.4637,25
59.5008,24
59.5380,34
59.5751,23
59.6123,32
59.6494,25
59.6866,25
59.7237,29
59.7609,37
59.7980,28
59.8352,22
59.8723,21
59.9095,24
59.9466,29
59.9838,18
60.0024,28