File: notebooks/data/xrd_data/ML_20220718_37_SJD_4_LaB6-2min.csv
;,2THETA,
5.0000,140
5.0372,110
5.0743,118
5.1115,104
5.1486,123
5.1858,115
5.2229,124
5.2601,114
5.2972,123
5.3344,117
5.3715,105
5.4087,108
5.4458,107
5.4830,117
5.5201,100
5.5573,112
5.5944,80
5.6316,107
5.6687,110
5.7059,90
5.7430,115
5.7802,87
5.8173,101
5.8545,79
5.8916,95
5.9288,78
5.9659,105
6.0031,93
6.0402,78
6.0774,80
6.1145,83
6.1517,102
6.1888,91
6.2260,97
6.2631,85
6.3003,95
6.3374,80
6.3746,62
6.4117,101
6.4489,92
6.4860,88
6.5232,84
6.5604,91
6.5975,87
6.6347,96
6.6718,86
6.7090,87
6.7461,95
6.7833,87
6.8204,78
6.8576,77
6.8947,87
6.9319,78
6.9690,83
7.0062,70
7.0433,66
7.0805,72
7.1176,70
7.1548,84
7.1919,70
7.2291,71
7.2662,82
7.3034,75
7.3405,84
7.3777,74
7.4148,77
7.4520,90
7.4891,73
7.5263,64
7.5634,100
7.6006,82
7.6377,86
7.6749,79
7.7120,85
7.7492,82
7.7863,88
7.8235,90
7.8606,92
7.8978,72
7.9349,90
7.9721,99
8.0092,80
8.0464,94
8.0835,87
8.1207,94
8.1579,108
8.1950,103
8.2322,95
8.2693,87
8.3065,83
8.3436,101
8.3808,93
8.4179,90
8.4551,103
8.4922,107
8.5294,116
8.5665,100
8.6037,106
8.6408,98
8.6780,96
8.7151,88
8.7523,107
8.7894,96
8.8266,117
8.8637,90
8.9009,104
8.9380,82
8.9752,100
9.0123,102
9.0495,99
9.0866,109
9.1238,96
9.1609,102
9.1981,105
9.2352,109
9.2724,104
9.3095,114
9.3467,108
9.3838,99
9.4210,110
9.4581,119
9.4953,111
9.5324,98
9.5696,136
9.6067,98
9.6439,109
9.6811,99
9.7182,118
9.7554,116
9.7925,133
9.8297,115
9.8668,94
9.9040,132
9.9411,106
9.9783,112
10.0154,103
10.0526,119
10.0897,143
10.1269,134
10.1640,120
10.2012,117
10.2383,135
10.2755,127
10.3126,138
10.3498,126
10.3869,128
10.4241,112
10.4612,112
10.4984,120
10.5355,140
10.5727,123
10.6098,103
10.6470,102
10.6841,117
10.7213,123
10.7584,107
10.7956,133
10.8327,106
10.8699,112
10.9070,129
10.9442,119
10.9813,113
11.0185,113
11.0556,103
11.0928,102
11.1299,112
11.1671,124
11.2043,113
11.2414,116
11.2786,117
11.3157,104
11.3529,111
11.3900,124
11.4272,120
11.4643,109
11.5015,123
11.5386,120
11.5758,106
11.6129,117
11.6501,115
11.6872,94
11.7244,107
11.7615,132
11.7987,96
11.8358,114
11.8730,139
11.9101,104
11.9473,111
11.9844,111
12.0216,117
12.0587,119
12.0959,136
12.1330,104
12.1702,107
12.2073,116
12.2445,114
12.2816,102
12.3188,116
12.3559,88
12.3931,112
12.4302,103
12.4674,102
12.5045,109
12.5417,102
12.5788,114
12.6160,90
12.6531,112
12.6903,86
12.7274,92
12.7646,95
12.8018,107
12.8389,112
12.8761,94
12.9132,100
12.9504,106
12.9875,98
13.0247,109
13.0618,88
13.0990,98
13.1361,96
13.1733,83
13.2104,103
13.2476,100
13.2847,86
13.3219,89
13.3590,97
13.3962,108
13.4333,83
13.4705,85
13.5076,94
13.5448,91
13.5819,96
13.6191,106
13.6562,98
13.6934,90
13.7305,83
13.7677,103
13.8048,86
13.8420,80
13.8791,96
13.9163,81
13.9534,86
13.9906,90
14.0277,103
14.0649,86
14.1020,94
14.1392,66
14.1763,68
14.2135,82
14.2506,93
14.2878,101
14.3250,87
14.3621,73
14.3993,105
14.4364,91
14.4736,89
14.5107,99
14.5479,88
14.5850,70
14.6222,77
14.6593,92
14.6965,69
14.7336,85
14.7708,68
14.8079,79
14.8451,78
14.8822,80
14.9194,55
14.9565,76
14.9937,103
15.0308,67
15.0680,69
15.1051,84
15.1423,89
15.1794,83
15.2166,86
15.2537,64
15.2909,91
15.3280,91
15.3652,79
15.4023,90
15.4395,83
15.4766,78
15.5138,87
15.5509,75
15.5881,67
15.6252,82
15.6624,81
15.6995,65
15.7367,96
15.7738,78
15.8110,80
15.8482,80
15.8853,77
15.9225,77
15.9596,72
15.9968,87
16.0339,65
16.0711,71
16.1082,78
16.1454,91
16.1825,84
16.2197,68
16.2568,78
16.2940,71
16.3311,71
16.3683,60
16.4054,76
16.4426,81
16.4797,87
16.5169,64
16.5540,86
16.5912,82
16.6283,68
16.6655,74
16.7026,95
16.7398,74
16.7769,68
16.8141,87
16.8512,86
16.8884,83
16.9255,85
16.9627,83
16.9998,98
17.0370,84
17.0741,75
17.1113,84
17.1484,70
17.1856,72
17.2227,88
17.2599,82
17.2970,94
17.3342,63
17.3713,77
17.4085,80
17.4457,65
17.4828,93
17.5200,75
17.5571,84
17.5943,58
17.6314,77
17.6686,78
17.7057,62
17.7429,64
17.7800,86
17.8172,74
17.8543,80
17.8915,93
17.9286,79
17.9658,94
18.0029,94
18.0401,70
18.0772,75
18.1144,62
18.1515,93
18.1887,77
18.2258,72
18.2630,76
18.3001,82
18.3373,75
18.3744,64
18.4116,97
18.4487,77
18.4859,83
18.5230,69
18.5602,65
18.5973,106
18.6345,77
18.6716,88
18.7088,80
18.7459,80
18.7831,66
18.8202,88
18.8574,94
18.8945,87
18.9317,84
18.9689,80
19.0060,73
19.0432,72
19.0803,72
19.1175,88
19.1546,86
19.1918,96
19.2289,71
19.2661,97
19.3032,93
19.3404,77
19.3775,87
19.4147,79
19.4518,80
19.4890,82
19.5261,95
19.5633,87
19.6004,76
19.6376,72
19.6747,100
19.7119,85
19.7490,83
19.7862,103
19.8233,86
19.8605,72
19.8976,92
19.9348,98
19.9719,71
20.0091,90
20.0462,80
20.0834,104
20.1205,86
20.1577,86
20.1948,91
20.2320,87
20.2691,90
20.3063,90
20.3434,87
20.3806,90
20.4177,72
20.4549,82
20.4921,85
20.5292,75
20.5664,90
20.6035,98
20.6407,93
20.6778,86
20.7150,67
20.7521,86
20.7893,119
20.8264,93
20.8636,80
20.9007,91
20.9379,104
20.9750,98
21.0122,77
21.0493,111
21.0865,94
21.1236,102
21.1608,117
21.1979,132
21.2351,156
21.2722,135
21.3094,172
21.3465,227
21.3837,186
21.4208,176
21.4580,95
21.4951,117
21.5323,117
21.5694,117
21.6066,98
21.6437,85
21.6809,94
21.7180,85
21.7552,84
21.7923,85
21.8295,71
21.8666,84
21.9038,97
21.9409,79
21.9781,84
22.0152,105
22.0524,93
22.0896,92
22.1267,75
22.1639,90
22.2010,83
22.2382,78
22.2753,86
22.3125,88
22.3496,84
22.3868,101
22.4239,93
22.4611,84
22.4982,86
22.5354,103
22.5725,94
22.6097,106
22.6468,82
22.6840,105
22.7211,91
22.7583,85
22.7954,100
22.8326,100
22.8697,71
22.9069,94
22.9440,83
22.9812,98
23.0183,105
23.0555,100
23.0926,93
23.1298,105
23.1669,103
23.2041,104
23.2412,115
23.2784,86
23.3155,106
23.3527,103
23.3898,105
23.4270,113
23.4641,97
23.5013,97
23.5384,76
23.5756,126
23.6128,97
23.6499,108
23.6871,85
23.7242,79
23.7614,98
23.7985,93
23.8357,123
23.8728,112
23.9100,87
23.9471,99
23.9843,93
24.0214,113
24.0586,104
24.0957,85
24.1329,102
24.1700,85
24.2072,86
24.2443,109
24.2815,97
24.3186,108
24.3558,117
24.3929,108
24.4301,82
24.4672,101
24.5044,106
24.5415,92
24.5787,102
24.6158,95
24.6530,101
24.6901,112
24.7273,71
24.7644,102
24.8016,83
24.8387,111
24.8759,80
24.9130,87
24.9502,99
24.9873,99
25.0245,93
25.0616,88
25.0988,90
25.1360,99
25.1731,103
25.2103,104
25.2474,101
25.2846,90
25.3217,95
25.3589,107
25.3960,82
25.4332,92
25.4703,98
25.5075,90
25.5446,104
25.5818,97
25.6189,90
25.6561,100
25.6932,108
25.7304,103
25.7675,104
25.8047,95
25.8418,98
25.8790,103
25.9161,84
25.9533,86
25.9904,98
26.0276,82
26.0647,74
26.1019,81
26.1390,87
26.1762,94
26.2133,94
26.2505,88
26.2876,75
26.3248,96
26.3619,80
26.3991,103
26.4362,101
26.4734,98
26.5105,91
26.5477,100
26.5848,83
26.6220,99
26.6591,81
26.6963,85
26.7335,86
26.7706,104
26.8078,95
26.8449,96
26.8821,81
26.9192,87
26.9564,88
26.9935,85
27.0307,91
27.0678,94
27.1050,86
27.1421,99
27.1793,99
27.2164,118
27.2536,113
27.2907,104
27.3279,91
27.3650,105
27.4022,80
27.4393,81
27.4765,89
27.5136,101
27.5508,72
27.5879,86
27.6251,90
27.6622,71
27.6994,79
27.7365,67
27.7737,91
27.8108,86
27.8480,82
27.8851,91
27.9223,89
27.9594,62
27.9966,91
28.0337,77
28.0709,77
28.1080,87
28.1452,71
28.1823,73
28.2195,104
28.2567,79
28.2938,87
28.3310,84
28.3681,91
28.4053,76
28.4424,86
28.4796,78
28.5167,81
28.5539,95
28.5910,70
28.6282,95
28.6653,94
28.7025,84
28.7396,81
28.7768,85
28.8139,77
28.8511,81
28.8882,93
28.9254,85
28.9625,78
28.9997,75
29.0368,74
29.0740,95
29.1111,77
29.1483,80
29.1854,70
29.2226,56
29.2597,78
29.2969,83
29.3340,65
29.3712,78
29.4083,65
29.4455,86
29.4826,88
29.5198,83
29.5569,87
29.5941,61
29.6312,66
29.6684,72
29.7055,87
29.7427,86
29.7799,81
29.8170,84
29.8542,81
29.8913,70
29.9285,76
29.9656,73
30.0028,74
30.0399,79
30.0771,78
30.1142,78
30.1514,64
30.1885,78
30.2257,79
30.2628,83
30.3000,79
30.3371,100
30.3743,158
30.4114,111
30.4486,108
30.4857,118
30.5229,83
30.5600,81
30.5972,76
30.6343,86
30.6715,71
30.7086,68
30.7458,96
30.7829,86
30.8201,73
30.8572,80
30.8944,68
30.9315,72
30.9687,53
31.0058,75
31.0430,69
31.0801,74
31.1173,69
31.1544,75
31.1916,55
31.2287,65
31.2659,58
31.3030,87
31.3402,87
31.3774,71
31.4145,75
31.4517,84
31.4888,70
31.5260,65
31.5631,60
31.6003,65
31.6374,67
31.6746,75
31.7117,63
31.7489,77
31.7860,67
31.8232,74
31.8603,63
31.8975,45
31.9346,79
31.9718,68
32.0089,75
32.0461,58
32.0832,56
32.1204,58
32.1575,59
32.1947,46
32.2318,73
32.2690,69
32.3061,67
32.3433,63
32.3804,83
32.4176,64
32.4547,80
32.4919,76
32.5290,56
32.5662,84
32.6033,61
32.6405,73
32.6776,60
32.7148,70
32.7519,72
32.7891,64
32.8262,52
32.8634,60
32.9006,65
32.9377,72
32.9749,45
33.0120,52
33.0492,66
33.0863,63
33.1235,53
33.1606,54
33.1978,57
33.2349,63
33.2721,69
33.3092,60
33.3464,63
33.3835,68
33.4207,56
33.4578,58
33.4950,52
33.5321,45
33.5693,48
33.6064,63
33.6436,59
33.6807,58
33.7179,41
33.7550,57
33.7922,47
33.8293,55
33.8665,53
33.9036,65
33.9408,44
33.9779,58
34.0151,60
34.0522,53
34.0894,71
34.1265,49
34.1637,65
34.2008,56
34.2380,39
34.2751,57
34.3123,47
34.3494,69
34.3866,42
34.4238,67
34.4609,46
34.4981,54
34.5352,55
34.5724,51
34.6095,60
34.6467,57
34.6838,64
34.7210,57
34.7581,71
34.7953,70
34.8324,54
34.8696,70
34.9067,64
34.9439,52
34.9810,51
35.0182,55
35.0553,62
35.0925,60
35.1296,51
35.1668,54
35.2039,52
35.2411,57
35.2782,36
35.3154,64
35.3525,44
35.3897,44
35.4268,53
35.4640,48
35.5011,47
35.5383,50
35.5754,41
35.6126,43
35.6497,46
35.6869,50
35.7240,48
35.7612,46
35.7983,52
35.8355,47
35.8726,46
35.9098,47
35.9469,37
35.9841,38
36.0213,61
36.0584,53
36.0956,49
36.1327,48
36.1699,40
36.2070,62
36.2442,42
36.2813,51
36.3185,51
36.3556,50
36.3928,51
36.4299,40
36.4671,56
36.5042,56
36.5414,48
36.5785,44
36.6157,45
36.6528,50
36.6900,31
36.7271,48
36.7643,50
36.8014,41
36.8386,42
36.8757,30
36.9129,42
36.9500,41
36.9872,49
37.0243,38
37.0615,47
37.0986,40
37.1358,41
37.1729,51
37.2101,49
37.2472,43
37.2844,54
37.3215,50
37.3587,47
37.3958,46
37.4330,88
37.4701,64
37.5073,49
37.5445,44
37.5816,44
37.6188,39
37.6559,42
37.6931,47
37.7302,47
37.7674,40
37.8045,47
37.8417,30
37.8788,46
37.9160,38
37.9531,47
37.9903,46
38.0274,36
38.0646,44
38.1017,47
38.1389,43
38.1760,41
38.2132,51
38.2503,41
38.2875,51
38.3246,33
38.3618,44
38.3989,43
38.4361,41
38.4732,31
38.5104,36
38.5475,37
38.5847,41
38.6218,45
38.6590,43
38.6961,50
38.7333,30
38.7704,48
38.8076,44
38.8447,29
38.8819,38
38.9190,43
38.9562,51
38.9933,38
39.0305,31
39.0677,40
39.1048,37
39.1420,44
39.1791,34
39.2163,41
39.2534,38
39.2906,29
39.3277,36
39.3649,39
39.4020,38
39.4392,41
39.4763,39
39.5135,37
39.5506,36
39.5878,34
39.6249,41
39.6621,35
39.6992,37
39.7364,33
39.7735,31
39.8107,27
39.8478,38
39.8850,40
39.9221,32
39.9593,49
39.9964,37
40.0336,37
40.0707,44
40.1079,35
40.1450,36
40.1822,39
40.2193,47
40.2565,32
40.2936,38
40.3308,42
40.3679,47
40.4051,30
40.4422,34
40.4794,42
40.5165,35
40.5537,32
40.5908,47
40.6280,41
40.6652,46
40.7023,31
40.7395,45
40.7766,32
40.8138,49
40.8509,31
40.8881,42
40.9252,44
40.9624,39
40.9995,32
41.0367,38
41.0738,34
41.1110,35
41.1481,32
41.1853,37
41.2224,37
41.2596,40
41.2967,47
41.3339,35
41.3710,33
41.4082,32
41.4453,38
41.4825,48
41.5196,39
41.5568,40
41.5939,31
41.6311,46
41.6682,25
41.7054,43
41.7425,36
41.7797,37
41.8168,30
41.8540,40
41.8911,39
41.9283,38
41.9654,31
42.0026,41
42.0397,40
42.0769,35
42.1140,32
42.1512,41
42.1884,38
42.2255,35
42.2627,34
42.2998,31
42.3370,35
42.3741,29
42.4113,32
42.4484,33
42.4856,44
42.5227,41
42.5599,34
42.5970,34
42.6342,39
42.6713,30
42.7085,33
42.7456,35
42.7828,33
42.8199,41
42.8571,41
42.8942,37
42.9314,35
42.9685,33
43.0057,30
43.0428,38
43.0800,41
43.1171,41
43.1543,44
43.1914,28
43.2286,43
43.2657,39
43.3029,41
43.3400,40
43.3772,33
43.4143,37
43.4515,45
43.4886,58
43.5258,69
43.5629,43
43.6001,48
43.6372,39
43.6744,39
43.7116,43
43.7487,36
43.7859,29
43.8230,36
43.8602,42
43.8973,28
43.9345,41
43.9716,32
44.0088,26
44.0459,39
44.0831,28
44.1202,33
44.1574,40
44.1945,36
44.2317,31
44.2688,32
44.3060,46
44.3431,40
44.3803,35
44.4174,36
44.4546,30
44.4917,35
44.5289,35
44.5660,54
44.6032,34
44.6403,36
44.6775,32
44.7146,28
44.7518,32
44.7889,42
44.8261,35
44.8632,35
44.9004,32
44.9375,32
44.9747,34
45.0118,38
45.0490,38
45.0861,30
45.1233,34
45.1604,28
45.1976,52
45.2347,30
45.2719,30
45.3091,26
45.3462,31
45.3834,39
45.4205,42
45.4577,32
45.4948,33
45.5320,35
45.5691,34
45.6063,27
45.6434,30
45.6806,30
45.7177,53
45.7549,33
45.7920,48
45.8292,24
45.8663,28
45.9035,30
45.9406,30
45.9778,32
46.0149,23
46.0521,30
46.0892,39
46.1264,34
46.1635,33
46.2007,31
46.2378,33
46.2750,29
46.3121,22
46.3493,36
46.3864,28
46.4236,26
46.4607,32
46.4979,31
46.5350,36
46.5722,32
46.6093,25
46.6465,20
46.6836,23
46.7208,34
46.7579,36
46.7951,25
46.8323,23
46.8694,30
46.9066,32
46.9437,26
46.9809,28
47.0180,22
47.0552,25
47.0923,30
47.1295,35
47.1666,23
47.2038,25
47.2409,34
47.2781,24
47.3152,23
47.3524,27
47.3895,34
47.4267,31
47.4638,36
47.5010,32
47.5381,26
47.5753,27
47.6124,34
47.6496,30
47.6867,21
47.7239,31
47.7610,27
47.7982,25
47.8353,24
47.8725,22
47.9096,32
47.9468,30
47.9839,25
48.0211,26
48.0582,27
48.0954,31
48.1325,32
48.1697,29
48.2068,33
48.2440,28
48.2811,26
48.3183,23
48.3555,28
48.3926,27
48.4298,33
48.4669,26
48.5041,32
48.5412,23
48.5784,44
48.6155,42
48.6527,30
48.6898,27
48.7270,26
48.7641,26
48.8013,26
48.8384,31
48.8756,29
48.9127,51
48.9499,41
48.9870,47
49.0242,40
49.0613,33
49.0985,42
49.1356,32
49.1728,41
49.2099,31
49.2471,32
49.2842,33
49.3214,28
49.3585,19
49.3957,22
49.4328,30
49.4700,24
49.5071,38
49.5443,26
49.5814,27
49.6186,22
49.6557,25
49.6929,27
49.7300,31
49.7672,25
49.8043,27
49.8415,20
49.8786,32
49.9158,24
49.9530,25
49.9901,35
50.0273,37
50.0644,25
50.1016,26
50.1387,28
50.1759,34
50.2130,35
50.2502,37
50.2873,36
50.3245,32
50.3616,33
50.3988,27
50.4359,23
50.4731,31
50.5102,32
50.5474,29
50.5845,24
50.6217,25
50.6588,24
50.6960,26
50.7331,26
50.7703,30
50.8074,32
50.8446,29
50.8817,24
50.9189,28
50.9560,19
50.9932,20
51.0303,24
51.0675,23
51.1046,29
51.1418,31
51.1789,26
51.2161,25
51.2532,17
51.2904,29
51.3275,29
51.3647,35
51.4018,30
51.4390,42
51.4762,34
51.5133,27
51.5505,26
51.5876,36
51.6248,26
51.6619,34
51.6991,38
51.7362,37
51.7734,32
51.8105,33
51.8477,24
51.8848,25
51.9220,36
51.9591,25
51.9963,27
52.0334,34
52.0706,24
52.1077,36
52.1449,32
52.1820,34
52.2192,30
52.2563,28
52.2935,37
52.3306,29
52.3678,28
52.4049,35
52.4421,28
52.4792,26
52.5164,29
52.5535,31
52.5907,29
52.6278,30
52.6650,30
52.7021,34
52.7393,28
52.7764,23
52.8136,27
52.8507,26
52.8879,39
52.9250,28
52.9622,29
52.9994,35
53.0365,38
53.0737,26
53.1108,28
53.1480,34
53.1851,32
53.2223,31
53.2594,24
53.2966,35
53.3337,31
53.3709,29
53.4080,31
53.4452,24
53.4823,24
53.5195,32
53.5566,36
53.5938,23
53.6309,25
53.6681,24
53.7052,28
53.7424,22
53.7795,27
53.8167,42
53.8538,37
53.8910,32
53.9281,23
53.9653,39
54.0024,46
54.0396,21
54.0767,31
54.1139,28
54.1510,30
54.1882,35
54.2253,24
54.2625,27
54.2996,23
54.3368,29
54.3739,26
54.4111,26
54.4482,27
54.4854,30
54.5225,25
54.5597,31
54.5969,15
54.6340,28
54.6712,31
54.7083,26
54.7455,26
54.7826,21
54.8198,21
54.8569,38
54.8941,34
54.9312,36
54.9684,26
55.0055,33
55.0427,21
55.0798,31
55.1170,21
55.1541,21
55.1913,24
55.2284,29
55.2656,18
55.3027,24
55.3399,21
55.3770,34
55.4142,43
55.4513,37
55.4885,28
55.5256,21
55.5628,30
55.5999,24
55.6371,35
55.6742,35
55.7114,30
55.7485,34
55.7857,27
55.8228,32
55.8600,27
55.8971,31
55.9343,26
55.9714,20
56.0086,34
56.0457,21
56.0829,29
56.1201,28
56.1572,27
56.1944,24
56.2315,38
56.2687,34
56.3058,26
56.3430,38
56.3801,30
56.4173,25
56.4544,35
56.4916,33
56.5287,34
56.5659,25
56.6030,33
56.6402,32
56.6773,30
56.7145,31
56.7516,22
56.7888,33
56.8259,36
56.8631,31
56.9002,25
56.9374,24
56.9745,21
57.0117,31
57.0488,28
57.0860,31
57.1231,30
57.1603,34
57.1974,21
57.2346,35
57.2717,22
57.3089,28
57.3460,29
57.3832,24
57.4203,37
57.4575,27
57.4946,20
57.5318,25
57.5689,39
57.6061,29
57.6433,26
57.6804,27
57.7176,18
57.7547,30
57.7919,20
57.8290,26
57.8662,30
57.9033,32
57.9405,29
57.9776,20
58.0148,24
58.0519,29
58.0891,29
58.1262,26
58.1634,18
58.2005,30
58.2377,25
58.2748,28
58.3120,28
58.3491,25
58.3863,21
58.4234,29
58.4606,25
58.4977,23
58.5349,14
58.5720,21
58.6092,22
58.6463,25
58.6835,26
58.7206,24
58.7578,23
58.7949,26
58.8321,27
58.8692,34
58.9064,26
58.9435,33
58.9807,23
59.0178,35
59.0550,29
59.0921,22
59.1293,31
59.1664,35
59.2036,20
59.2408,25
59.2779,32
59.3151,23
59.3522,28
59.3894,27
59.4265,27
59.4637,26
59.5008,30
59.5380,32
59.5751,33
59.6123,30
59.6494,32
59.6866,25
59.7237,22
59.7609,24
59.7980,23
59.8352,19
59.8723,28
59.9095,30
59.9466,26
59.9838,21
60.0024,36