File: notebooks/data/xrd_data/ML_20220721_29_SJD_4_LaB6-4min.csv
;,2THETA,
5.0000,285
5.0372,253
5.0743,255
5.1115,250
5.1486,257
5.1858,247
5.2229,257
5.2601,251
5.2972,215
5.3344,242
5.3715,203
5.4087,241
5.4458,223
5.4830,247
5.5201,211
5.5573,229
5.5944,200
5.6316,222
5.6687,205
5.7059,224
5.7430,200
5.7802,202
5.8173,186
5.8545,220
5.8916,225
5.9288,192
5.9659,203
6.0031,200
6.0402,190
6.0774,194
6.1145,200
6.1517,200
6.1888,170
6.2260,196
6.2631,178
6.3003,180
6.3374,218
6.3746,191
6.4117,179
6.4489,205
6.4860,196
6.5232,164
6.5604,167
6.5975,169
6.6347,165
6.6718,172
6.7090,186
6.7461,179
6.7833,185
6.8204,158
6.8576,157
6.8947,181
6.9319,158
6.9690,152
7.0062,204
7.0433,160
7.0805,176
7.1176,168
7.1548,175
7.1919,170
7.2291,167
7.2662,151
7.3034,172
7.3405,143
7.3777,153
7.4148,163
7.4520,194
7.4891,158
7.5263,171
7.5634,129
7.6006,179
7.6377,174
7.6749,178
7.7120,196
7.7492,186
7.7863,191
7.8235,163
7.8606,171
7.8978,189
7.9349,190
7.9721,173
8.0092,182
8.0464,173
8.0835,180
8.1207,164
8.1579,204
8.1950,204
8.2322,202
8.2693,207
8.3065,171
8.3436,198
8.3808,212
8.4179,187
8.4551,195
8.4922,208
8.5294,207
8.5665,182
8.6037,218
8.6408,216
8.6780,220
8.7151,194
8.7523,194
8.7894,205
8.8266,202
8.8637,199
8.9009,216
8.9380,219
8.9752,228
9.0123,198
9.0495,220
9.0866,196
9.1238,232
9.1609,211
9.1981,211
9.2352,225
9.2724,206
9.3095,255
9.3467,229
9.3838,209
9.4210,228
9.4581,219
9.4953,223
9.5324,213
9.5696,192
9.6067,234
9.6439,227
9.6811,216
9.7182,237
9.7554,217
9.7925,233
9.8297,240
9.8668,255
9.9040,239
9.9411,280
9.9783,238
10.0154,217
10.0526,265
10.0897,239
10.1269,247
10.1640,257
10.2012,249
10.2383,251
10.2755,247
10.3126,241
10.3498,245
10.3869,249
10.4241,221
10.4612,233
10.4984,237
10.5355,234
10.5727,219
10.6098,256
10.6470,232
10.6841,237
10.7213,237
10.7584,238
10.7956,242
10.8327,241
10.8699,267
10.9070,222
10.9442,240
10.9813,226
11.0185,227
11.0556,258
11.0928,247
11.1299,235
11.1671,271
11.2043,220
11.2414,256
11.2786,217
11.3157,239
11.3529,278
11.3900,228
11.4272,255
11.4643,273
11.5015,247
11.5386,207
11.5758,252
11.6129,252
11.6501,236
11.6872,233
11.7244,242
11.7615,201
11.7987,243
11.8358,219
11.8730,207
11.9101,238
11.9473,201
11.9844,242
12.0216,257
12.0587,261
12.0959,258
12.1330,210
12.1702,196
12.2073,217
12.2445,239
12.2816,250
12.3188,213
12.3559,240
12.3931,216
12.4302,233
12.4674,219
12.5045,225
12.5417,216
12.5788,231
12.6160,221
12.6531,226
12.6903,200
12.7274,221
12.7646,215
12.8018,222
12.8389,240
12.8761,226
12.9132,190
12.9504,238
12.9875,217
13.0247,221
13.0618,198
13.0990,189
13.1361,209
13.1733,211
13.2104,228
13.2476,210
13.2847,196
13.3219,218
13.3590,198
13.3962,197
13.4333,191
13.4705,187
13.5076,196
13.5448,175
13.5819,209
13.6191,188
13.6562,201
13.6934,168
13.7305,183
13.7677,190
13.8048,182
13.8420,194
13.8791,176
13.9163,201
13.9534,188
13.9906,199
14.0277,173
14.0649,171
14.1020,190
14.1392,163
14.1763,184
14.2135,186
14.2506,182
14.2878,184
14.3250,195
14.3621,164
14.3993,195
14.4364,169
14.4736,173
14.5107,179
14.5479,160
14.5850,183
14.6222,158
14.6593,159
14.6965,167
14.7336,170
14.7708,179
14.8079,174
14.8451,153
14.8822,161
14.9194,186
14.9565,177
14.9937,174
15.0308,195
15.0680,184
15.1051,142
15.1423,154
15.1794,152
15.2166,168
15.2537,148
15.2909,169
15.3280,187
15.3652,181
15.4023,183
15.4395,155
15.4766,155
15.5138,176
15.5509,151
15.5881,162
15.6252,152
15.6624,162
15.6995,170
15.7367,155
15.7738,195
15.8110,155
15.8482,183
15.8853,160
15.9225,176
15.9596,163
15.9968,164
16.0339,154
16.0711,186
16.1082,181
16.1454,150
16.1825,150
16.2197,150
16.2568,153
16.2940,170
16.3311,165
16.3683,181
16.4054,170
16.4426,177
16.4797,177
16.5169,164
16.5540,151
16.5912,154
16.6283,165
16.6655,145
16.7026,159
16.7398,165
16.7769,142
16.8141,177
16.8512,160
16.8884,177
16.9255,159
16.9627,148
16.9998,188
17.0370,169
17.0741,156
17.1113,148
17.1484,160
17.1856,140
17.2227,146
17.2599,156
17.2970,165
17.3342,170
17.3713,175
17.4085,173
17.4457,137
17.4828,156
17.5200,171
17.5571,160
17.5943,172
17.6314,162
17.6686,155
17.7057,178
17.7429,146
17.7800,160
17.8172,169
17.8543,182
17.8915,181
17.9286,170
17.9658,157
18.0029,148
18.0401,164
18.0772,165
18.1144,162
18.1515,167
18.1887,185
18.2258,181
18.2630,170
18.3001,184
18.3373,149
18.3744,171
18.4116,165
18.4487,168
18.4859,218
18.5230,183
18.5602,150
18.5973,165
18.6345,173
18.6716,186
18.7088,151
18.7459,172
18.7831,174
18.8202,169
18.8574,162
18.8945,182
18.9317,171
18.9689,155
19.0060,166
19.0432,182
19.0803,175
19.1175,159
19.1546,154
19.1918,168
19.2289,146
19.2661,162
19.3032,171
19.3404,179
19.3775,163
19.4147,150
19.4518,168
19.4890,191
19.5261,170
19.5633,157
19.6004,188
19.6376,176
19.6747,154
19.7119,183
19.7490,174
19.7862,180
19.8233,170
19.8605,178
19.8976,178
19.9348,165
19.9719,171
20.0091,181
20.0462,173
20.0834,196
20.1205,173
20.1577,206
20.1948,182
20.2320,153
20.2691,179
20.3063,163
20.3434,205
20.3806,191
20.4177,166
20.4549,206
20.4921,182
20.5292,210
20.5664,208
20.6035,180
20.6407,187
20.6778,200
20.7150,189
20.7521,185
20.7893,178
20.8264,205
20.8636,193
20.9007,204
20.9379,217
20.9750,186
21.0122,183
21.0493,192
21.0865,197
21.1236,209
21.1608,209
21.1979,319
21.2351,345
21.2722,311
21.3094,347
21.3465,521
21.3837,418
21.4208,353
21.4580,246
21.4951,205
21.5323,199
21.5694,205
21.6066,197
21.6437,186
21.6809,194
21.7180,203
21.7552,195
21.7923,196
21.8295,223
21.8666,212
21.9038,208
21.9409,219
21.9781,185
22.0152,195
22.0524,163
22.0896,190
22.1267,190
22.1639,210
22.2010,211
22.2382,204
22.2753,221
22.3125,191
22.3496,195
22.3868,194
22.4239,183
22.4611,216
22.4982,183
22.5354,197
22.5725,210
22.6097,192
22.6468,204
22.6840,218
22.7211,171
22.7583,202
22.7954,200
22.8326,202
22.8697,190
22.9069,207
22.9440,217
22.9812,197
23.0183,204
23.0555,209
23.0926,206
23.1298,212
23.1669,182
23.2041,195
23.2412,195
23.2784,202
23.3155,194
23.3527,211
23.3898,187
23.4270,196
23.4641,194
23.5013,218
23.5384,203
23.5756,200
23.6128,194
23.6499,210
23.6871,189
23.7242,227
23.7614,204
23.7985,216
23.8357,189
23.8728,198
23.9100,216
23.9471,196
23.9843,233
24.0214,209
24.0586,231
24.0957,202
24.1329,202
24.1700,230
24.2072,240
24.2443,214
24.2815,232
24.3186,204
24.3558,194
24.3929,224
24.4301,197
24.4672,199
24.5044,214
24.5415,215
24.5787,205
24.6158,185
24.6530,185
24.6901,195
24.7273,199
24.7644,232
24.8016,229
24.8387,224
24.8759,196
24.9130,188
24.9502,212
24.9873,193
25.0245,198
25.0616,205
25.0988,213
25.1360,183
25.1731,204
25.2103,191
25.2474,199
25.2846,208
25.3217,198
25.3589,231
25.3960,206
25.4332,213
25.4703,225
25.5075,208
25.5446,186
25.5818,213
25.6189,196
25.6561,176
25.6932,196
25.7304,215
25.7675,197
25.8047,192
25.8418,179
25.8790,199
25.9161,174
25.9533,181
25.9904,226
26.0276,222
26.0647,178
26.1019,208
26.1390,177
26.1762,194
26.2133,197
26.2505,201
26.2876,178
26.3248,193
26.3619,205
26.3991,206
26.4362,187
26.4734,172
26.5105,210
26.5477,191
26.5848,180
26.6220,186
26.6591,171
26.6963,182
26.7335,200
26.7706,188
26.8078,197
26.8449,191
26.8821,205
26.9192,185
26.9564,196
26.9935,193
27.0307,206
27.0678,196
27.1050,209
27.1421,196
27.1793,244
27.2164,258
27.2536,219
27.2907,244
27.3279,231
27.3650,191
27.4022,172
27.4393,166
27.4765,186
27.5136,187
27.5508,169
27.5879,179
27.6251,170
27.6622,188
27.6994,178
27.7365,184
27.7737,183
27.8108,187
27.8480,182
27.8851,182
27.9223,190
27.9594,179
27.9966,168
28.0337,180
28.0709,167
28.1080,187
28.1452,171
28.1823,168
28.2195,151
28.2567,179
28.2938,166
28.3310,165
28.3681,172
28.4053,173
28.4424,163
28.4796,200
28.5167,151
28.5539,165
28.5910,171
28.6282,161
28.6653,150
28.7025,174
28.7396,152
28.7768,165
28.8139,154
28.8511,155
28.8882,159
28.9254,166
28.9625,156
28.9997,167
29.0368,179
29.0740,152
29.1111,187
29.1483,170
29.1854,171
29.2226,172
29.2597,160
29.2969,163
29.3340,169
29.3712,183
29.4083,149
29.4455,167
29.4826,150
29.5198,170
29.5569,150
29.5941,160
29.6312,144
29.6684,153
29.7055,159
29.7427,172
29.7799,182
29.8170,154
29.8542,166
29.8913,149
29.9285,148
29.9656,160
30.0028,143
30.0399,159
30.0771,158
30.1142,145
30.1514,166
30.1885,147
30.2257,159
30.2628,158
30.3000,165
30.3371,198
30.3743,339
30.4114,265
30.4486,285
30.4857,227
30.5229,174
30.5600,137
30.5972,181
30.6343,149
30.6715,161
30.7086,133
30.7458,129
30.7829,147
30.8201,154
30.8572,151
30.8944,138
30.9315,147
30.9687,149
31.0058,137
31.0430,144
31.0801,156
31.1173,160
31.1544,149
31.1916,138
31.2287,142
31.2659,146
31.3030,131
31.3402,133
31.3774,152
31.4145,136
31.4517,133
31.4888,146
31.5260,148
31.5631,125
31.6003,128
31.6374,129
31.6746,142
31.7117,108
31.7489,140
31.7860,126
31.8232,139
31.8603,151
31.8975,141
31.9346,121
31.9718,117
32.0089,135
32.0461,157
32.0832,131
32.1204,134
32.1575,150
32.1947,135
32.2318,125
32.2690,137
32.3061,136
32.3433,139
32.3804,133
32.4176,131
32.4547,160
32.4919,130
32.5290,146
32.5662,153
32.6033,129
32.6405,127
32.6776,156
32.7148,133
32.7519,130
32.7891,132
32.8262,124
32.8634,128
32.9006,117
32.9377,118
32.9749,120
33.0120,114
33.0492,106
33.0863,113
33.1235,113
33.1606,116
33.1978,117
33.2349,118
33.2721,123
33.3092,122
33.3464,136
33.3835,131
33.4207,97
33.4578,134
33.4950,117
33.5321,128
33.5693,97
33.6064,108
33.6436,121
33.6807,109
33.7179,129
33.7550,128
33.7922,125
33.8293,101
33.8665,130
33.9036,137
33.9408,112
33.9779,131
34.0151,132
34.0522,108
34.0894,115
34.1265,102
34.1637,122
34.2008,117
34.2380,109
34.2751,126
34.3123,132
34.3494,107
34.3866,108
34.4238,112
34.4609,119
34.4981,108
34.5352,126
34.5724,135
34.6095,143
34.6467,122
34.6838,126
34.7210,152
34.7581,153
34.7953,154
34.8324,149
34.8696,136
34.9067,125
34.9439,108
34.9810,114
35.0182,105
35.0553,133
35.0925,97
35.1296,95
35.1668,91
35.2039,109
35.2411,100
35.2782,111
35.3154,105
35.3525,89
35.3897,101
35.4268,92
35.4640,107
35.5011,102
35.5383,92
35.5754,84
35.6126,128
35.6497,112
35.6869,105
35.7240,102
35.7612,94
35.7983,103
35.8355,91
35.8726,116
35.9098,89
35.9469,87
35.9841,93
36.0213,94
36.0584,103
36.0956,84
36.1327,96
36.1699,104
36.2070,98
36.2442,82
36.2813,93
36.3185,91
36.3556,98
36.3928,106
36.4299,90
36.4671,92
36.5042,96
36.5414,96
36.5785,101
36.6157,91
36.6528,93
36.6900,83
36.7271,84
36.7643,98
36.8014,104
36.8386,97
36.8757,89
36.9129,81
36.9500,97
36.9872,100
37.0243,90
37.0615,96
37.0986,95
37.1358,90
37.1729,99
37.2101,87
37.2472,94
37.2844,107
37.3215,98
37.3587,93
37.3958,108
37.4330,164
37.4701,117
37.5073,108
37.5445,123
37.5816,99
37.6188,108
37.6559,86
37.6931,105
37.7302,106
37.7674,94
37.8045,83
37.8417,84
37.8788,71
37.9160,72
37.9531,92
37.9903,89
38.0274,77
38.0646,89
38.1017,77
38.1389,82
38.1760,94
38.2132,93
38.2503,106
38.2875,81
38.3246,68
38.3618,77
38.3989,86
38.4361,82
38.4732,82
38.5104,101
38.5475,85
38.5847,89
38.6218,83
38.6590,88
38.6961,76
38.7333,93
38.7704,74
38.8076,102
38.8447,87
38.8819,81
38.9190,75
38.9562,96
38.9933,75
39.0305,64
39.0677,94
39.1048,77
39.1420,85
39.1791,87
39.2163,95
39.2534,70
39.2906,86
39.3277,78
39.3649,74
39.4020,85
39.4392,75
39.4763,76
39.5135,78
39.5506,91
39.5878,82
39.6249,81
39.6621,71
39.6992,58
39.7364,78
39.7735,81
39.8107,88
39.8478,80
39.8850,79
39.9221,66
39.9593,93
39.9964,73
40.0336,59
40.0707,62
40.1079,80
40.1450,71
40.1822,84
40.2193,65
40.2565,91
40.2936,74
40.3308,90
40.3679,77
40.4051,73
40.4422,78
40.4794,84
40.5165,73
40.5537,86
40.5908,64
40.6280,74
40.6652,83
40.7023,83
40.7395,72
40.7766,84
40.8138,78
40.8509,83
40.8881,80
40.9252,77
40.9624,80
40.9995,88
41.0367,63
41.0738,71
41.1110,80
41.1481,85
41.1853,79
41.2224,82
41.2596,91
41.2967,62
41.3339,71
41.3710,84
41.4082,84
41.4453,70
41.4825,71
41.5196,70
41.5568,78
41.5939,67
41.6311,64
41.6682,80
41.7054,65
41.7425,70
41.7797,65
41.8168,79
41.8540,89
41.8911,91
41.9283,68
41.9654,68
42.0026,89
42.0397,76
42.0769,67
42.1140,85
42.1512,90
42.1884,78
42.2255,65
42.2627,91
42.2998,80
42.3370,84
42.3741,79
42.4113,70
42.4484,65
42.4856,77
42.5227,61
42.5599,83
42.5970,74
42.6342,92
42.6713,81
42.7085,96
42.7456,74
42.7828,69
42.8199,71
42.8571,83
42.8942,87
42.9314,71
42.9685,78
43.0057,97
43.0428,69
43.0800,74
43.1171,85
43.1543,74
43.1914,75
43.2286,97
43.2657,81
43.3029,68
43.3400,92
43.3772,84
43.4143,79
43.4515,87
43.4886,118
43.5258,99
43.5629,80
43.6001,97
43.6372,112
43.6744,69
43.7116,86
43.7487,93
43.7859,66
43.8230,71
43.8602,71
43.8973,67
43.9345,67
43.9716,69
44.0088,73
44.0459,74
44.0831,73
44.1202,78
44.1574,79
44.1945,73
44.2317,72
44.2688,58
44.3060,68
44.3431,73
44.3803,85
44.4174,91
44.4546,92
44.4917,78
44.5289,77
44.5660,63
44.6032,77
44.6403,83
44.6775,92
44.7146,78
44.7518,92
44.7889,78
44.8261,71
44.8632,75
44.9004,82
44.9375,64
44.9747,77
45.0118,74
45.0490,60
45.0861,77
45.1233,75
45.1604,70
45.1976,76
45.2347,64
45.2719,68
45.3091,66
45.3462,68
45.3834,64
45.4205,75
45.4577,63
45.4948,70
45.5320,83
45.5691,81
45.6063,54
45.6434,69
45.6806,69
45.7177,85
45.7549,66
45.7920,73
45.8292,66
45.8663,66
45.9035,66
45.9406,74
45.9778,66
46.0149,85
46.0521,78
46.0892,89
46.1264,59
46.1635,68
46.2007,59
46.2378,62
46.2750,66
46.3121,54
46.3493,65
46.3864,66
46.4236,65
46.4607,75
46.4979,57
46.5350,79
46.5722,53
46.6093,59
46.6465,73
46.6836,61
46.7208,49
46.7579,73
46.7951,59
46.8323,74
46.8694,58
46.9066,87
46.9437,62
46.9809,78
47.0180,89
47.0552,77
47.0923,61
47.1295,51
47.1666,59
47.2038,83
47.2409,65
47.2781,78
47.3152,71
47.3524,63
47.3895,61
47.4267,69
47.4638,71
47.5010,73
47.5381,60
47.5753,69
47.6124,60
47.6496,75
47.6867,81
47.7239,71
47.7610,68
47.7982,59
47.8353,76
47.8725,51
47.9096,66
47.9468,66
47.9839,65
48.0211,54
48.0582,62
48.0954,50
48.1325,61
48.1697,74
48.2068,59
48.2440,68
48.2811,59
48.3183,83
48.3555,73
48.3926,55
48.4298,74
48.4669,57
48.5041,65
48.5412,64
48.5784,56
48.6155,70
48.6527,59
48.6898,72
48.7270,75
48.7641,86
48.8013,64
48.8384,75
48.8756,85
48.9127,77
48.9499,117
48.9870,105
49.0242,78
49.0613,90
49.0985,107
49.1356,70
49.1728,72
49.2099,56
49.2471,75
49.2842,61
49.3214,64
49.3585,58
49.3957,57
49.4328,66
49.4700,65
49.5071,53
49.5443,68
49.5814,54
49.6186,68
49.6557,64
49.6929,52
49.7300,58
49.7672,54
49.8043,74
49.8415,62
49.8786,53
49.9158,64
49.9530,59
49.9901,51
50.0273,69
50.0644,57
50.1016,65
50.1387,65
50.1759,74
50.2130,68
50.2502,63
50.2873,74
50.3245,50
50.3616,57
50.3988,58
50.4359,51
50.4731,54
50.5102,66
50.5474,62
50.5845,52
50.6217,61
50.6588,57
50.6960,62
50.7331,65
50.7703,65
50.8074,67
50.8446,66
50.8817,54
50.9189,55
50.9560,54
50.9932,62
51.0303,62
51.0675,61
51.1046,60
51.1418,51
51.1789,77
51.2161,62
51.2532,73
51.2904,67
51.3275,69
51.3647,57
51.4018,83
51.4390,85
51.4762,56
51.5133,64
51.5505,72
51.5876,79
51.6248,57
51.6619,65
51.6991,77
51.7362,48
51.7734,60
51.8105,52
51.8477,75
51.8848,62
51.9220,76
51.9591,74
51.9963,58
52.0334,52
52.0706,57
52.1077,57
52.1449,67
52.1820,59
52.2192,57
52.2563,63
52.2935,62
52.3306,57
52.3678,41
52.4049,50
52.4421,73
52.4792,49
52.5164,55
52.5535,56
52.5907,68
52.6278,64
52.6650,61
52.7021,53
52.7393,54
52.7764,54
52.8136,49
52.8507,63
52.8879,66
52.9250,52
52.9622,40
52.9994,86
53.0365,77
53.0737,68
53.1108,62
53.1480,61
53.1851,64
53.2223,46
53.2594,48
53.2966,68
53.3337,45
53.3709,47
53.4080,57
53.4452,59
53.4823,72
53.5195,69
53.5566,52
53.5938,42
53.6309,52
53.6681,56
53.7052,37
53.7424,44
53.7795,51
53.8167,66
53.8538,47
53.8910,61
53.9281,60
53.9653,73
54.0024,83
54.0396,68
54.0767,61
54.1139,63
54.1510,74
54.1882,69
54.2253,49
54.2625,55
54.2996,56
54.3368,69
54.3739,43
54.4111,58
54.4482,46
54.4854,61
54.5225,52
54.5597,45
54.5969,50
54.6340,66
54.6712,44
54.7083,63
54.7455,54
54.7826,59
54.8198,56
54.8569,55
54.8941,69
54.9312,63
54.9684,67
55.0055,58
55.0427,54
55.0798,59
55.1170,52
55.1541,69
55.1913,70
55.2284,52
55.2656,64
55.3027,48
55.3399,62
55.3770,65
55.4142,54
55.4513,63
55.4885,57
55.5256,55
55.5628,54
55.5999,57
55.6371,71
55.6742,61
55.7114,61
55.7485,62
55.7857,73
55.8228,58
55.8600,68
55.8971,51
55.9343,63
55.9714,43
56.0086,43
56.0457,51
56.0829,59
56.1201,67
56.1572,55
56.1944,65
56.2315,54
56.2687,66
56.3058,53
56.3430,56
56.3801,66
56.4173,58
56.4544,65
56.4916,62
56.5287,58
56.5659,62
56.6030,54
56.6402,54
56.6773,52
56.7145,63
56.7516,53
56.7888,55
56.8259,58
56.8631,56
56.9002,49
56.9374,65
56.9745,63
57.0117,72
57.0488,48
57.0860,55
57.1231,50
57.1603,61
57.1974,55
57.2346,64
57.2717,61
57.3089,55
57.3460,59
57.3832,49
57.4203,54
57.4575,61
57.4946,51
57.5318,65
57.5689,34
57.6061,61
57.6433,60
57.6804,61
57.7176,52
57.7547,76
57.7919,50
57.8290,48
57.8662,61
57.9033,54
57.9405,54
57.9776,62
58.0148,48
58.0519,48
58.0891,65
58.1262,45
58.1634,54
58.2005,55
58.2377,66
58.2748,54
58.3120,48
58.3491,50
58.3863,45
58.4234,60
58.4606,62
58.4977,60
58.5349,65
58.5720,71
58.6092,50
58.6463,61
58.6835,44
58.7206,52
58.7578,56
58.7949,65
58.8321,58
58.8692,55
58.9064,58
58.9435,52
58.9807,54
59.0178,57
59.0550,54
59.0921,42
59.1293,53
59.1664,58
59.2036,61
59.2408,55
59.2779,61
59.3151,61
59.3522,62
59.3894,67
59.4265,59
59.4637,48
59.5008,57
59.5380,44
59.5751,60
59.6123,62
59.6494,55
59.6866,56
59.7237,52
59.7609,59
59.7980,61
59.8352,66
59.8723,59
59.9095,50
59.9466,47
59.9838,49
60.0024,40