File: notebooks/data/xrd_data/ML_20220720_5_SJD_4_LaB6-4min.uxd
; (content of file Y:\Sam\Apurva-07-20-2022\puck2\ML_20220720_5_SJD_0_LaB6-4min.raw)
_FILEVERSION = 3
_SAMPLE = ML_20220720_5_SJD_0_LaB6-4min
_+SAMPLE =
_SITE = USA
_USER = Administrator
_GONIOMETER_CODE = 20
; Goniometer : D8 theta/2theta, stage : Unknown
_ATTACHMENTS_CODE = 0
_GONIOMETER_RADIUS = 200.5
_FIXED_DIVSLIT = 0.6
_FIXED_SAMPLESLIT = 0
_SOLLER_SLITS = 2
_FIXED_DETSLIT = 9.55
_MONOCHROMATOR = 0
; Incident beam monochromator : None
_SOLLER_SLITS_2 = N
_THIN_FILM = N
_BETA_FILTER = Y
_FIXED_ANTISLIT = 5.89
_ANALYZER_CODE = 0
; Received beam analyzer : None
_DATEMEASURED = "25-Jul-2022 17:42:33"
_WL_UNIT = A
_WL1 = 1.5406
_WL2 = 1.54439
_WL3 = 1.39222
_WLRATIO = 0.5
_ANODE = Cu
_V4_INF_CREATOR = XRDWizard
_V4_INF_CREATOR_VERSION = V2.9.0.22
_V4_INF_WIZARD_VERSION = V2.9.0.22
_V4_INF_WIZARD_ADDINS = V2.9.0.22
_V4_INF_WIZARD_DOCTYPE = XRD
_V4_INF_OSUSER = McQueenLab
_V4_INF_USER = Administrator
_V4_INF_SITE = USA
_V4_INF_SAMPLEID = ML_20220720_5_SJD_0_LaB6-4min

; Data for range 1
_DRIVE = COUPLED
_STEPTIME = 11.28
_STEPSIZE = 0.0185756
_STEPMODE = C
_START = 5
_THETA = 2.5
_2THETA = 5
_KHI = 0
_PHI = 0
_X = 0
_Y = 0
_Z = 0
_DETECTOR = 5
; Detector type : Unknown
_DETECTORSLIT = unkn
_AUX1 = 0
_AUX2 = 0
_AUX3 = 0
_TIMESTARTED = 15
_TEMP_RATE = -1
_TEMP_DELAY = -1
_KV = 40
_MA = 40
_RANGE_WL = 1.5406
_3DPLANE = 0
_V4_ADDITIONALDETECTOR = 257
_V4_PSD2THETA = 3.3882
_V4_PSDCHANNEL1 = 0
_V4_PSDAPERTURE = 12.68
_V4_PSDTYPE = 5
_V4_PSDFIXED = 0
_V4_COUNTERS_MASK = 4096
_V4_DRIVES_MASK = 0
_V4_ENCODERS_MASK = 0
_2THETACOUNTS = 1
; 2THETA  PSD
   5.0000        277
   5.0372        238
   5.0743        237
   5.1115        254
   5.1486        256
   5.1858        251
   5.2229        248
   5.2601        236
   5.2972        251
   5.3344        248
   5.3715        234
   5.4087        236
   5.4458        243
   5.4830        246
   5.5201        256
   5.5573        250
   5.5944        209
   5.6316        228
   5.6687        208
   5.7059        214
   5.7430        228
   5.7802        205
   5.8173        200
   5.8545        216
   5.8916        195
   5.9288        164
   5.9659        206
   6.0031        198
   6.0402        195
   6.0774        198
   6.1145        185
   6.1517        192
   6.1888        201
   6.2260        192
   6.2631        214
   6.3003        161
   6.3374        193
   6.3746        172
   6.4117        189
   6.4489        178
   6.4860        161
   6.5232        176
   6.5604        175
   6.5975        169
   6.6347        182
   6.6718        163
   6.7090        171
   6.7461        171
   6.7833        185
   6.8204        165
   6.8576        177
   6.8947        162
   6.9319        164
   6.9690        180
   7.0062        188
   7.0433        155
   7.0805        146
   7.1176        166
   7.1548        143
   7.1919        146
   7.2291        168
   7.2662        181
   7.3034        167
   7.3405        159
   7.3777        167
   7.4148        165
   7.4520        175
   7.4891        144
   7.5263        151
   7.5634        168
   7.6006        175
   7.6377        178
   7.6749        164
   7.7120        161
   7.7492        208
   7.7863        163
   7.8235        193
   7.8606        201
   7.8978        191
   7.9349        172
   7.9721        162
   8.0092        198
   8.0464        189
   8.0835        203
   8.1207        214
   8.1579        214
   8.1950        195
   8.2322        192
   8.2693        187
   8.3065        181
   8.3436        211
   8.3808        193
   8.4179        187
   8.4551        191
   8.4922        194
   8.5294        203
   8.5665        218
   8.6037        207
   8.6408        199
   8.6780        192
   8.7151        202
   8.7523        200
   8.7894        202
   8.8266        203
   8.8637        192
   8.9009        209
   8.9380        218
   8.9752        218
   9.0123        215
   9.0495        225
   9.0866        203
   9.1238        219
   9.1609        241
   9.1981        240
   9.2352        226
   9.2724        223
   9.3095        227
   9.3467        207
   9.3838        217
   9.4210        230
   9.4581        215
   9.4953        220
   9.5324        220
   9.5696        201
   9.6067        227
   9.6439        197
   9.6811        243
   9.7182        243
   9.7554        238
   9.7925        227
   9.8297        220
   9.8668        251
   9.9040        236
   9.9411        235
   9.9783        251
  10.0154        251
  10.0526        221
  10.0897        260
  10.1269        197
  10.1640        246
  10.2012        234
  10.2383        223
  10.2755        250
  10.3126        236
  10.3498        246
  10.3869        255
  10.4241        247
  10.4612        243
  10.4984        238
  10.5355        263
  10.5727        220
  10.6098        249
  10.6470        245
  10.6841        239
  10.7213        223
  10.7584        238
  10.7956        245
  10.8327        267
  10.8699        267
  10.9070        242
  10.9442        245
  10.9813        233
  11.0185        222
  11.0556        223
  11.0928        261
  11.1299        243
  11.1671        224
  11.2043        241
  11.2414        243
  11.2786        260
  11.3157        227
  11.3529        253
  11.3900        236
  11.4272        228
  11.4643        231
  11.5015        245
  11.5386        248
  11.5758        248
  11.6129        239
  11.6501        257
  11.6872        266
  11.7244        232
  11.7615        247
  11.7987        238
  11.8358        233
  11.8730        227
  11.9101        233
  11.9473        228
  11.9844        220
  12.0216        233
  12.0587        224
  12.0959        213
  12.1330        225
  12.1702        219
  12.2073        230
  12.2445        213
  12.2816        230
  12.3188        214
  12.3559        229
  12.3931        214
  12.4302        232
  12.4674        221
  12.5045        215
  12.5417        218
  12.5788        216
  12.6160        225
  12.6531        234
  12.6903        224
  12.7274        215
  12.7646        239
  12.8018        242
  12.8389        196
  12.8761        223
  12.9132        196
  12.9504        192
  12.9875        209
  13.0247        212
  13.0618        208
  13.0990        220
  13.1361        233
  13.1733        231
  13.2104        207
  13.2476        209
  13.2847        223
  13.3219        193
  13.3590        208
  13.3962        200
  13.4333        186
  13.4705        186
  13.5076        191
  13.5448        201
  13.5819        190
  13.6191        201
  13.6562        190
  13.6934        175
  13.7305        184
  13.7677        176
  13.8048        187
  13.8420        166
  13.8791        198
  13.9163        204
  13.9534        186
  13.9906        192
  14.0277        179
  14.0649        181
  14.1020        187
  14.1392        167
  14.1763        180
  14.2135        156
  14.2506        202
  14.2878        175
  14.3250        201
  14.3621        194
  14.3993        171
  14.4364        177
  14.4736        172
  14.5107        161
  14.5479        154
  14.5850        184
  14.6222        158
  14.6593        172
  14.6965        177
  14.7336        163
  14.7708        170
  14.8079        169
  14.8451        162
  14.8822        189
  14.9194        145
  14.9565        157
  14.9937        141
  15.0308        170
  15.0680        162
  15.1051        185
  15.1423        176
  15.1794        172
  15.2166        179
  15.2537        189
  15.2909        172
  15.3280        158
  15.3652        172
  15.4023        175
  15.4395        159
  15.4766        176
  15.5138        193
  15.5509        163
  15.5881        160
  15.6252        192
  15.6624        164
  15.6995        152
  15.7367        160
  15.7738        181
  15.8110        192
  15.8482        157
  15.8853        174
  15.9225        172
  15.9596        156
  15.9968        167
  16.0339        163
  16.0711        183
  16.1082        179
  16.1454        163
  16.1825        146
  16.2197        170
  16.2568        170
  16.2940        184
  16.3311        162
  16.3683        184
  16.4054        177
  16.4426        151
  16.4797        161
  16.5169        153
  16.5540        170
  16.5912        166
  16.6283        162
  16.6655        162
  16.7026        151
  16.7398        200
  16.7769        186
  16.8141        161
  16.8512        167
  16.8884        153
  16.9255        164
  16.9627        168
  16.9998        164
  17.0370        171
  17.0741        169
  17.1113        163
  17.1484        159
  17.1856        163
  17.2227        180
  17.2599        165
  17.2970        155
  17.3342        144
  17.3713        153
  17.4085        171
  17.4457        167
  17.4828        174
  17.5200        174
  17.5571        185
  17.5943        153
  17.6314        177
  17.6686        160
  17.7057        176
  17.7429        167
  17.7800        175
  17.8172        162
  17.8543        170
  17.8915        174
  17.9286        166
  17.9658        152
  18.0029        165
  18.0401        163
  18.0772        166
  18.1144        152
  18.1515        195
  18.1887        149
  18.2258        169
  18.2630        179
  18.3001        177
  18.3373        181
  18.3744        160
  18.4116        164
  18.4487        151
  18.4859        161
  18.5230        149
  18.5602        193
  18.5973        164
  18.6345        159
  18.6716        156
  18.7088        169
  18.7459        189
  18.7831        178
  18.8202        157
  18.8574        156
  18.8945        180
  18.9317        164
  18.9689        152
  19.0060        168
  19.0432        179
  19.0803        175
  19.1175        181
  19.1546        189
  19.1918        175
  19.2289        140
  19.2661        184
  19.3032        188
  19.3404        190
  19.3775        170
  19.4147        177
  19.4518        160
  19.4890        177
  19.5261        187
  19.5633        178
  19.6004        166
  19.6376        172
  19.6747        162
  19.7119        195
  19.7490        183
  19.7862        190
  19.8233        179
  19.8605        192
  19.8976        193
  19.9348        166
  19.9719        177
  20.0091        190
  20.0462        177
  20.0834        197
  20.1205        200
  20.1577        196
  20.1948        203
  20.2320        190
  20.2691        185
  20.3063        185
  20.3434        176
  20.3806        200
  20.4177        158
  20.4549        229
  20.4921        160
  20.5292        180
  20.5664        193
  20.6035        161
  20.6407        174
  20.6778        205
  20.7150        184
  20.7521        182
  20.7893        174
  20.8264        189
  20.8636        196
  20.9007        165
  20.9379        179
  20.9750        203
  21.0122        203
  21.0493        188
  21.0865        217
  21.1236        194
  21.1608        229
  21.1979        277
  21.2351        327
  21.2722        296
  21.3094        317
  21.3465        509
  21.3837        454
  21.4208        344
  21.4580        249
  21.4951        216
  21.5323        204
  21.5694        200
  21.6066        212
  21.6437        202
  21.6809        204
  21.7180        187
  21.7552        201
  21.7923        232
  21.8295        200
  21.8666        195
  21.9038        209
  21.9409        186
  21.9781        191
  22.0152        205
  22.0524        202
  22.0896        206
  22.1267        218
  22.1639        205
  22.2010        198
  22.2382        185
  22.2753        194
  22.3125        188
  22.3496        215
  22.3868        184
  22.4239        194
  22.4611        231
  22.4982        206
  22.5354        208
  22.5725        193
  22.6097        204
  22.6468        216
  22.6840        195
  22.7211        220
  22.7583        195
  22.7954        210
  22.8326        185
  22.8697        204
  22.9069        197
  22.9440        227
  22.9812        194
  23.0183        207
  23.0555        196
  23.0926        220
  23.1298        210
  23.1669        165
  23.2041        189
  23.2412        219
  23.2784        212
  23.3155        205
  23.3527        182
  23.3898        224
  23.4270        202
  23.4641        205
  23.5013        205
  23.5384        193
  23.5756        203
  23.6128        195
  23.6499        188
  23.6871        207
  23.7242        244
  23.7614        204
  23.7985        204
  23.8357        215
  23.8728        217
  23.9100        191
  23.9471        189
  23.9843        216
  24.0214        219
  24.0586        211
  24.0957        200
  24.1329        200
  24.1700        212
  24.2072        221
  24.2443        209
  24.2815        230
  24.3186        208
  24.3558        226
  24.3929        208
  24.4301        220
  24.4672        197
  24.5044        197
  24.5415        193
  24.5787        217
  24.6158        220
  24.6530        200
  24.6901        220
  24.7273        215
  24.7644        202
  24.8016        199
  24.8387        189
  24.8759        187
  24.9130        179
  24.9502        189
  24.9873        177
  25.0245        221
  25.0616        168
  25.0988        197
  25.1360        194
  25.1731        198
  25.2103        204
  25.2474        192
  25.2846        198
  25.3217        172
  25.3589        163
  25.3960        194
  25.4332        188
  25.4703        215
  25.5075        193
  25.5446        200
  25.5818        204
  25.6189        182
  25.6561        186
  25.6932        171
  25.7304        207
  25.7675        177
  25.8047        201
  25.8418        168
  25.8790        204
  25.9161        218
  25.9533        202
  25.9904        215
  26.0276        192
  26.0647        202
  26.1019        197
  26.1390        160
  26.1762        201
  26.2133        172
  26.2505        176
  26.2876        173
  26.3248        189
  26.3619        205
  26.3991        186
  26.4362        181
  26.4734        186
  26.5105        174
  26.5477        222
  26.5848        194
  26.6220        186
  26.6591        192
  26.6963        196
  26.7335        172
  26.7706        173
  26.8078        197
  26.8449        178
  26.8821        210
  26.9192        185
  26.9564        188
  26.9935        166
  27.0307        175
  27.0678        193
  27.1050        202
  27.1421        203
  27.1793        238
  27.2164        234
  27.2536        233
  27.2907        206
  27.3279        178
  27.3650        221
  27.4022        190
  27.4393        171
  27.4765        163
  27.5136        182
  27.5508        195
  27.5879        179
  27.6251        173
  27.6622        174
  27.6994        187
  27.7365        168
  27.7737        176
  27.8108        187
  27.8480        179
  27.8851        160
  27.9223        170
  27.9594        192
  27.9966        176
  28.0337        177
  28.0709        190
  28.1080        168
  28.1452        166
  28.1823        171
  28.2195        160
  28.2567        159
  28.2938        173
  28.3310        165
  28.3681        171
  28.4053        159
  28.4424        198
  28.4796        165
  28.5167        166
  28.5539        165
  28.5910        162
  28.6282        172
  28.6653        167
  28.7025        173
  28.7396        173
  28.7768        160
  28.8139        175
  28.8511        145
  28.8882        169
  28.9254        175
  28.9625        172
  28.9997        168
  29.0368        171
  29.0740        167
  29.1111        161
  29.1483        151
  29.1854        167
  29.2226        135
  29.2597        172
  29.2969        153
  29.3340        170
  29.3712        127
  29.4083        185
  29.4455        149
  29.4826        150
  29.5198        171
  29.5569        160
  29.5941        142
  29.6312        155
  29.6684        168
  29.7055        147
  29.7427        152
  29.7799        167
  29.8170        165
  29.8542        179
  29.8913        152
  29.9285        172
  29.9656        174
  30.0028        150
  30.0399        161
  30.0771        180
  30.1142        175
  30.1514        168
  30.1885        172
  30.2257        158
  30.2628        183
  30.3000        186
  30.3371        220
  30.3743        297
  30.4114        288
  30.4486        235
  30.4857        195
  30.5229        173
  30.5600        163
  30.5972        159
  30.6343        172
  30.6715        113
  30.7086        159
  30.7458        156
  30.7829        148
  30.8201        146
  30.8572        143
  30.8944        139
  30.9315        132
  30.9687        134
  31.0058        165
  31.0430        146
  31.0801        128
  31.1173        167
  31.1544        147
  31.1916        128
  31.2287        137
  31.2659        153
  31.3030        148
  31.3402        166
  31.3774        133
  31.4145        146
  31.4517        170
  31.4888        125
  31.5260        150
  31.5631        139
  31.6003        139
  31.6374        145
  31.6746        129
  31.7117        131
  31.7489        127
  31.7860        137
  31.8232        138
  31.8603        130
  31.8975        136
  31.9346        151
  31.9718        146
  32.0089        142
  32.0461        122
  32.0832        125
  32.1204        141
  32.1575        124
  32.1947        142
  32.2318        143
  32.2690        102
  32.3061        132
  32.3433        117
  32.3804        157
  32.4176        155
  32.4547        139
  32.4919        156
  32.5290        138
  32.5662        143
  32.6033        143
  32.6405        150
  32.6776        121
  32.7148        113
  32.7519        154
  32.7891        132
  32.8262        143
  32.8634        136
  32.9006        135
  32.9377        122
  32.9749        127
  33.0120         99
  33.0492        145
  33.0863        114
  33.1235        125
  33.1606        102
  33.1978        126
  33.2349        115
  33.2721        133
  33.3092        103
  33.3464        135
  33.3835        115
  33.4207        129
  33.4578        100
  33.4950        109
  33.5321        121
  33.5693        130
  33.6064        106
  33.6436        117
  33.6807        102
  33.7179        105
  33.7550        108
  33.7922        101
  33.8293        114
  33.8665        102
  33.9036        123
  33.9408        139
  33.9779        111
  34.0151        114
  34.0522        118
  34.0894        127
  34.1265        103
  34.1637        118
  34.2008        112
  34.2380        116
  34.2751        117
  34.3123        123
  34.3494        108
  34.3866        102
  34.4238        121
  34.4609        130
  34.4981        115
  34.5352        136
  34.5724        119
  34.6095        134
  34.6467        115
  34.6838        132
  34.7210        142
  34.7581        160
  34.7953        174
  34.8324        136
  34.8696        143
  34.9067        115
  34.9439        108
  34.9810        119
  35.0182        121
  35.0553         96
  35.0925        107
  35.1296        135
  35.1668        109
  35.2039         99
  35.2411        104
  35.2782         84
  35.3154         95
  35.3525         91
  35.3897         86
  35.4268        108
  35.4640        117
  35.5011         86
  35.5383        118
  35.5754        101
  35.6126         99
  35.6497        126
  35.6869        117
  35.7240        100
  35.7612         97
  35.7983         95
  35.8355        110
  35.8726        106
  35.9098         99
  35.9469         92
  35.9841        115
  36.0213         97
  36.0584         91
  36.0956        110
  36.1327        103
  36.1699         84
  36.2070        113
  36.2442        103
  36.2813        106
  36.3185         97
  36.3556         76
  36.3928         88
  36.4299         93
  36.4671        100
  36.5042        104
  36.5414         99
  36.5785         87
  36.6157         97
  36.6528         94
  36.6900         89
  36.7271         91
  36.7643        109
  36.8014         96
  36.8386        107
  36.8757         92
  36.9129         95
  36.9500        117
  36.9872         88
  37.0243         92
  37.0615        106
  37.0986         85
  37.1358         98
  37.1729         99
  37.2101         84
  37.2472         87
  37.2844         93
  37.3215        112
  37.3587         86
  37.3958        106
  37.4330        158
  37.4701        133
  37.5073        111
  37.5445        142
  37.5816         90
  37.6188         86
  37.6559         75
  37.6931         93
  37.7302         88
  37.7674         79
  37.8045         94
  37.8417         75
  37.8788         73
  37.9160         83
  37.9531         83
  37.9903         96
  38.0274         78
  38.0646         84
  38.1017         98
  38.1389         90
  38.1760         88
  38.2132         88
  38.2503         85
  38.2875        111
  38.3246         84
  38.3618         98
  38.3989         83
  38.4361         87
  38.4732         92
  38.5104        119
  38.5475         91
  38.5847         74
  38.6218         89
  38.6590         83
  38.6961         79
  38.7333         78
  38.7704         97
  38.8076         74
  38.8447        100
  38.8819         73
  38.9190         90
  38.9562         84
  38.9933         81
  39.0305         84
  39.0677         72
  39.1048         83
  39.1420         97
  39.1791         88
  39.2163         85
  39.2534         91
  39.2906         86
  39.3277         79
  39.3649         93
  39.4020         77
  39.4392         74
  39.4763         69
  39.5135         84
  39.5506         83
  39.5878         82
  39.6249        107
  39.6621         79
  39.6992         80
  39.7364         94
  39.7735         98
  39.8107         80
  39.8478         66
  39.8850         73
  39.9221         72
  39.9593         96
  39.9964         76
  40.0336         92
  40.0707         87
  40.1079         81
  40.1450         62
  40.1822         77
  40.2193         81
  40.2565         79
  40.2936         75
  40.3308         74
  40.3679         85
  40.4051         77
  40.4422         81
  40.4794         70
  40.5165         95
  40.5537         75
  40.5908         81
  40.6280         71
  40.6652         71
  40.7023         74
  40.7395         75
  40.7766         81
  40.8138         75
  40.8509         77
  40.8881         79
  40.9252         72
  40.9624         73
  40.9995         82
  41.0367         98
  41.0738         69
  41.1110         72
  41.1481         59
  41.1853         76
  41.2224         81
  41.2596         84
  41.2967         82
  41.3339         85
  41.3710         90
  41.4082         88
  41.4453         94
  41.4825         70
  41.5196         69
  41.5568         82
  41.5939         89
  41.6311         83
  41.6682         78
  41.7054         69
  41.7425         71
  41.7797         69
  41.8168         88
  41.8540         76
  41.8911         85
  41.9283         64
  41.9654         80
  42.0026         72
  42.0397         69
  42.0769         71
  42.1140         74
  42.1512         94
  42.1884         71
  42.2255         71
  42.2627         61
  42.2998         67
  42.3370         75
  42.3741         76
  42.4113         83
  42.4484         76
  42.4856         80
  42.5227         71
  42.5599         76
  42.5970         68
  42.6342         66
  42.6713         68
  42.7085         76
  42.7456         90
  42.7828         76
  42.8199         75
  42.8571         74
  42.8942         73
  42.9314         77
  42.9685         75
  43.0057         89
  43.0428         77
  43.0800         82
  43.1171         85
  43.1543         78
  43.1914         83
  43.2286         78
  43.2657         89
  43.3029         94
  43.3400         82
  43.3772         90
  43.4143         75
  43.4515         69
  43.4886        119
  43.5258        132
  43.5629         79
  43.6001        106
  43.6372        110
  43.6744         87
  43.7116         80
  43.7487         85
  43.7859         85
  43.8230         76
  43.8602         80
  43.8973         81
  43.9345         73
  43.9716         85
  44.0088         75
  44.0459         66
  44.0831         63
  44.1202         74
  44.1574         91
  44.1945         75
  44.2317         73
  44.2688         75
  44.3060         83
  44.3431         75
  44.3803         74
  44.4174         75
  44.4546         67
  44.4917         82
  44.5289         79
  44.5660         88
  44.6032         70
  44.6403         71
  44.6775         85
  44.7146         86
  44.7518         94
  44.7889         79
  44.8261         85
  44.8632         77
  44.9004         59
  44.9375         78
  44.9747         69
  45.0118         74
  45.0490         72
  45.0861         64
  45.1233         70
  45.1604         59
  45.1976         80
  45.2347         91
  45.2719         71
  45.3091         58
  45.3462         63
  45.3834         65
  45.4205         76
  45.4577         66
  45.4948         70
  45.5320         71
  45.5691         60
  45.6063         73
  45.6434         71
  45.6806         65
  45.7177         77
  45.7549         81
  45.7920         73
  45.8292         67
  45.8663         76
  45.9035         54
  45.9406         64
  45.9778         70
  46.0149         66
  46.0521         69
  46.0892         54
  46.1264         73
  46.1635         57
  46.2007         59
  46.2378         68
  46.2750         57
  46.3121         67
  46.3493         71
  46.3864         68
  46.4236         77
  46.4607         72
  46.4979         75
  46.5350         68
  46.5722         56
  46.6093         63
  46.6465         65
  46.6836         74
  46.7208         72
  46.7579         64
  46.7951         62
  46.8323         81
  46.8694         71
  46.9066         62
  46.9437         62
  46.9809         70
  47.0180         65
  47.0552         86
  47.0923         70
  47.1295         78
  47.1666         64
  47.2038         66
  47.2409         50
  47.2781         62
  47.3152         69
  47.3524         68
  47.3895         64
  47.4267         58
  47.4638         63
  47.5010         80
  47.5381         69
  47.5753         58
  47.6124         69
  47.6496         53
  47.6867         65
  47.7239         49
  47.7610         56
  47.7982         68
  47.8353         67
  47.8725         73
  47.9096         73
  47.9468         61
  47.9839         71
  48.0211         52
  48.0582         54
  48.0954         52
  48.1325         60
  48.1697         52
  48.2068         46
  48.2440         47
  48.2811         62
  48.3183         64
  48.3555         54
  48.3926         62
  48.4298         74
  48.4669         69
  48.5041         60
  48.5412         63
  48.5784         66
  48.6155         78
  48.6527         59
  48.6898         82
  48.7270         61
  48.7641         67
  48.8013         77
  48.8384         60
  48.8756         78
  48.9127         87
  48.9499        132
  48.9870         97
  49.0242         74
  49.0613         72
  49.0985        102
  49.1356         65
  49.1728         54
  49.2099         69
  49.2471         61
  49.2842         66
  49.3214         71
  49.3585         66
  49.3957         67
  49.4328         48
  49.4700         77
  49.5071         68
  49.5443         57
  49.5814         67
  49.6186         66
  49.6557         52
  49.6929         59
  49.7300         73
  49.7672         65
  49.8043         61
  49.8415         61
  49.8786         58
  49.9158         69
  49.9530         51
  49.9901         68
  50.0273         57
  50.0644         68
  50.1016         56
  50.1387         64
  50.1759         75
  50.2130         72
  50.2502         66
  50.2873         58
  50.3245         62
  50.3616         72
  50.3988         38
  50.4359         68
  50.4731         75
  50.5102         55
  50.5474         59
  50.5845         50
  50.6217         52
  50.6588         48
  50.6960         70
  50.7331         55
  50.7703         62
  50.8074         62
  50.8446         56
  50.8817         49
  50.9189         59
  50.9560         63
  50.9932         61
  51.0303         73
  51.0675         63
  51.1046         58
  51.1418         66
  51.1789         55
  51.2161         56
  51.2532         70
  51.2904         63
  51.3275         76
  51.3647         62
  51.4018         60
  51.4390         70
  51.4762         63
  51.5133         65
  51.5505         69
  51.5876         76
  51.6248         50
  51.6619         69
  51.6991         60
  51.7362         73
  51.7734         58
  51.8105         59
  51.8477         82
  51.8848         81
  51.9220         55
  51.9591         73
  51.9963         58
  52.0334         61
  52.0706         72
  52.1077         64
  52.1449         62
  52.1820         56
  52.2192         63
  52.2563         64
  52.2935         68
  52.3306         63
  52.3678         46
  52.4049         58
  52.4421         66
  52.4792         60
  52.5164         58
  52.5535         59
  52.5907         62
  52.6278         63
  52.6650         69
  52.7021         73
  52.7393         34
  52.7764         53
  52.8136         65
  52.8507         59
  52.8879         52
  52.9250         60
  52.9622         66
  52.9994         70
  53.0365         53
  53.0737         55
  53.1108         46
  53.1480         63
  53.1851         54
  53.2223         63
  53.2594         52
  53.2966         60
  53.3337         52
  53.3709         57
  53.4080         57
  53.4452         51
  53.4823         67
  53.5195         49
  53.5566         56
  53.5938         52
  53.6309         60
  53.6681         55
  53.7052         68
  53.7424         61
  53.7795         68
  53.8167         48
  53.8538         72
  53.8910         60
  53.9281         59
  53.9653         72
  54.0024         74
  54.0396         51
  54.0767         66
  54.1139         70
  54.1510         81
  54.1882         54
  54.2253         61
  54.2625         60
  54.2996         59
  54.3368         83
  54.3739         54
  54.4111         52
  54.4482         45
  54.4854         59
  54.5225         53
  54.5597         53
  54.5969         53
  54.6340         55
  54.6712         44
  54.7083         60
  54.7455         50
  54.7826         53
  54.8198         59
  54.8569         54
  54.8941         51
  54.9312         52
  54.9684         57
  55.0055         63
  55.0427         51
  55.0798         68
  55.1170         48
  55.1541         68
  55.1913         74
  55.2284         79
  55.2656         60
  55.3027         48
  55.3399         53
  55.3770         66
  55.4142         53
  55.4513         69
  55.4885         55
  55.5256         45
  55.5628         58
  55.5999         57
  55.6371         59
  55.6742         63
  55.7114         48
  55.7485         53
  55.7857         55
  55.8228         58
  55.8600         59
  55.8971         52
  55.9343         66
  55.9714         66
  56.0086         66
  56.0457         61
  56.0829         58
  56.1201         53
  56.1572         57
  56.1944         63
  56.2315         59
  56.2687         56
  56.3058         72
  56.3430         57
  56.3801         51
  56.4173         52
  56.4544         60
  56.4916         64
  56.5287         63
  56.5659         63
  56.6030         45
  56.6402         60
  56.6773         57
  56.7145         48
  56.7516         61
  56.7888         51
  56.8259         50
  56.8631         66
  56.9002         49
  56.9374         58
  56.9745         50
  57.0117         54
  57.0488         54
  57.0860         63
  57.1231         50
  57.1603         72
  57.1974         47
  57.2346         66
  57.2717         57
  57.3089         52
  57.3460         59
  57.3832         65
  57.4203         49
  57.4575         50
  57.4946         52
  57.5318         58
  57.5689         48
  57.6061         60
  57.6433         67
  57.6804         56
  57.7176         56
  57.7547         58
  57.7919         49
  57.8290         71
  57.8662         62
  57.9033         67
  57.9405         51
  57.9776         58
  58.0148         58
  58.0519         73
  58.0891         55
  58.1262         51
  58.1634         69
  58.2005         70
  58.2377         59
  58.2748         50
  58.3120         60
  58.3491         51
  58.3863         69
  58.4234         47
  58.4606         46
  58.4977         52
  58.5349         59
  58.5720         55
  58.6092         52
  58.6463         41
  58.6835         58
  58.7206         48
  58.7578         66
  58.7949         50
  58.8321         43
  58.8692         59
  58.9064         52
  58.9435         70
  58.9807         57
  59.0178         53
  59.0550         67
  59.0921         57
  59.1293         70
  59.1664         54
  59.2036         46
  59.2408         58
  59.2779         70
  59.3151         68
  59.3522         61
  59.3894         63
  59.4265         59
  59.4637         61
  59.5008         52
  59.5380         69
  59.5751         56
  59.6123         69
  59.6494         46
  59.6866         59
  59.7237         53
  59.7609         65
  59.7980         58
  59.8352         43
  59.8723         47
  59.9095         55
  59.9466         52
  59.9838         49
  60.0024         52