File: notebooks/data/xrd_data/ML_20220718_56_SJD_4_LaB6-2min.csv
;,2THETA,
5.0000,127
5.0372,139
5.0743,117
5.1115,118
5.1486,115
5.1858,118
5.2229,115
5.2601,134
5.2972,103
5.3344,124
5.3715,110
5.4087,113
5.4458,119
5.4830,123
5.5201,122
5.5573,120
5.5944,96
5.6316,115
5.6687,111
5.7059,107
5.7430,118
5.7802,93
5.8173,111
5.8545,100
5.8916,91
5.9288,97
5.9659,107
6.0031,110
6.0402,111
6.0774,117
6.1145,99
6.1517,88
6.1888,88
6.2260,90
6.2631,80
6.3003,78
6.3374,88
6.3746,104
6.4117,84
6.4489,103
6.4860,78
6.5232,91
6.5604,92
6.5975,69
6.6347,86
6.6718,87
6.7090,85
6.7461,75
6.7833,76
6.8204,73
6.8576,75
6.8947,85
6.9319,72
6.9690,83
7.0062,90
7.0433,70
7.0805,66
7.1176,78
7.1548,78
7.1919,66
7.2291,81
7.2662,80
7.3034,96
7.3405,81
7.3777,58
7.4148,73
7.4520,67
7.4891,60
7.5263,77
7.5634,94
7.6006,101
7.6377,98
7.6749,88
7.7120,75
7.7492,101
7.7863,86
7.8235,68
7.8606,95
7.8978,113
7.9349,86
7.9721,104
8.0092,87
8.0464,95
8.0835,99
8.1207,102
8.1579,92
8.1950,92
8.2322,95
8.2693,107
8.3065,92
8.3436,101
8.3808,104
8.4179,87
8.4551,94
8.4922,84
8.5294,86
8.5665,107
8.6037,107
8.6408,101
8.6780,101
8.7151,113
8.7523,114
8.7894,103
8.8266,102
8.8637,107
8.9009,106
8.9380,108
8.9752,101
9.0123,110
9.0495,107
9.0866,90
9.1238,101
9.1609,100
9.1981,113
9.2352,104
9.2724,119
9.3095,110
9.3467,108
9.3838,90
9.4210,110
9.4581,118
9.4953,99
9.5324,117
9.5696,128
9.6067,105
9.6439,94
9.6811,114
9.7182,105
9.7554,104
9.7925,107
9.8297,126
9.8668,82
9.9040,120
9.9411,121
9.9783,103
10.0154,120
10.0526,96
10.0897,103
10.1269,125
10.1640,130
10.2012,111
10.2383,109
10.2755,119
10.3126,132
10.3498,111
10.3869,112
10.4241,115
10.4612,97
10.4984,125
10.5355,131
10.5727,128
10.6098,134
10.6470,119
10.6841,122
10.7213,124
10.7584,101
10.7956,138
10.8327,117
10.8699,127
10.9070,120
10.9442,110
10.9813,102
11.0185,95
11.0556,117
11.0928,121
11.1299,105
11.1671,96
11.2043,110
11.2414,133
11.2786,122
11.3157,130
11.3529,105
11.3900,119
11.4272,114
11.4643,107
11.5015,113
11.5386,141
11.5758,129
11.6129,108
11.6501,140
11.6872,131
11.7244,123
11.7615,118
11.7987,115
11.8358,109
11.8730,126
11.9101,113
11.9473,106
11.9844,108
12.0216,100
12.0587,120
12.0959,125
12.1330,118
12.1702,103
12.2073,111
12.2445,120
12.2816,102
12.3188,121
12.3559,100
12.3931,122
12.4302,90
12.4674,115
12.5045,110
12.5417,94
12.5788,112
12.6160,117
12.6531,114
12.6903,110
12.7274,112
12.7646,103
12.8018,117
12.8389,101
12.8761,107
12.9132,109
12.9504,93
12.9875,83
13.0247,110
13.0618,128
13.0990,101
13.1361,100
13.1733,96
13.2104,91
13.2476,97
13.2847,93
13.3219,114
13.3590,103
13.3962,116
13.4333,92
13.4705,100
13.5076,105
13.5448,93
13.5819,116
13.6191,91
13.6562,94
13.6934,90
13.7305,73
13.7677,88
13.8048,106
13.8420,77
13.8791,99
13.9163,78
13.9534,103
13.9906,87
14.0277,83
14.0649,97
14.1020,77
14.1392,89
14.1763,91
14.2135,82
14.2506,83
14.2878,79
14.3250,96
14.3621,90
14.3993,89
14.4364,78
14.4736,82
14.5107,74
14.5479,89
14.5850,94
14.6222,80
14.6593,86
14.6965,87
14.7336,75
14.7708,95
14.8079,80
14.8451,81
14.8822,76
14.9194,96
14.9565,86
14.9937,69
15.0308,83
15.0680,88
15.1051,82
15.1423,86
15.1794,104
15.2166,94
15.2537,84
15.2909,81
15.3280,77
15.3652,84
15.4023,96
15.4395,83
15.4766,85
15.5138,80
15.5509,93
15.5881,81
15.6252,75
15.6624,85
15.6995,73
15.7367,99
15.7738,88
15.8110,88
15.8482,96
15.8853,94
15.9225,84
15.9596,73
15.9968,84
16.0339,87
16.0711,74
16.1082,79
16.1454,73
16.1825,85
16.2197,90
16.2568,81
16.2940,77
16.3311,84
16.3683,74
16.4054,80
16.4426,70
16.4797,73
16.5169,76
16.5540,76
16.5912,70
16.6283,89
16.6655,86
16.7026,81
16.7398,82
16.7769,79
16.8141,78
16.8512,70
16.8884,88
16.9255,82
16.9627,76
16.9998,81
17.0370,83
17.0741,82
17.1113,79
17.1484,79
17.1856,73
17.2227,76
17.2599,76
17.2970,86
17.3342,72
17.3713,87
17.4085,81
17.4457,78
17.4828,58
17.5200,92
17.5571,74
17.5943,93
17.6314,66
17.6686,97
17.7057,75
17.7429,74
17.7800,87
17.8172,86
17.8543,77
17.8915,90
17.9286,79
17.9658,88
18.0029,77
18.0401,82
18.0772,82
18.1144,86
18.1515,91
18.1887,77
18.2258,64
18.2630,82
18.3001,66
18.3373,84
18.3744,69
18.4116,84
18.4487,85
18.4859,87
18.5230,83
18.5602,87
18.5973,88
18.6345,89
18.6716,76
18.7088,85
18.7459,77
18.7831,70
18.8202,82
18.8574,89
18.8945,87
18.9317,90
18.9689,87
19.0060,86
19.0432,86
19.0803,79
19.1175,77
19.1546,72
19.1918,90
19.2289,102
19.2661,92
19.3032,77
19.3404,92
19.3775,83
19.4147,93
19.4518,82
19.4890,94
19.5261,87
19.5633,93
19.6004,94
19.6376,78
19.6747,92
19.7119,95
19.7490,82
19.7862,74
19.8233,94
19.8605,91
19.8976,77
19.9348,79
19.9719,81
20.0091,91
20.0462,88
20.0834,81
20.1205,87
20.1577,74
20.1948,93
20.2320,86
20.2691,102
20.3063,82
20.3434,84
20.3806,93
20.4177,83
20.4549,90
20.4921,91
20.5292,80
20.5664,86
20.6035,95
20.6407,93
20.6778,98
20.7150,85
20.7521,87
20.7893,91
20.8264,84
20.8636,102
20.9007,94
20.9379,77
20.9750,91
21.0122,99
21.0493,81
21.0865,80
21.1236,97
21.1608,102
21.1979,129
21.2351,168
21.2722,142
21.3094,177
21.3465,253
21.3837,228
21.4208,182
21.4580,123
21.4951,102
21.5323,94
21.5694,93
21.6066,91
21.6437,107
21.6809,109
21.7180,103
21.7552,94
21.7923,96
21.8295,104
21.8666,100
21.9038,98
21.9409,92
21.9781,105
22.0152,84
22.0524,102
22.0896,82
22.1267,91
22.1639,81
22.2010,85
22.2382,102
22.2753,75
22.3125,93
22.3496,103
22.3868,110
22.4239,107
22.4611,100
22.4982,103
22.5354,85
22.5725,119
22.6097,101
22.6468,113
22.6840,105
22.7211,101
22.7583,113
22.7954,73
22.8326,120
22.8697,87
22.9069,112
22.9440,105
22.9812,90
23.0183,109
23.0555,98
23.0926,103
23.1298,87
23.1669,127
23.2041,92
23.2412,100
23.2784,113
23.3155,82
23.3527,115
23.3898,102
23.4270,91
23.4641,93
23.5013,77
23.5384,86
23.5756,85
23.6128,108
23.6499,99
23.6871,88
23.7242,103
23.7614,99
23.7985,80
23.8357,97
23.8728,112
23.9100,90
23.9471,105
23.9843,84
24.0214,85
24.0586,100
24.0957,90
24.1329,111
24.1700,114
24.2072,101
24.2443,87
24.2815,111
24.3186,96
24.3558,116
24.3929,112
24.4301,103
24.4672,100
24.5044,101
24.5415,78
24.5787,91
24.6158,86
24.6530,82
24.6901,95
24.7273,105
24.7644,90
24.8016,102
24.8387,109
24.8759,97
24.9130,98
24.9502,108
24.9873,126
25.0245,96
25.0616,91
25.0988,84
25.1360,96
25.1731,98
25.2103,94
25.2474,101
25.2846,110
25.3217,106
25.3589,95
25.3960,99
25.4332,85
25.4703,94
25.5075,86
25.5446,96
25.5818,97
25.6189,82
25.6561,106
25.6932,107
25.7304,94
25.7675,85
25.8047,99
25.8418,82
25.8790,103
25.9161,96
25.9533,106
25.9904,112
26.0276,91
26.0647,100
26.1019,87
26.1390,97
26.1762,91
26.2133,96
26.2505,96
26.2876,93
26.3248,105
26.3619,89
26.3991,91
26.4362,77
26.4734,82
26.5105,92
26.5477,106
26.5848,85
26.6220,100
26.6591,90
26.6963,102
26.7335,88
26.7706,96
26.8078,69
26.8449,103
26.8821,96
26.9192,98
26.9564,83
26.9935,95
27.0307,112
27.0678,83
27.1050,105
27.1421,118
27.1793,104
27.2164,131
27.2536,119
27.2907,123
27.3279,83
27.3650,86
27.4022,85
27.4393,93
27.4765,81
27.5136,79
27.5508,110
27.5879,84
27.6251,81
27.6622,95
27.6994,98
27.7365,74
27.7737,81
27.8108,89
27.8480,87
27.8851,103
27.9223,98
27.9594,86
27.9966,79
28.0337,88
28.0709,85
28.1080,83
28.1452,97
28.1823,87
28.2195,79
28.2567,98
28.2938,86
28.3310,75
28.3681,83
28.4053,84
28.4424,85
28.4796,80
28.5167,80
28.5539,83
28.5910,80
28.6282,86
28.6653,102
28.7025,77
28.7396,68
28.7768,73
28.8139,87
28.8511,95
28.8882,84
28.9254,79
28.9625,96
28.9997,70
29.0368,79
29.0740,84
29.1111,96
29.1483,78
29.1854,66
29.2226,73
29.2597,73
29.2969,100
29.3340,75
29.3712,96
29.4083,74
29.4455,79
29.4826,86
29.5198,80
29.5569,78
29.5941,86
29.6312,82
29.6684,71
29.7055,86
29.7427,74
29.7799,76
29.8170,62
29.8542,68
29.8913,67
29.9285,88
29.9656,85
30.0028,90
30.0399,78
30.0771,88
30.1142,67
30.1514,85
30.1885,81
30.2257,90
30.2628,66
30.3000,88
30.3371,101
30.3743,144
30.4114,119
30.4486,116
30.4857,117
30.5229,83
30.5600,92
30.5972,60
30.6343,72
30.6715,70
30.7086,88
30.7458,81
30.7829,61
30.8201,70
30.8572,75
30.8944,55
30.9315,69
30.9687,68
31.0058,73
31.0430,53
31.0801,64
31.1173,54
31.1544,69
31.1916,78
31.2287,88
31.2659,80
31.3030,60
31.3402,65
31.3774,73
31.4145,60
31.4517,63
31.4888,66
31.5260,53
31.5631,57
31.6003,59
31.6374,63
31.6746,66
31.7117,63
31.7489,68
31.7860,74
31.8232,71
31.8603,71
31.8975,65
31.9346,76
31.9718,77
32.0089,55
32.0461,78
32.0832,53
32.1204,68
32.1575,70
32.1947,76
32.2318,52
32.2690,67
32.3061,83
32.3433,68
32.3804,60
32.4176,85
32.4547,70
32.4919,81
32.5290,70
32.5662,75
32.6033,59
32.6405,62
32.6776,62
32.7148,56
32.7519,54
32.7891,62
32.8262,62
32.8634,52
32.9006,69
32.9377,64
32.9749,65
33.0120,54
33.0492,72
33.0863,59
33.1235,61
33.1606,70
33.1978,58
33.2349,58
33.2721,68
33.3092,57
33.3464,52
33.3835,57
33.4207,58
33.4578,54
33.4950,53
33.5321,59
33.5693,69
33.6064,58
33.6436,67
33.6807,51
33.7179,49
33.7550,63
33.7922,48
33.8293,53
33.8665,53
33.9036,56
33.9408,71
33.9779,48
34.0151,52
34.0522,63
34.0894,70
34.1265,59
34.1637,49
34.2008,54
34.2380,75
34.2751,51
34.3123,72
34.3494,60
34.3866,66
34.4238,66
34.4609,46
34.4981,61
34.5352,50
34.5724,59
34.6095,70
34.6467,70
34.6838,68
34.7210,66
34.7581,92
34.7953,60
34.8324,91
34.8696,80
34.9067,68
34.9439,46
34.9810,50
35.0182,57
35.0553,58
35.0925,55
35.1296,44
35.1668,37
35.2039,50
35.2411,45
35.2782,51
35.3154,39
35.3525,58
35.3897,52
35.4268,57
35.4640,50
35.5011,55
35.5383,41
35.5754,42
35.6126,52
35.6497,54
35.6869,51
35.7240,44
35.7612,47
35.7983,36
35.8355,43
35.8726,58
35.9098,52
35.9469,52
35.9841,43
36.0213,44
36.0584,44
36.0956,45
36.1327,55
36.1699,45
36.2070,40
36.2442,53
36.2813,42
36.3185,45
36.3556,50
36.3928,44
36.4299,43
36.4671,45
36.5042,48
36.5414,40
36.5785,36
36.6157,48
36.6528,43
36.6900,41
36.7271,42
36.7643,40
36.8014,49
36.8386,41
36.8757,45
36.9129,52
36.9500,40
36.9872,46
37.0243,33
37.0615,35
37.0986,50
37.1358,38
37.1729,56
37.2101,45
37.2472,51
37.2844,55
37.3215,49
37.3587,55
37.3958,49
37.4330,67
37.4701,66
37.5073,61
37.5445,58
37.5816,42
37.6188,46
37.6559,48
37.6931,40
37.7302,43
37.7674,49
37.8045,53
37.8417,45
37.8788,51
37.9160,51
37.9531,38
37.9903,37
38.0274,50
38.0646,32
38.1017,34
38.1389,42
38.1760,36
38.2132,47
38.2503,47
38.2875,30
38.3246,45
38.3618,53
38.3989,36
38.4361,32
38.4732,41
38.5104,40
38.5475,39
38.5847,48
38.6218,40
38.6590,47
38.6961,35
38.7333,36
38.7704,37
38.8076,39
38.8447,40
38.8819,43
38.9190,36
38.9562,35
38.9933,31
39.0305,31
39.0677,49
39.1048,32
39.1420,32
39.1791,26
39.2163,42
39.2534,38
39.2906,47
39.3277,40
39.3649,47
39.4020,37
39.4392,46
39.4763,42
39.5135,41
39.5506,43
39.5878,52
39.6249,36
39.6621,47
39.6992,43
39.7364,50
39.7735,34
39.8107,37
39.8478,46
39.8850,37
39.9221,47
39.9593,55
39.9964,32
40.0336,35
40.0707,29
40.1079,29
40.1450,26
40.1822,37
40.2193,44
40.2565,31
40.2936,40
40.3308,42
40.3679,36
40.4051,41
40.4422,40
40.4794,41
40.5165,43
40.5537,38
40.5908,36
40.6280,40
40.6652,26
40.7023,37
40.7395,26
40.7766,40
40.8138,38
40.8509,33
40.8881,46
40.9252,52
40.9624,45
40.9995,50
41.0367,41
41.0738,40
41.1110,32
41.1481,34
41.1853,32
41.2224,39
41.2596,27
41.2967,44
41.3339,38
41.3710,37
41.4082,39
41.4453,43
41.4825,47
41.5196,48
41.5568,29
41.5939,41
41.6311,44
41.6682,31
41.7054,31
41.7425,31
41.7797,47
41.8168,29
41.8540,44
41.8911,35
41.9283,36
41.9654,38
42.0026,35
42.0397,37
42.0769,33
42.1140,38
42.1512,29
42.1884,41
42.2255,45
42.2627,32
42.2998,35
42.3370,22
42.3741,35
42.4113,32
42.4484,30
42.4856,41
42.5227,36
42.5599,39
42.5970,32
42.6342,35
42.6713,27
42.7085,41
42.7456,35
42.7828,33
42.8199,29
42.8571,43
42.8942,33
42.9314,36
42.9685,38
43.0057,35
43.0428,18
43.0800,54
43.1171,42
43.1543,51
43.1914,52
43.2286,36
43.2657,39
43.3029,39
43.3400,42
43.3772,43
43.4143,55
43.4515,38
43.4886,63
43.5258,59
43.5629,33
43.6001,59
43.6372,44
43.6744,40
43.7116,42
43.7487,26
43.7859,29
43.8230,29
43.8602,43
43.8973,24
43.9345,30
43.9716,39
44.0088,48
44.0459,30
44.0831,42
44.1202,41
44.1574,28
44.1945,44
44.2317,44
44.2688,45
44.3060,44
44.3431,32
44.3803,31
44.4174,31
44.4546,35
44.4917,29
44.5289,49
44.5660,29
44.6032,36
44.6403,31
44.6775,40
44.7146,31
44.7518,42
44.7889,26
44.8261,43
44.8632,31
44.9004,32
44.9375,31
44.9747,28
45.0118,32
45.0490,26
45.0861,30
45.1233,25
45.1604,40
45.1976,31
45.2347,28
45.2719,43
45.3091,43
45.3462,41
45.3834,22
45.4205,32
45.4577,29
45.4948,29
45.5320,38
45.5691,35
45.6063,49
45.6434,33
45.6806,27
45.7177,44
45.7549,37
45.7920,26
45.8292,28
45.8663,41
45.9035,31
45.9406,31
45.9778,43
46.0149,27
46.0521,33
46.0892,35
46.1264,28
46.1635,34
46.2007,36
46.2378,43
46.2750,30
46.3121,41
46.3493,29
46.3864,34
46.4236,34
46.4607,35
46.4979,28
46.5350,23
46.5722,33
46.6093,41
46.6465,34
46.6836,34
46.7208,26
46.7579,35
46.7951,29
46.8323,28
46.8694,30
46.9066,36
46.9437,31
46.9809,27
47.0180,28
47.0552,28
47.0923,39
47.1295,31
47.1666,43
47.2038,24
47.2409,29
47.2781,39
47.3152,26
47.3524,33
47.3895,38
47.4267,35
47.4638,34
47.5010,32
47.5381,30
47.5753,31
47.6124,26
47.6496,33
47.6867,32
47.7239,28
47.7610,24
47.7982,32
47.8353,29
47.8725,31
47.9096,25
47.9468,25
47.9839,27
48.0211,30
48.0582,28
48.0954,21
48.1325,42
48.1697,26
48.2068,30
48.2440,30
48.2811,32
48.3183,31
48.3555,25
48.3926,39
48.4298,24
48.4669,23
48.5041,31
48.5412,29
48.5784,32
48.6155,40
48.6527,23
48.6898,28
48.7270,32
48.7641,39
48.8013,30
48.8384,30
48.8756,36
48.9127,43
48.9499,64
48.9870,46
49.0242,32
49.0613,48
49.0985,46
49.1356,40
49.1728,33
49.2099,37
49.2471,35
49.2842,33
49.3214,39
49.3585,28
49.3957,25
49.4328,39
49.4700,35
49.5071,30
49.5443,30
49.5814,32
49.6186,27
49.6557,32
49.6929,27
49.7300,34
49.7672,33
49.8043,29
49.8415,30
49.8786,24
49.9158,35
49.9530,35
49.9901,22
50.0273,34
50.0644,21
50.1016,22
50.1387,24
50.1759,28
50.2130,32
50.2502,32
50.2873,34
50.3245,24
50.3616,22
50.3988,34
50.4359,25
50.4731,28
50.5102,31
50.5474,37
50.5845,38
50.6217,29
50.6588,23
50.6960,27
50.7331,31
50.7703,28
50.8074,26
50.8446,34
50.8817,35
50.9189,27
50.9560,25
50.9932,16
51.0303,28
51.0675,30
51.1046,40
51.1418,30
51.1789,34
51.2161,27
51.2532,29
51.2904,34
51.3275,34
51.3647,30
51.4018,43
51.4390,41
51.4762,32
51.5133,29
51.5505,29
51.5876,26
51.6248,27
51.6619,25
51.6991,27
51.7362,39
51.7734,27
51.8105,36
51.8477,36
51.8848,36
51.9220,28
51.9591,42
51.9963,32
52.0334,34
52.0706,26
52.1077,24
52.1449,19
52.1820,27
52.2192,27
52.2563,22
52.2935,28
52.3306,28
52.3678,36
52.4049,38
52.4421,20
52.4792,32
52.5164,26
52.5535,20
52.5907,25
52.6278,31
52.6650,27
52.7021,33
52.7393,25
52.7764,37
52.8136,27
52.8507,36
52.8879,31
52.9250,29
52.9622,28
52.9994,35
53.0365,38
53.0737,27
53.1108,38
53.1480,35
53.1851,28
53.2223,35
53.2594,29
53.2966,25
53.3337,23
53.3709,27
53.4080,27
53.4452,28
53.4823,23
53.5195,29
53.5566,33
53.5938,30
53.6309,27
53.6681,32
53.7052,29
53.7424,35
53.7795,29
53.8167,27
53.8538,35
53.8910,27
53.9281,27
53.9653,29
54.0024,39
54.0396,37
54.0767,29
54.1139,32
54.1510,34
54.1882,27
54.2253,30
54.2625,34
54.2996,29
54.3368,39
54.3739,31
54.4111,23
54.4482,26
54.4854,26
54.5225,16
54.5597,31
54.5969,27
54.6340,19
54.6712,45
54.7083,34
54.7455,19
54.7826,24
54.8198,26
54.8569,37
54.8941,26
54.9312,30
54.9684,27
55.0055,19
55.0427,25
55.0798,29
55.1170,22
55.1541,22
55.1913,30
55.2284,28
55.2656,34
55.3027,29
55.3399,31
55.3770,21
55.4142,29
55.4513,29
55.4885,26
55.5256,35
55.5628,21
55.5999,20
55.6371,27
55.6742,25
55.7114,31
55.7485,31
55.7857,29
55.8228,26
55.8600,31
55.8971,24
55.9343,28
55.9714,19
56.0086,31
56.0457,27
56.0829,23
56.1201,27
56.1572,34
56.1944,30
56.2315,33
56.2687,29
56.3058,23
56.3430,39
56.3801,30
56.4173,29
56.4544,32
56.4916,35
56.5287,23
56.5659,24
56.6030,22
56.6402,26
56.6773,26
56.7145,26
56.7516,32
56.7888,21
56.8259,29
56.8631,28
56.9002,33
56.9374,22
56.9745,25
57.0117,24
57.0488,22
57.0860,27
57.1231,24
57.1603,32
57.1974,23
57.2346,29
57.2717,32
57.3089,24
57.3460,37
57.3832,36
57.4203,29
57.4575,28
57.4946,20
57.5318,20
57.5689,23
57.6061,22
57.6433,36
57.6804,33
57.7176,28
57.7547,18
57.7919,32
57.8290,28
57.8662,24
57.9033,27
57.9405,28
57.9776,34
58.0148,32
58.0519,28
58.0891,30
58.1262,27
58.1634,32
58.2005,27
58.2377,30
58.2748,28
58.3120,29
58.3491,19
58.3863,30
58.4234,33
58.4606,31
58.4977,27
58.5349,20
58.5720,30
58.6092,29
58.6463,25
58.6835,23
58.7206,17
58.7578,22
58.7949,27
58.8321,28
58.8692,22
58.9064,22
58.9435,19
58.9807,21
59.0178,24
59.0550,30
59.0921,27
59.1293,27
59.1664,22
59.2036,36
59.2408,28
59.2779,33
59.3151,26
59.3522,31
59.3894,33
59.4265,28
59.4637,21
59.5008,31
59.5380,25
59.5751,30
59.6123,24
59.6494,18
59.6866,28
59.7237,29
59.7609,22
59.7980,26
59.8352,32
59.8723,24
59.9095,28
59.9466,25
59.9838,26
60.0024,33