File: notebooks/data/xrd_data/ML_20220721_15_SJD_4_LaB6-4min.uxd
; (content of file Y:\Sam\Apurva-07-20-2022\puck1\ML_20220721_15_SJD_0_LaB6-4min.raw)
_FILEVERSION = 3
_SAMPLE = ML_20220721_15_SJD_0_LaB6-4min
_+SAMPLE =
_SITE = USA
_USER = Administrator
_GONIOMETER_CODE = 20
; Goniometer : D8 theta/2theta, stage : Unknown
_ATTACHMENTS_CODE = 0
_GONIOMETER_RADIUS = 200.5
_FIXED_DIVSLIT = 0.6
_FIXED_SAMPLESLIT = 0
_SOLLER_SLITS = 2
_FIXED_DETSLIT = 9.55
_MONOCHROMATOR = 0
; Incident beam monochromator : None
_SOLLER_SLITS_2 = N
_THIN_FILM = N
_BETA_FILTER = Y
_FIXED_ANTISLIT = 5.89
_ANALYZER_CODE = 0
; Received beam analyzer : None
_DATEMEASURED = "25-Jul-2022 14:59:49"
_WL_UNIT = A
_WL1 = 1.5406
_WL2 = 1.54439
_WL3 = 1.39222
_WLRATIO = 0.5
_ANODE = Cu
_V4_INF_CREATOR = XRDWizard
_V4_INF_CREATOR_VERSION = V2.9.0.22
_V4_INF_WIZARD_VERSION = V2.9.0.22
_V4_INF_WIZARD_ADDINS = V2.9.0.22
_V4_INF_WIZARD_DOCTYPE = XRD
_V4_INF_OSUSER = McQueenLab
_V4_INF_USER = Administrator
_V4_INF_SITE = USA
_V4_INF_SAMPLEID = ML_20220721_15_SJD_0_LaB6-4min

; Data for range 1
_DRIVE = COUPLED
_STEPTIME = 11.28
_STEPSIZE = 0.0185756
_STEPMODE = C
_START = 5
_THETA = 2.5
_2THETA = 5
_KHI = 0
_PHI = 0
_X = 0
_Y = 0
_Z = 0
_DETECTOR = 5
; Detector type : Unknown
_DETECTORSLIT = unkn
_AUX1 = 0
_AUX2 = 0
_AUX3 = 0
_TIMESTARTED = 15
_TEMP_RATE = -1
_TEMP_DELAY = -1
_KV = 40
_MA = 40
_RANGE_WL = 1.5406
_3DPLANE = 0
_V4_ADDITIONALDETECTOR = 257
_V4_PSD2THETA = 3.3877
_V4_PSDCHANNEL1 = 0
_V4_PSDAPERTURE = 12.68
_V4_PSDTYPE = 5
_V4_PSDFIXED = 0
_V4_COUNTERS_MASK = 4096
_V4_DRIVES_MASK = 0
_V4_ENCODERS_MASK = 0
_2THETACOUNTS = 1
; 2THETA  PSD
   5.0000        298
   5.0372        254
   5.0743        246
   5.1115        264
   5.1486        265
   5.1858        255
   5.2229        252
   5.2601        263
   5.2972        246
   5.3344        239
   5.3715        217
   5.4087        239
   5.4458        227
   5.4830        236
   5.5201        239
   5.5573        234
   5.5944        223
   5.6316        221
   5.6687        195
   5.7059        232
   5.7430        212
   5.7802        233
   5.8173        207
   5.8545        200
   5.8916        231
   5.9288        198
   5.9659        181
   6.0031        183
   6.0402        201
   6.0774        210
   6.1145        185
   6.1517        212
   6.1888        212
   6.2260        191
   6.2631        182
   6.3003        209
   6.3374        180
   6.3746        181
   6.4117        175
   6.4489        209
   6.4860        160
   6.5232        197
   6.5604        170
   6.5975        188
   6.6347        194
   6.6718        178
   6.7090        168
   6.7461        176
   6.7833        173
   6.8204        154
   6.8576        173
   6.8947        153
   6.9319        182
   6.9690        149
   7.0062        150
   7.0433        175
   7.0805        157
   7.1176        160
   7.1548        156
   7.1919        171
   7.2291        193
   7.2662        160
   7.3034        155
   7.3405        148
   7.3777        167
   7.4148        184
   7.4520        165
   7.4891        159
   7.5263        189
   7.5634        177
   7.6006        187
   7.6377        142
   7.6749        178
   7.7120        192
   7.7492        178
   7.7863        200
   7.8235        188
   7.8606        181
   7.8978        172
   7.9349        185
   7.9721        200
   8.0092        188
   8.0464        178
   8.0835        157
   8.1207        208
   8.1579        202
   8.1950        206
   8.2322        206
   8.2693        179
   8.3065        169
   8.3436        187
   8.3808        191
   8.4179        175
   8.4551        202
   8.4922        187
   8.5294        184
   8.5665        184
   8.6037        198
   8.6408        228
   8.6780        193
   8.7151        222
   8.7523        213
   8.7894        193
   8.8266        231
   8.8637        209
   8.9009        196
   8.9380        206
   8.9752        197
   9.0123        200
   9.0495        242
   9.0866        192
   9.1238        213
   9.1609        219
   9.1981        220
   9.2352        201
   9.2724        227
   9.3095        237
   9.3467        219
   9.3838        232
   9.4210        218
   9.4581        223
   9.4953        219
   9.5324        213
   9.5696        251
   9.6067        211
   9.6439        254
   9.6811        220
   9.7182        202
   9.7554        206
   9.7925        237
   9.8297        252
   9.8668        266
   9.9040        264
   9.9411        266
   9.9783        241
  10.0154        274
  10.0526        230
  10.0897        231
  10.1269        244
  10.1640        256
  10.2012        249
  10.2383        231
  10.2755        240
  10.3126        220
  10.3498        268
  10.3869        241
  10.4241        243
  10.4612        223
  10.4984        244
  10.5355        247
  10.5727        254
  10.6098        214
  10.6470        235
  10.6841        273
  10.7213        207
  10.7584        238
  10.7956        240
  10.8327        230
  10.8699        221
  10.9070        229
  10.9442        219
  10.9813        228
  11.0185        233
  11.0556        210
  11.0928        254
  11.1299        226
  11.1671        248
  11.2043        221
  11.2414        250
  11.2786        233
  11.3157        210
  11.3529        237
  11.3900        257
  11.4272        253
  11.4643        250
  11.5015        266
  11.5386        233
  11.5758        253
  11.6129        234
  11.6501        232
  11.6872        240
  11.7244        256
  11.7615        227
  11.7987        228
  11.8358        262
  11.8730        231
  11.9101        230
  11.9473        221
  11.9844        222
  12.0216        247
  12.0587        241
  12.0959        235
  12.1330        252
  12.1702        218
  12.2073        228
  12.2445        243
  12.2816        237
  12.3188        235
  12.3559        216
  12.3931        202
  12.4302        216
  12.4674        228
  12.5045        240
  12.5417        232
  12.5788        227
  12.6160        231
  12.6531        223
  12.6903        237
  12.7274        237
  12.7646        202
  12.8018        206
  12.8389        200
  12.8761        218
  12.9132        237
  12.9504        213
  12.9875        235
  13.0247        221
  13.0618        203
  13.0990        185
  13.1361        218
  13.1733        201
  13.2104        192
  13.2476        237
  13.2847        217
  13.3219        201
  13.3590        228
  13.3962        210
  13.4333        218
  13.4705        198
  13.5076        211
  13.5448        190
  13.5819        189
  13.6191        204
  13.6562        183
  13.6934        166
  13.7305        173
  13.7677        174
  13.8048        189
  13.8420        198
  13.8791        167
  13.9163        171
  13.9534        182
  13.9906        184
  14.0277        219
  14.0649        169
  14.1020        170
  14.1392        198
  14.1763        169
  14.2135        200
  14.2506        208
  14.2878        158
  14.3250        188
  14.3621        184
  14.3993        196
  14.4364        193
  14.4736        171
  14.5107        173
  14.5479        178
  14.5850        174
  14.6222        192
  14.6593        182
  14.6965        203
  14.7336        194
  14.7708        189
  14.8079        153
  14.8451        169
  14.8822        162
  14.9194        170
  14.9565        157
  14.9937        198
  15.0308        161
  15.0680        153
  15.1051        176
  15.1423        152
  15.1794        170
  15.2166        179
  15.2537        150
  15.2909        181
  15.3280        162
  15.3652        162
  15.4023        181
  15.4395        172
  15.4766        166
  15.5138        164
  15.5509        186
  15.5881        141
  15.6252        175
  15.6624        155
  15.6995        168
  15.7367        158
  15.7738        158
  15.8110        150
  15.8482        173
  15.8853        148
  15.9225        172
  15.9596        167
  15.9968        158
  16.0339        176
  16.0711        188
  16.1082        155
  16.1454        158
  16.1825        184
  16.2197        132
  16.2568        191
  16.2940        155
  16.3311        170
  16.3683        170
  16.4054        148
  16.4426        175
  16.4797        170
  16.5169        176
  16.5540        175
  16.5912        172
  16.6283        171
  16.6655        174
  16.7026        164
  16.7398        171
  16.7769        147
  16.8141        168
  16.8512        143
  16.8884        166
  16.9255        174
  16.9627        157
  16.9998        173
  17.0370        171
  17.0741        164
  17.1113        160
  17.1484        193
  17.1856        180
  17.2227        169
  17.2599        140
  17.2970        169
  17.3342        166
  17.3713        160
  17.4085        152
  17.4457        176
  17.4828        198
  17.5200        154
  17.5571        182
  17.5943        142
  17.6314        174
  17.6686        144
  17.7057        145
  17.7429        163
  17.7800        168
  17.8172        161
  17.8543        194
  17.8915        139
  17.9286        178
  17.9658        149
  18.0029        176
  18.0401        198
  18.0772        178
  18.1144        174
  18.1515        169
  18.1887        170
  18.2258        185
  18.2630        172
  18.3001        168
  18.3373        161
  18.3744        145
  18.4116        161
  18.4487        173
  18.4859        172
  18.5230        167
  18.5602        168
  18.5973        173
  18.6345        186
  18.6716        177
  18.7088        189
  18.7459        161
  18.7831        165
  18.8202        183
  18.8574        164
  18.8945        152
  18.9317        183
  18.9689        189
  19.0060        150
  19.0432        184
  19.0803        183
  19.1175        167
  19.1546        185
  19.1918        191
  19.2289        184
  19.2661        182
  19.3032        176
  19.3404        167
  19.3775        199
  19.4147        166
  19.4518        171
  19.4890        151
  19.5261        166
  19.5633        180
  19.6004        181
  19.6376        162
  19.6747        179
  19.7119        180
  19.7490        172
  19.7862        171
  19.8233        174
  19.8605        171
  19.8976        198
  19.9348        185
  19.9719        206
  20.0091        181
  20.0462        197
  20.0834        182
  20.1205        177
  20.1577        168
  20.1948        169
  20.2320        172
  20.2691        198
  20.3063        189
  20.3434        190
  20.3806        196
  20.4177        184
  20.4549        198
  20.4921        177
  20.5292        207
  20.5664        187
  20.6035        175
  20.6407        210
  20.6778        165
  20.7150        183
  20.7521        178
  20.7893        175
  20.8264        193
  20.8636        162
  20.9007        189
  20.9379        205
  20.9750        176
  21.0122        201
  21.0493        204
  21.0865        199
  21.1236        205
  21.1608        216
  21.1979        297
  21.2351        331
  21.2722        303
  21.3094        328
  21.3465        520
  21.3837        417
  21.4208        362
  21.4580        215
  21.4951        219
  21.5323        186
  21.5694        205
  21.6066        208
  21.6437        201
  21.6809        189
  21.7180        210
  21.7552        183
  21.7923        186
  21.8295        204
  21.8666        229
  21.9038        192
  21.9409        210
  21.9781        177
  22.0152        214
  22.0524        173
  22.0896        177
  22.1267        185
  22.1639        179
  22.2010        172
  22.2382        189
  22.2753        206
  22.3125        219
  22.3496        185
  22.3868        204
  22.4239        216
  22.4611        192
  22.4982        198
  22.5354        221
  22.5725        192
  22.6097        187
  22.6468        197
  22.6840        198
  22.7211        224
  22.7583        180
  22.7954        228
  22.8326        200
  22.8697        205
  22.9069        220
  22.9440        196
  22.9812        209
  23.0183        183
  23.0555        186
  23.0926        186
  23.1298        206
  23.1669        222
  23.2041        212
  23.2412        202
  23.2784        209
  23.3155        201
  23.3527        231
  23.3898        213
  23.4270        191
  23.4641        201
  23.5013        203
  23.5384        212
  23.5756        216
  23.6128        196
  23.6499        228
  23.6871        179
  23.7242        200
  23.7614        203
  23.7985        199
  23.8357        205
  23.8728        229
  23.9100        217
  23.9471        190
  23.9843        210
  24.0214        191
  24.0586        217
  24.0957        195
  24.1329        206
  24.1700        182
  24.2072        226
  24.2443        228
  24.2815        216
  24.3186        225
  24.3558        220
  24.3929        219
  24.4301        216
  24.4672        210
  24.5044        236
  24.5415        202
  24.5787        194
  24.6158        197
  24.6530        227
  24.6901        198
  24.7273        200
  24.7644        214
  24.8016        172
  24.8387        185
  24.8759        203
  24.9130        193
  24.9502        179
  24.9873        233
  25.0245        203
  25.0616        215
  25.0988        199
  25.1360        219
  25.1731        196
  25.2103        166
  25.2474        191
  25.2846        210
  25.3217        218
  25.3589        193
  25.3960        216
  25.4332        191
  25.4703        192
  25.5075        205
  25.5446        186
  25.5818        183
  25.6189        204
  25.6561        204
  25.6932        199
  25.7304        195
  25.7675        201
  25.8047        205
  25.8418        222
  25.8790        194
  25.9161        188
  25.9533        190
  25.9904        179
  26.0276        191
  26.0647        183
  26.1019        197
  26.1390        201
  26.1762        188
  26.2133        202
  26.2505        202
  26.2876        221
  26.3248        200
  26.3619        188
  26.3991        204
  26.4362        194
  26.4734        165
  26.5105        196
  26.5477        168
  26.5848        191
  26.6220        189
  26.6591        190
  26.6963        193
  26.7335        211
  26.7706        183
  26.8078        175
  26.8449        184
  26.8821        196
  26.9192        177
  26.9564        173
  26.9935        195
  27.0307        208
  27.0678        193
  27.1050        180
  27.1421        202
  27.1793        243
  27.2164        263
  27.2536        224
  27.2907        193
  27.3279        192
  27.3650        187
  27.4022        187
  27.4393        182
  27.4765        206
  27.5136        171
  27.5508        178
  27.5879        166
  27.6251        183
  27.6622        194
  27.6994        174
  27.7365        186
  27.7737        181
  27.8108        169
  27.8480        151
  27.8851        169
  27.9223        192
  27.9594        182
  27.9966        182
  28.0337        175
  28.0709        174
  28.1080        159
  28.1452        179
  28.1823        193
  28.2195        167
  28.2567        166
  28.2938        166
  28.3310        191
  28.3681        170
  28.4053        174
  28.4424        155
  28.4796        196
  28.5167        159
  28.5539        159
  28.5910        161
  28.6282        169
  28.6653        181
  28.7025        164
  28.7396        193
  28.7768        173
  28.8139        170
  28.8511        177
  28.8882        186
  28.9254        155
  28.9625        168
  28.9997        156
  29.0368        179
  29.0740        153
  29.1111        164
  29.1483        182
  29.1854        154
  29.2226        178
  29.2597        166
  29.2969        161
  29.3340        176
  29.3712        172
  29.4083        172
  29.4455        171
  29.4826        168
  29.5198        163
  29.5569        170
  29.5941        160
  29.6312        148
  29.6684        159
  29.7055        191
  29.7427        148
  29.7799        146
  29.8170        141
  29.8542        155
  29.8913        153
  29.9285        140
  29.9656        147
  30.0028        150
  30.0399        155
  30.0771        150
  30.1142        152
  30.1514        179
  30.1885        151
  30.2257        150
  30.2628        150
  30.3000        167
  30.3371        188
  30.3743        327
  30.4114        284
  30.4486        233
  30.4857        207
  30.5229        169
  30.5600        170
  30.5972        154
  30.6343        176
  30.6715        147
  30.7086        154
  30.7458        163
  30.7829        150
  30.8201        159
  30.8572        158
  30.8944        156
  30.9315        153
  30.9687        182
  31.0058        154
  31.0430        155
  31.0801        151
  31.1173        153
  31.1544        144
  31.1916        147
  31.2287        143
  31.2659        140
  31.3030        129
  31.3402        135
  31.3774        137
  31.4145        124
  31.4517        145
  31.4888        132
  31.5260        136
  31.5631        157
  31.6003        137
  31.6374        146
  31.6746        130
  31.7117        149
  31.7489        117
  31.7860        131
  31.8232        128
  31.8603        125
  31.8975        147
  31.9346        120
  31.9718        133
  32.0089        134
  32.0461        131
  32.0832        142
  32.1204        118
  32.1575        139
  32.1947        147
  32.2318        126
  32.2690        123
  32.3061        117
  32.3433        154
  32.3804        132
  32.4176        161
  32.4547        161
  32.4919        161
  32.5290        152
  32.5662        144
  32.6033        145
  32.6405        125
  32.6776        134
  32.7148        138
  32.7519        138
  32.7891        117
  32.8262        138
  32.8634        120
  32.9006        134
  32.9377        126
  32.9749        128
  33.0120        118
  33.0492        121
  33.0863        149
  33.1235        115
  33.1606        101
  33.1978        124
  33.2349        134
  33.2721        128
  33.3092        109
  33.3464        125
  33.3835        115
  33.4207        128
  33.4578        109
  33.4950        111
  33.5321        122
  33.5693        134
  33.6064        115
  33.6436        103
  33.6807        144
  33.7179        101
  33.7550        106
  33.7922        109
  33.8293        117
  33.8665         98
  33.9036        106
  33.9408        124
  33.9779        107
  34.0151        117
  34.0522        130
  34.0894         99
  34.1265         91
  34.1637        125
  34.2008        124
  34.2380        104
  34.2751        133
  34.3123        132
  34.3494        116
  34.3866        124
  34.4238         84
  34.4609        130
  34.4981        131
  34.5352        110
  34.5724        131
  34.6095        124
  34.6467        128
  34.6838        130
  34.7210        136
  34.7581        143
  34.7953        156
  34.8324        148
  34.8696        129
  34.9067        132
  34.9439        109
  34.9810         92
  35.0182        106
  35.0553        130
  35.0925        111
  35.1296         95
  35.1668         82
  35.2039         85
  35.2411        105
  35.2782        103
  35.3154        110
  35.3525        119
  35.3897        103
  35.4268        123
  35.4640        102
  35.5011        107
  35.5383         91
  35.5754        119
  35.6126         94
  35.6497        111
  35.6869        100
  35.7240        102
  35.7612         99
  35.7983        120
  35.8355        111
  35.8726         96
  35.9098         90
  35.9469        100
  35.9841        103
  36.0213        110
  36.0584         83
  36.0956        107
  36.1327        114
  36.1699         88
  36.2070        106
  36.2442        102
  36.2813         85
  36.3185         83
  36.3556         95
  36.3928         89
  36.4299         88
  36.4671        107
  36.5042        105
  36.5414        109
  36.5785         82
  36.6157         93
  36.6528        108
  36.6900         90
  36.7271        101
  36.7643         91
  36.8014         72
  36.8386         91
  36.8757         92
  36.9129        125
  36.9500        100
  36.9872         80
  37.0243        113
  37.0615         93
  37.0986         89
  37.1358        104
  37.1729        101
  37.2101         96
  37.2472         89
  37.2844         98
  37.3215         93
  37.3587        107
  37.3958        117
  37.4330        132
  37.4701        139
  37.5073        123
  37.5445        115
  37.5816        101
  37.6188         92
  37.6559         89
  37.6931         75
  37.7302         98
  37.7674         95
  37.8045         78
  37.8417        101
  37.8788         81
  37.9160         84
  37.9531         85
  37.9903         77
  38.0274         78
  38.0646         85
  38.1017         82
  38.1389         83
  38.1760         75
  38.2132         78
  38.2503         87
  38.2875         93
  38.3246         73
  38.3618         94
  38.3989         90
  38.4361         73
  38.4732         92
  38.5104         88
  38.5475         84
  38.5847         79
  38.6218         73
  38.6590         87
  38.6961         83
  38.7333         87
  38.7704         85
  38.8076         83
  38.8447         91
  38.8819         73
  38.9190         94
  38.9562         74
  38.9933        106
  39.0305         66
  39.0677         81
  39.1048         91
  39.1420         76
  39.1791         77
  39.2163         76
  39.2534         87
  39.2906         87
  39.3277         88
  39.3649         71
  39.4020         87
  39.4392         81
  39.4763         90
  39.5135         79
  39.5506         71
  39.5878         92
  39.6249         54
  39.6621         92
  39.6992         88
  39.7364         73
  39.7735         63
  39.8107         85
  39.8478         85
  39.8850         82
  39.9221         74
  39.9593         74
  39.9964         77
  40.0336         74
  40.0707         86
  40.1079         76
  40.1450         85
  40.1822         63
  40.2193         76
  40.2565         75
  40.2936         76
  40.3308         84
  40.3679         77
  40.4051         88
  40.4422         89
  40.4794         91
  40.5165         66
  40.5537         64
  40.5908         83
  40.6280         78
  40.6652         75
  40.7023         81
  40.7395         80
  40.7766         73
  40.8138         69
  40.8509         72
  40.8881         86
  40.9252         82
  40.9624         93
  40.9995         74
  41.0367         84
  41.0738         74
  41.1110         79
  41.1481         76
  41.1853         76
  41.2224         95
  41.2596         79
  41.2967         68
  41.3339         74
  41.3710         86
  41.4082         78
  41.4453         79
  41.4825         89
  41.5196         78
  41.5568         76
  41.5939         69
  41.6311         90
  41.6682         86
  41.7054         86
  41.7425         65
  41.7797         71
  41.8168         65
  41.8540         76
  41.8911         65
  41.9283         87
  41.9654         84
  42.0026         89
  42.0397         83
  42.0769         84
  42.1140         72
  42.1512         76
  42.1884         62
  42.2255         77
  42.2627         77
  42.2998         48
  42.3370         79
  42.3741         75
  42.4113         84
  42.4484         84
  42.4856         76
  42.5227         72
  42.5599         88
  42.5970         71
  42.6342         70
  42.6713         65
  42.7085         88
  42.7456         71
  42.7828         73
  42.8199         87
  42.8571         69
  42.8942         74
  42.9314         83
  42.9685         62
  43.0057         66
  43.0428         77
  43.0800         82
  43.1171         91
  43.1543         65
  43.1914         82
  43.2286         81
  43.2657         94
  43.3029         89
  43.3400         89
  43.3772         85
  43.4143         92
  43.4515         89
  43.4886        104
  43.5258        141
  43.5629         71
  43.6001        100
  43.6372        103
  43.6744         80
  43.7116         74
  43.7487         73
  43.7859         74
  43.8230         78
  43.8602         70
  43.8973         67
  43.9345         70
  43.9716         66
  44.0088         62
  44.0459         73
  44.0831         67
  44.1202         76
  44.1574         80
  44.1945         71
  44.2317         73
  44.2688         77
  44.3060         84
  44.3431         71
  44.3803         78
  44.4174         69
  44.4546         78
  44.4917         79
  44.5289         88
  44.5660         81
  44.6032         68
  44.6403         87
  44.6775         91
  44.7146         71
  44.7518         78
  44.7889         93
  44.8261         68
  44.8632         66
  44.9004         73
  44.9375         80
  44.9747         75
  45.0118         70
  45.0490         75
  45.0861         64
  45.1233         80
  45.1604         75
  45.1976         59
  45.2347         80
  45.2719         86
  45.3091         78
  45.3462         79
  45.3834         75
  45.4205         58
  45.4577         71
  45.4948         74
  45.5320         60
  45.5691         74
  45.6063         74
  45.6434         64
  45.6806         71
  45.7177         67
  45.7549         73
  45.7920         61
  45.8292         58
  45.8663         73
  45.9035         62
  45.9406         64
  45.9778         69
  46.0149         66
  46.0521         70
  46.0892         77
  46.1264         58
  46.1635         76
  46.2007         48
  46.2378         60
  46.2750         66
  46.3121         60
  46.3493         71
  46.3864         59
  46.4236         74
  46.4607         81
  46.4979         80
  46.5350         69
  46.5722         71
  46.6093         70
  46.6465         74
  46.6836         69
  46.7208         52
  46.7579         70
  46.7951         66
  46.8323         63
  46.8694         72
  46.9066         62
  46.9437         63
  46.9809         55
  47.0180         69
  47.0552         60
  47.0923         58
  47.1295         65
  47.1666         62
  47.2038         62
  47.2409         73
  47.2781         69
  47.3152         60
  47.3524         62
  47.3895         64
  47.4267         71
  47.4638         62
  47.5010         65
  47.5381         64
  47.5753         64
  47.6124         66
  47.6496         56
  47.6867         67
  47.7239         54
  47.7610         64
  47.7982         54
  47.8353         64
  47.8725         65
  47.9096         75
  47.9468         62
  47.9839         55
  48.0211         71
  48.0582         71
  48.0954         64
  48.1325         70
  48.1697         63
  48.2068         57
  48.2440         55
  48.2811         69
  48.3183         61
  48.3555         51
  48.3926         63
  48.4298         53
  48.4669         50
  48.5041         60
  48.5412         67
  48.5784         55
  48.6155         71
  48.6527         81
  48.6898         67
  48.7270         65
  48.7641         58
  48.8013         64
  48.8384         76
  48.8756         90
  48.9127         79
  48.9499        111
  48.9870        105
  49.0242         86
  49.0613         88
  49.0985         89
  49.1356         73
  49.1728         76
  49.2099         87
  49.2471         73
  49.2842         77
  49.3214         56
  49.3585         56
  49.3957         63
  49.4328         58
  49.4700         53
  49.5071         59
  49.5443         62
  49.5814         55
  49.6186         65
  49.6557         80
  49.6929         55
  49.7300         63
  49.7672         68
  49.8043         57
  49.8415         62
  49.8786         73
  49.9158         50
  49.9530         59
  49.9901         70
  50.0273         68
  50.0644         53
  50.1016         77
  50.1387         56
  50.1759         54
  50.2130         66
  50.2502         82
  50.2873         55
  50.3245         55
  50.3616         61
  50.3988         60
  50.4359         62
  50.4731         75
  50.5102         56
  50.5474         71
  50.5845         53
  50.6217         41
  50.6588         55
  50.6960         60
  50.7331         44
  50.7703         46
  50.8074         59
  50.8446         63
  50.8817         64
  50.9189         63
  50.9560         73
  50.9932         60
  51.0303         64
  51.0675         46
  51.1046         64
  51.1418         65
  51.1789         64
  51.2161         74
  51.2532         77
  51.2904         69
  51.3275         51
  51.3647         77
  51.4018         68
  51.4390         59
  51.4762         65
  51.5133         49
  51.5505         78
  51.5876         54
  51.6248         65
  51.6619         69
  51.6991         54
  51.7362         67
  51.7734         71
  51.8105         72
  51.8477         78
  51.8848         71
  51.9220         61
  51.9591         65
  51.9963         65
  52.0334         58
  52.0706         44
  52.1077         51
  52.1449         58
  52.1820         70
  52.2192         59
  52.2563         63
  52.2935         58
  52.3306         51
  52.3678         66
  52.4049         60
  52.4421         65
  52.4792         57
  52.5164         56
  52.5535         74
  52.5907         58
  52.6278         47
  52.6650         78
  52.7021         52
  52.7393         58
  52.7764         57
  52.8136         57
  52.8507         73
  52.8879         54
  52.9250         62
  52.9622         66
  52.9994         62
  53.0365         58
  53.0737         63
  53.1108         73
  53.1480         52
  53.1851         58
  53.2223         54
  53.2594         67
  53.2966         64
  53.3337         68
  53.3709         68
  53.4080         56
  53.4452         58
  53.4823         57
  53.5195         63
  53.5566         59
  53.5938         62
  53.6309         55
  53.6681         38
  53.7052         59
  53.7424         57
  53.7795         56
  53.8167         55
  53.8538         47
  53.8910         49
  53.9281         60
  53.9653         74
  54.0024         86
  54.0396         69
  54.0767         63
  54.1139         71
  54.1510         61
  54.1882         58
  54.2253         54
  54.2625         78
  54.2996         57
  54.3368         58
  54.3739         57
  54.4111         66
  54.4482         67
  54.4854         71
  54.5225         44
  54.5597         44
  54.5969         53
  54.6340         54
  54.6712         48
  54.7083         50
  54.7455         63
  54.7826         56
  54.8198         41
  54.8569         53
  54.8941         68
  54.9312         49
  54.9684         61
  55.0055         56
  55.0427         51
  55.0798         55
  55.1170         57
  55.1541         63
  55.1913         49
  55.2284         47
  55.2656         54
  55.3027         70
  55.3399         49
  55.3770         64
  55.4142         61
  55.4513         61
  55.4885         54
  55.5256         68
  55.5628         59
  55.5999         61
  55.6371         54
  55.6742         63
  55.7114         61
  55.7485         55
  55.7857         62
  55.8228         50
  55.8600         50
  55.8971         64
  55.9343         61
  55.9714         61
  56.0086         71
  56.0457         46
  56.0829         65
  56.1201         51
  56.1572         60
  56.1944         56
  56.2315         58
  56.2687         67
  56.3058         63
  56.3430         66
  56.3801         57
  56.4173         75
  56.4544         58
  56.4916         67
  56.5287         55
  56.5659         54
  56.6030         50
  56.6402         65
  56.6773         56
  56.7145         50
  56.7516         66
  56.7888         54
  56.8259         54
  56.8631         53
  56.9002         44
  56.9374         56
  56.9745         59
  57.0117         46
  57.0488         69
  57.0860         66
  57.1231         52
  57.1603         50
  57.1974         61
  57.2346         59
  57.2717         47
  57.3089         60
  57.3460         58
  57.3832         66
  57.4203         40
  57.4575         63
  57.4946         49
  57.5318         57
  57.5689         58
  57.6061         71
  57.6433         53
  57.6804         40
  57.7176         55
  57.7547         44
  57.7919         58
  57.8290         59
  57.8662         52
  57.9033         56
  57.9405         53
  57.9776         55
  58.0148         54
  58.0519         46
  58.0891         49
  58.1262         43
  58.1634         66
  58.2005         58
  58.2377         52
  58.2748         49
  58.3120         52
  58.3491         53
  58.3863         56
  58.4234         49
  58.4606         57
  58.4977         45
  58.5349         69
  58.5720         32
  58.6092         53
  58.6463         52
  58.6835         66
  58.7206         56
  58.7578         53
  58.7949         71
  58.8321         59
  58.8692         56
  58.9064         66
  58.9435         55
  58.9807         67
  59.0178         66
  59.0550         69
  59.0921         48
  59.1293         54
  59.1664         67
  59.2036         59
  59.2408         60
  59.2779         46
  59.3151         54
  59.3522         55
  59.3894         51
  59.4265         64
  59.4637         64
  59.5008         59
  59.5380         66
  59.5751         72
  59.6123         46
  59.6494         60
  59.6866         50
  59.7237         62
  59.7609         58
  59.7980         49
  59.8352         45
  59.8723         58
  59.9095         59
  59.9466         62
  59.9838         56
  60.0024         55