File: notebooks/data/xrd_data/ML_20220720_36_SJD_4_LaB6-1min.uxd
; (content of file Y:\Sam\Apurva-07-20-2022\puck2\ML_20220720_36_SJD_0_LaB6-1min.raw)
_FILEVERSION = 3
_SAMPLE = ML_20220720_36_SJD_0_LaB6-1mi
_+SAMPLE =
_SITE = USA
_USER = Administrator
_GONIOMETER_CODE = 20
; Goniometer : D8 theta/2theta, stage : Unknown
_ATTACHMENTS_CODE = 0
_GONIOMETER_RADIUS = 200.5
_FIXED_DIVSLIT = 0.6
_FIXED_SAMPLESLIT = 0
_SOLLER_SLITS = 2
_FIXED_DETSLIT = 9.55
_MONOCHROMATOR = 0
; Incident beam monochromator : None
_SOLLER_SLITS_2 = N
_THIN_FILM = N
_BETA_FILTER = Y
_FIXED_ANTISLIT = 5.89
_ANALYZER_CODE = 0
; Received beam analyzer : None
_DATEMEASURED = "25-Jul-2022 18:53:38"
_WL_UNIT = A
_WL1 = 1.5406
_WL2 = 1.54439
_WL3 = 1.39222
_WLRATIO = 0.5
_ANODE = Cu
_V4_INF_CREATOR = XRDWizard
_V4_INF_CREATOR_VERSION = V2.9.0.22
_V4_INF_WIZARD_VERSION = V2.9.0.22
_V4_INF_WIZARD_ADDINS = V2.9.0.22
_V4_INF_WIZARD_DOCTYPE = XRD
_V4_INF_OSUSER = McQueenLab
_V4_INF_USER = Administrator
_V4_INF_SITE = USA
_V4_INF_SAMPLEID = ML_20220720_36_SJD_0_LaB6-1mi

; Data for range 1
_DRIVE = COUPLED
_STEPTIME = 4.23
_STEPSIZE = 0.0185756
_STEPMODE = C
_START = 5
_THETA = 2.5
_2THETA = 5
_KHI = 0
_PHI = 0
_X = 0
_Y = 0
_Z = 0
_DETECTOR = 5
; Detector type : Unknown
_DETECTORSLIT = unkn
_AUX1 = 0
_AUX2 = 0
_AUX3 = 0
_TIMESTARTED = 15
_TEMP_RATE = -1
_TEMP_DELAY = -1
_KV = 40
_MA = 40
_RANGE_WL = 1.5406
_3DPLANE = 0
_V4_ADDITIONALDETECTOR = 257
_V4_PSD2THETA = 3.4354
_V4_PSDCHANNEL1 = 0
_V4_PSDAPERTURE = 12.68
_V4_PSDTYPE = 5
_V4_PSDFIXED = 0
_V4_COUNTERS_MASK = 4096
_V4_DRIVES_MASK = 0
_V4_ENCODERS_MASK = 0
_2THETACOUNTS = 1
; 2THETA  PSD
   5.0000        106
   5.0372         97
   5.0743         88
   5.1115         94
   5.1486         97
   5.1858         86
   5.2229         87
   5.2601         85
   5.2972         95
   5.3344         78
   5.3715         98
   5.4087         82
   5.4458         88
   5.4830         87
   5.5201         68
   5.5573         83
   5.5944         89
   5.6316         71
   5.6687         81
   5.7059         68
   5.7430         89
   5.7802         91
   5.8173         85
   5.8545         58
   5.8916         77
   5.9288         84
   5.9659         90
   6.0031         81
   6.0402         74
   6.0774         90
   6.1145         67
   6.1517         56
   6.1888         71
   6.2260         68
   6.2631         67
   6.3003         76
   6.3374         73
   6.3746         71
   6.4117         67
   6.4489         44
   6.4860         58
   6.5232         49
   6.5604         66
   6.5975         56
   6.6347         52
   6.6718         73
   6.7090         55
   6.7461         65
   6.7833         65
   6.8204         65
   6.8576         66
   6.8947         51
   6.9319         53
   6.9690         59
   7.0062         57
   7.0433         67
   7.0805         60
   7.1176         57
   7.1548         65
   7.1919         61
   7.2291         66
   7.2662         49
   7.3034         54
   7.3405         50
   7.3777         69
   7.4148         57
   7.4520         64
   7.4891         57
   7.5263         52
   7.5634         71
   7.6006         54
   7.6377         75
   7.6749         63
   7.7120         81
   7.7492         63
   7.7863         60
   7.8235         67
   7.8606         68
   7.8978         64
   7.9349         79
   7.9721         67
   8.0092         53
   8.0464         81
   8.0835         72
   8.1207         64
   8.1579         79
   8.1950         69
   8.2322         72
   8.2693         66
   8.3065         68
   8.3436         70
   8.3808         63
   8.4179         65
   8.4551         75
   8.4922         69
   8.5294         73
   8.5665         72
   8.6037         77
   8.6408         76
   8.6780         71
   8.7151         80
   8.7523         75
   8.7894         79
   8.8266         74
   8.8637         75
   8.9009         72
   8.9380         69
   8.9752         77
   9.0123         80
   9.0495         72
   9.0866         76
   9.1238         78
   9.1609         80
   9.1981         69
   9.2352         61
   9.2724         90
   9.3095         88
   9.3467         72
   9.3838         78
   9.4210         81
   9.4581         79
   9.4953         75
   9.5324         78
   9.5696        103
   9.6067         74
   9.6439         87
   9.6811         82
   9.7182         95
   9.7554         82
   9.7925         75
   9.8297         84
   9.8668         85
   9.9040        100
   9.9411         93
   9.9783         98
  10.0154         79
  10.0526         88
  10.0897         86
  10.1269         89
  10.1640         95
  10.2012         93
  10.2383        104
  10.2755         87
  10.3126         86
  10.3498         87
  10.3869         82
  10.4241         75
  10.4612        100
  10.4984         87
  10.5355         87
  10.5727         91
  10.6098         83
  10.6470         96
  10.6841         87
  10.7213         97
  10.7584         88
  10.7956         76
  10.8327        101
  10.8699         80
  10.9070         90
  10.9442         74
  10.9813         89
  11.0185         95
  11.0556         87
  11.0928         96
  11.1299         95
  11.1671         89
  11.2043         89
  11.2414         72
  11.2786         86
  11.3157         91
  11.3529         96
  11.3900         87
  11.4272         74
  11.4643         86
  11.5015         91
  11.5386         90
  11.5758         92
  11.6129         90
  11.6501         82
  11.6872         79
  11.7244         91
  11.7615         77
  11.7987         87
  11.8358         68
  11.8730         86
  11.9101        100
  11.9473         90
  11.9844        102
  12.0216         78
  12.0587         85
  12.0959         90
  12.1330         78
  12.1702         75
  12.2073         90
  12.2445         69
  12.2816         85
  12.3188         65
  12.3559         89
  12.3931         69
  12.4302         87
  12.4674         69
  12.5045         90
  12.5417         76
  12.5788         79
  12.6160         69
  12.6531         74
  12.6903         64
  12.7274         80
  12.7646         66
  12.8018         69
  12.8389         81
  12.8761         80
  12.9132         66
  12.9504         80
  12.9875         77
  13.0247         75
  13.0618         76
  13.0990         86
  13.1361         60
  13.1733         66
  13.2104         79
  13.2476         91
  13.2847         77
  13.3219         63
  13.3590         78
  13.3962         68
  13.4333         67
  13.4705         75
  13.5076         70
  13.5448         55
  13.5819         67
  13.6191         54
  13.6562         81
  13.6934         63
  13.7305         70
  13.7677         71
  13.8048         69
  13.8420         56
  13.8791         51
  13.9163         70
  13.9534         75
  13.9906         70
  14.0277         81
  14.0649         74
  14.1020         76
  14.1392         54
  14.1763         62
  14.2135         83
  14.2506         61
  14.2878         78
  14.3250         66
  14.3621         61
  14.3993         67
  14.4364         59
  14.4736         59
  14.5107         69
  14.5479         73
  14.5850         57
  14.6222         59
  14.6593         64
  14.6965         64
  14.7336         63
  14.7708         74
  14.8079         70
  14.8451         61
  14.8822         61
  14.9194         63
  14.9565         64
  14.9937         66
  15.0308         64
  15.0680         63
  15.1051         54
  15.1423         64
  15.1794         59
  15.2166         69
  15.2537         84
  15.2909         64
  15.3280         53
  15.3652         62
  15.4023         67
  15.4395         58
  15.4766         49
  15.5138         73
  15.5509         59
  15.5881         52
  15.6252         61
  15.6624         77
  15.6995         55
  15.7367         63
  15.7738         79
  15.8110         60
  15.8482         59
  15.8853         47
  15.9225         58
  15.9596         59
  15.9968         57
  16.0339         70
  16.0711         65
  16.1082         56
  16.1454         45
  16.1825         55
  16.2197         67
  16.2568         43
  16.2940         53
  16.3311         48
  16.3683         64
  16.4054         59
  16.4426         62
  16.4797         51
  16.5169         64
  16.5540         62
  16.5912         68
  16.6283         65
  16.6655         50
  16.7026         62
  16.7398         69
  16.7769         60
  16.8141         63
  16.8512         63
  16.8884         62
  16.9255         59
  16.9627         61
  16.9998         56
  17.0370         59
  17.0741         69
  17.1113         57
  17.1484         60
  17.1856         51
  17.2227         61
  17.2599         57
  17.2970         58
  17.3342         53
  17.3713         58
  17.4085         68
  17.4457         46
  17.4828         55
  17.5200         66
  17.5571         53
  17.5943         57
  17.6314         63
  17.6686         55
  17.7057         70
  17.7429         60
  17.7800         54
  17.8172         55
  17.8543         57
  17.8915         53
  17.9286         53
  17.9658         51
  18.0029         56
  18.0401         62
  18.0772         68
  18.1144         60
  18.1515         56
  18.1887         52
  18.2258         69
  18.2630         71
  18.3001         86
  18.3373         59
  18.3744         66
  18.4116         80
  18.4487         70
  18.4859         59
  18.5230         66
  18.5602         65
  18.5973         68
  18.6345         77
  18.6716         52
  18.7088         53
  18.7459         62
  18.7831         47
  18.8202         71
  18.8574         58
  18.8945         72
  18.9317         63
  18.9689         75
  19.0060         71
  19.0432         55
  19.0803         49
  19.1175         59
  19.1546         60
  19.1918         65
  19.2289         64
  19.2661         63
  19.3032         61
  19.3404         63
  19.3775         62
  19.4147         73
  19.4518         74
  19.4890         65
  19.5261         68
  19.5633         65
  19.6004         64
  19.6376         68
  19.6747         67
  19.7119         61
  19.7490         66
  19.7862         59
  19.8233         70
  19.8605         70
  19.8976         66
  19.9348         63
  19.9719         65
  20.0091         76
  20.0462         63
  20.0834         52
  20.1205         65
  20.1577         65
  20.1948         65
  20.2320         64
  20.2691         70
  20.3063         64
  20.3434         53
  20.3806         59
  20.4177         59
  20.4549         55
  20.4921         60
  20.5292         73
  20.5664         71
  20.6035         72
  20.6407         68
  20.6778         76
  20.7150         69
  20.7521         76
  20.7893         77
  20.8264         61
  20.8636         73
  20.9007         75
  20.9379         69
  20.9750         72
  21.0122         78
  21.0493         82
  21.0865         63
  21.1236         80
  21.1608         82
  21.1979         95
  21.2351        116
  21.2722        101
  21.3094        123
  21.3465        163
  21.3837        188
  21.4208        122
  21.4580         84
  21.4951         81
  21.5323         80
  21.5694         73
  21.6066         72
  21.6437         78
  21.6809         80
  21.7180         86
  21.7552         67
  21.7923         75
  21.8295         54
  21.8666         71
  21.9038         83
  21.9409         69
  21.9781         76
  22.0152         76
  22.0524         71
  22.0896         79
  22.1267         74
  22.1639         66
  22.2010         77
  22.2382         75
  22.2753         74
  22.3125         78
  22.3496         67
  22.3868         95
  22.4239         71
  22.4611         73
  22.4982         86
  22.5354         80
  22.5725         76
  22.6097         70
  22.6468         87
  22.6840         57
  22.7211         79
  22.7583         76
  22.7954         79
  22.8326         65
  22.8697         72
  22.9069         89
  22.9440         66
  22.9812         74
  23.0183         79
  23.0555         70
  23.0926         56
  23.1298         79
  23.1669         68
  23.2041         77
  23.2412         81
  23.2784         79
  23.3155         75
  23.3527         80
  23.3898         78
  23.4270         81
  23.4641         63
  23.5013         60
  23.5384         88
  23.5756         72
  23.6128         93
  23.6499         70
  23.6871         54
  23.7242         83
  23.7614         86
  23.7985         76
  23.8357         67
  23.8728         71
  23.9100         74
  23.9471         78
  23.9843         73
  24.0214         66
  24.0586         79
  24.0957         61
  24.1329         87
  24.1700         64
  24.2072         90
  24.2443         97
  24.2815         92
  24.3186         78
  24.3558         89
  24.3929         75
  24.4301         66
  24.4672         80
  24.5044         88
  24.5415         52
  24.5787         66
  24.6158         71
  24.6530         78
  24.6901         83
  24.7273         68
  24.7644         77
  24.8016         92
  24.8387         73
  24.8759         77
  24.9130         56
  24.9502         90
  24.9873         71
  25.0245         72
  25.0616         83
  25.0988         84
  25.1360         69
  25.1731         63
  25.2103         73
  25.2474         72
  25.2846         58
  25.3217         71
  25.3589         70
  25.3960         85
  25.4332         63
  25.4703         68
  25.5075         72
  25.5446         68
  25.5818         69
  25.6189         70
  25.6561         71
  25.6932         74
  25.7304         61
  25.7675         66
  25.8047         68
  25.8418         60
  25.8790         64
  25.9161         94
  25.9533         57
  25.9904         73
  26.0276         75
  26.0647         83
  26.1019         68
  26.1390         71
  26.1762         78
  26.2133         73
  26.2505         75
  26.2876         70
  26.3248         69
  26.3619         65
  26.3991         61
  26.4362         65
  26.4734         84
  26.5105         80
  26.5477         66
  26.5848         77
  26.6220         68
  26.6591         61
  26.6963         61
  26.7335         72
  26.7706         79
  26.8078         70
  26.8449         60
  26.8821         75
  26.9192         60
  26.9564         58
  26.9935         58
  27.0307         72
  27.0678         76
  27.1050         68
  27.1421         69
  27.1793        105
  27.2164         96
  27.2536         99
  27.2907         75
  27.3279         75
  27.3650         79
  27.4022         70
  27.4393         67
  27.4765         79
  27.5136         69
  27.5508         66
  27.5879         63
  27.6251         70
  27.6622         80
  27.6994         72
  27.7365         55
  27.7737         78
  27.8108         62
  27.8480         78
  27.8851         61
  27.9223         60
  27.9594         76
  27.9966         49
  28.0337         72
  28.0709         65
  28.1080         66
  28.1452         80
  28.1823         57
  28.2195         55
  28.2567         70
  28.2938         60
  28.3310         58
  28.3681         45
  28.4053         60
  28.4424         59
  28.4796         41
  28.5167         51
  28.5539         64
  28.5910         58
  28.6282         78
  28.6653         61
  28.7025         59
  28.7396         51
  28.7768         54
  28.8139         47
  28.8511         68
  28.8882         60
  28.9254         50
  28.9625         62
  28.9997         61
  29.0368         54
  29.0740         76
  29.1111         62
  29.1483         61
  29.1854         53
  29.2226         68
  29.2597         55
  29.2969         53
  29.3340         46
  29.3712         56
  29.4083         62
  29.4455         58
  29.4826         72
  29.5198         55
  29.5569         53
  29.5941         68
  29.6312         47
  29.6684         52
  29.7055         56
  29.7427         60
  29.7799         64
  29.8170         52
  29.8542         67
  29.8913         48
  29.9285         56
  29.9656         56
  30.0028         62
  30.0399         58
  30.0771         73
  30.1142         70
  30.1514         53
  30.1885         55
  30.2257         53
  30.2628         58
  30.3000         64
  30.3371         72
  30.3743        115
  30.4114         93
  30.4486         82
  30.4857         80
  30.5229         69
  30.5600         57
  30.5972         57
  30.6343         49
  30.6715         50
  30.7086         53
  30.7458         53
  30.7829         59
  30.8201         46
  30.8572         54
  30.8944         45
  30.9315         44
  30.9687         42
  31.0058         54
  31.0430         53
  31.0801         51
  31.1173         49
  31.1544         49
  31.1916         48
  31.2287         62
  31.2659         53
  31.3030         39
  31.3402         55
  31.3774         64
  31.4145         47
  31.4517         57
  31.4888         56
  31.5260         54
  31.5631         54
  31.6003         43
  31.6374         55
  31.6746         56
  31.7117         56
  31.7489         48
  31.7860         58
  31.8232         53
  31.8603         48
  31.8975         54
  31.9346         46
  31.9718         53
  32.0089         42
  32.0461         50
  32.0832         51
  32.1204         42
  32.1575         47
  32.1947         45
  32.2318         54
  32.2690         44
  32.3061         41
  32.3433         63
  32.3804         37
  32.4176         43
  32.4547         48
  32.4919         59
  32.5290         52
  32.5662         65
  32.6033         53
  32.6405         54
  32.6776         47
  32.7148         44
  32.7519         41
  32.7891         41
  32.8262         41
  32.8634         65
  32.9006         40
  32.9377         45
  32.9749         32
  33.0120         47
  33.0492         42
  33.0863         46
  33.1235         43
  33.1606         53
  33.1978         56
  33.2349         35
  33.2721         50
  33.3092         47
  33.3464         33
  33.3835         41
  33.4207         43
  33.4578         52
  33.4950         46
  33.5321         38
  33.5693         48
  33.6064         44
  33.6436         42
  33.6807         32
  33.7179         46
  33.7550         43
  33.7922         45
  33.8293         45
  33.8665         38
  33.9036         49
  33.9408         51
  33.9779         42
  34.0151         51
  34.0522         40
  34.0894         38
  34.1265         32
  34.1637         36
  34.2008         35
  34.2380         35
  34.2751         41
  34.3123         47
  34.3494         40
  34.3866         45
  34.4238         48
  34.4609         39
  34.4981         40
  34.5352         51
  34.5724         53
  34.6095         53
  34.6467         60
  34.6838         65
  34.7210         48
  34.7581         45
  34.7953         53
  34.8324         53
  34.8696         53
  34.9067         46
  34.9439         44
  34.9810         36
  35.0182         34
  35.0553         29
  35.0925         47
  35.1296         44
  35.1668         40
  35.2039         37
  35.2411         46
  35.2782         44
  35.3154         47
  35.3525         37
  35.3897         32
  35.4268         36
  35.4640         43
  35.5011         43
  35.5383         40
  35.5754         25
  35.6126         38
  35.6497         31
  35.6869         38
  35.7240         31
  35.7612         44
  35.7983         32
  35.8355         30
  35.8726         37
  35.9098         42
  35.9469         27
  35.9841         29
  36.0213         33
  36.0584         43
  36.0956         32
  36.1327         42
  36.1699         30
  36.2070         24
  36.2442         37
  36.2813         31
  36.3185         30
  36.3556         24
  36.3928         37
  36.4299         29
  36.4671         39
  36.5042         37
  36.5414         26
  36.5785         31
  36.6157         35
  36.6528         29
  36.6900         40
  36.7271         31
  36.7643         36
  36.8014         36
  36.8386         45
  36.8757         30
  36.9129         33
  36.9500         36
  36.9872         34
  37.0243         33
  37.0615         29
  37.0986         36
  37.1358         38
  37.1729         27
  37.2101         33
  37.2472         30
  37.2844         34
  37.3215         41
  37.3587         33
  37.3958         31
  37.4330         59
  37.4701         37
  37.5073         52
  37.5445         47
  37.5816         43
  37.6188         34
  37.6559         32
  37.6931         32
  37.7302         27
  37.7674         27
  37.8045         31
  37.8417         38
  37.8788         20
  37.9160         33
  37.9531         29
  37.9903         39
  38.0274         36
  38.0646         32
  38.1017         21
  38.1389         30
  38.1760         40
  38.2132         38
  38.2503         30
  38.2875         36
  38.3246         34
  38.3618         41
  38.3989         35
  38.4361         30
  38.4732         23
  38.5104         28
  38.5475         30
  38.5847         30
  38.6218         36
  38.6590         27
  38.6961         37
  38.7333         27
  38.7704         22
  38.8076         42
  38.8447         44
  38.8819         32
  38.9190         27
  38.9562         22
  38.9933         35
  39.0305         30
  39.0677         31
  39.1048         17
  39.1420         32
  39.1791         27
  39.2163         27
  39.2534         29
  39.2906         34
  39.3277         29
  39.3649         33
  39.4020         31
  39.4392         26
  39.4763         26
  39.5135         27
  39.5506         35
  39.5878         26
  39.6249         26
  39.6621         26
  39.6992         27
  39.7364         31
  39.7735         24
  39.8107         28
  39.8478         31
  39.8850         31
  39.9221         24
  39.9593         31
  39.9964         31
  40.0336         42
  40.0707         22
  40.1079         32
  40.1450         27
  40.1822         22
  40.2193         36
  40.2565         31
  40.2936         39
  40.3308         37
  40.3679         29
  40.4051         19
  40.4422         33
  40.4794         27
  40.5165         22
  40.5537         33
  40.5908         33
  40.6280         27
  40.6652         29
  40.7023         25
  40.7395         30
  40.7766         34
  40.8138         34
  40.8509         29
  40.8881         23
  40.9252         35
  40.9624         28
  40.9995         36
  41.0367         33
  41.0738         28
  41.1110         23
  41.1481         39
  41.1853         21
  41.2224         30
  41.2596         25
  41.2967         32
  41.3339         29
  41.3710         24
  41.4082         21
  41.4453         33
  41.4825         25
  41.5196         33
  41.5568         33
  41.5939         30
  41.6311         26
  41.6682         27
  41.7054         15
  41.7425         21
  41.7797         31
  41.8168         33
  41.8540         25
  41.8911         25
  41.9283         26
  41.9654         26
  42.0026         25
  42.0397         22
  42.0769         30
  42.1140         29
  42.1512         29
  42.1884         35
  42.2255         37
  42.2627         33
  42.2998         20
  42.3370         28
  42.3741         30
  42.4113         20
  42.4484         24
  42.4856         27
  42.5227         35
  42.5599         38
  42.5970         15
  42.6342         28
  42.6713         17
  42.7085         32
  42.7456         30
  42.7828         34
  42.8199         30
  42.8571         22
  42.8942         39
  42.9314         27
  42.9685         33
  43.0057         24
  43.0428         28
  43.0800         32
  43.1171         20
  43.1543         24
  43.1914         28
  43.2286         36
  43.2657         48
  43.3029         35
  43.3400         34
  43.3772         35
  43.4143         29
  43.4515         32
  43.4886         40
  43.5258         46
  43.5629         28
  43.6001         32
  43.6372         37
  43.6744         26
  43.7116         35
  43.7487         32
  43.7859         21
  43.8230         23
  43.8602         21
  43.8973         26
  43.9345         17
  43.9716         21
  44.0088         29
  44.0459         34
  44.0831         36
  44.1202         33
  44.1574         23
  44.1945         24
  44.2317         21
  44.2688         29
  44.3060         24
  44.3431         28
  44.3803         35
  44.4174         20
  44.4546         23
  44.4917         31
  44.5289         26
  44.5660         28
  44.6032         26
  44.6403         23
  44.6775         27
  44.7146         30
  44.7518         24
  44.7889         29
  44.8261         26
  44.8632         15
  44.9004         24
  44.9375         26
  44.9747         22
  45.0118         27
  45.0490         24
  45.0861         20
  45.1233         32
  45.1604         30
  45.1976         23
  45.2347         26
  45.2719         31
  45.3091         24
  45.3462         30
  45.3834         32
  45.4205         29
  45.4577         25
  45.4948         26
  45.5320         21
  45.5691         28
  45.6063         18
  45.6434         29
  45.6806         27
  45.7177         24
  45.7549         26
  45.7920         19
  45.8292         30
  45.8663         27
  45.9035         22
  45.9406         24
  45.9778         19
  46.0149         33
  46.0521         23
  46.0892         15
  46.1264         20
  46.1635         23
  46.2007         24
  46.2378         25
  46.2750         34
  46.3121         19
  46.3493         21
  46.3864         22
  46.4236         33
  46.4607         31
  46.4979         10
  46.5350         22
  46.5722         25
  46.6093         20
  46.6465         24
  46.6836         24
  46.7208         17
  46.7579         18
  46.7951         32
  46.8323         23
  46.8694         26
  46.9066         21
  46.9437         20
  46.9809         32
  47.0180         29
  47.0552         19
  47.0923          9
  47.1295         27
  47.1666         13
  47.2038         19
  47.2409         28
  47.2781         23
  47.3152         28
  47.3524         14
  47.3895         21
  47.4267         17
  47.4638         16
  47.5010         31
  47.5381         15
  47.5753         16
  47.6124         20
  47.6496         28
  47.6867         20
  47.7239         24
  47.7610         22
  47.7982         18
  47.8353         27
  47.8725         23
  47.9096         23
  47.9468         21
  47.9839         21
  48.0211         24
  48.0582         26
  48.0954         19
  48.1325         27
  48.1697         20
  48.2068         26
  48.2440         21
  48.2811         19
  48.3183         20
  48.3555         23
  48.3926         19
  48.4298         15
  48.4669         21
  48.5041         36
  48.5412         20
  48.5784         26
  48.6155         23
  48.6527         24
  48.6898         26
  48.7270         22
  48.7641         43
  48.8013         18
  48.8384         27
  48.8756         29
  48.9127         30
  48.9499         27
  48.9870         32
  49.0242         28
  49.0613         35
  49.0985         36
  49.1356         24
  49.1728         22
  49.2099         21
  49.2471         22
  49.2842         13
  49.3214         28
  49.3585         27
  49.3957         27
  49.4328         26
  49.4700         30
  49.5071         13
  49.5443         26
  49.5814         22
  49.6186         24
  49.6557         18
  49.6929         12
  49.7300         16
  49.7672         21
  49.8043         14
  49.8415         15
  49.8786         13
  49.9158         26
  49.9530         30
  49.9901         24
  50.0273         24
  50.0644         21
  50.1016         27
  50.1387         23
  50.1759         18
  50.2130         27
  50.2502         18
  50.2873         22
  50.3245         21
  50.3616         21
  50.3988         29
  50.4359         21
  50.4731         29
  50.5102         17
  50.5474         22
  50.5845         23
  50.6217         29
  50.6588         20
  50.6960         21
  50.7331         26
  50.7703         22
  50.8074         26
  50.8446         22
  50.8817         21
  50.9189         25
  50.9560         19
  50.9932         18
  51.0303         21
  51.0675         24
  51.1046         18
  51.1418         19
  51.1789         21
  51.2161         27
  51.2532         21
  51.2904         24
  51.3275         24
  51.3647         19
  51.4018         29
  51.4390         22
  51.4762         23
  51.5133         26
  51.5505         27
  51.5876         17
  51.6248         24
  51.6619         22
  51.6991         22
  51.7362         23
  51.7734         26
  51.8105         26
  51.8477         28
  51.8848         15
  51.9220         28
  51.9591         27
  51.9963         26
  52.0334         18
  52.0706         29
  52.1077         15
  52.1449         23
  52.1820         24
  52.2192         24
  52.2563         20
  52.2935         16
  52.3306         13
  52.3678         23
  52.4049         21
  52.4421         25
  52.4792         19
  52.5164         19
  52.5535         28
  52.5907         34
  52.6278         20
  52.6650         31
  52.7021         30
  52.7393         24
  52.7764         19
  52.8136         27
  52.8507         24
  52.8879         25
  52.9250         23
  52.9622         26
  52.9994         26
  53.0365         22
  53.0737         24
  53.1108         21
  53.1480         22
  53.1851         29
  53.2223         17
  53.2594         25
  53.2966         26
  53.3337         28
  53.3709         16
  53.4080         19
  53.4452         24
  53.4823         22
  53.5195         28
  53.5566         16
  53.5938         23
  53.6309         24
  53.6681         19
  53.7052         33
  53.7424         19
  53.7795         27
  53.8167         28
  53.8538         24
  53.8910         17
  53.9281         31
  53.9653         28
  54.0024         38
  54.0396         18
  54.0767         35
  54.1139         30
  54.1510         26
  54.1882         27
  54.2253         23
  54.2625         21
  54.2996          8
  54.3368         27
  54.3739         20
  54.4111         26
  54.4482         30
  54.4854         11
  54.5225         23
  54.5597         17
  54.5969         18
  54.6340         22
  54.6712         20
  54.7083         18
  54.7455         24
  54.7826         17
  54.8198         17
  54.8569         15
  54.8941         19
  54.9312         19
  54.9684         20
  55.0055         22
  55.0427         21
  55.0798         18
  55.1170         24
  55.1541         24
  55.1913         21
  55.2284         24
  55.2656         13
  55.3027         25
  55.3399         15
  55.3770         27
  55.4142         20
  55.4513         17
  55.4885         26
  55.5256         15
  55.5628         16
  55.5999         16
  55.6371         17
  55.6742         15
  55.7114         18
  55.7485         22
  55.7857         23
  55.8228         17
  55.8600         19
  55.8971         13
  55.9343         18
  55.9714         17
  56.0086         22
  56.0457         23
  56.0829         20
  56.1201         23
  56.1572         26
  56.1944         27
  56.2315         25
  56.2687         19
  56.3058         11
  56.3430         29
  56.3801         27
  56.4173         21
  56.4544         16
  56.4916         21
  56.5287         16
  56.5659         20
  56.6030         33
  56.6402         23
  56.6773         21
  56.7145         18
  56.7516         19
  56.7888         16
  56.8259         21
  56.8631         16
  56.9002         25
  56.9374         19
  56.9745         28
  57.0117         18
  57.0488         33
  57.0860         23
  57.1231         26
  57.1603         18
  57.1974         13
  57.2346         21
  57.2717         24
  57.3089         16
  57.3460         25
  57.3832         20
  57.4203         15
  57.4575         16
  57.4946         19
  57.5318         24
  57.5689         23
  57.6061         32
  57.6433         22
  57.6804         25
  57.7176         21
  57.7547         24
  57.7919         23
  57.8290         11
  57.8662         16
  57.9033         19
  57.9405         15
  57.9776         25
  58.0148          8
  58.0519         25
  58.0891         24
  58.1262         21
  58.1634         24
  58.2005         20
  58.2377         21
  58.2748         17
  58.3120         25
  58.3491         13
  58.3863         21
  58.4234         19
  58.4606         19
  58.4977         26
  58.5349         20
  58.5720         27
  58.6092         19
  58.6463         25
  58.6835         12
  58.7206         15
  58.7578         19
  58.7949         30
  58.8321         16
  58.8692         19
  58.9064         18
  58.9435         21
  58.9807         22
  59.0178         19
  59.0550         20
  59.0921         23
  59.1293         17
  59.1664         14
  59.2036         13
  59.2408         25
  59.2779         18
  59.3151         31
  59.3522         16
  59.3894         21
  59.4265         23
  59.4637         27
  59.5008         20
  59.5380         15
  59.5751         19
  59.6123         27
  59.6494         20
  59.6866         12
  59.7237         25
  59.7609         15
  59.7980         24
  59.8352         24
  59.8723         20
  59.9095         21
  59.9466         21
  59.9838         25
  60.0024         24