File: notebooks/data/xrd_data/ML_20220718_29_SJD_4_LaB6-2min.uxd
; (content of file Y:\Sam\Apurva-07-20-2022\puck4\ML_20220718_29_SJD_0_LaB6-2min.raw)
_FILEVERSION = 3
_SAMPLE = ML_20220718_29_SJD_0_LaB6-2min
_+SAMPLE =
_SITE = USA
_USER = Administrator
_GONIOMETER_CODE = 20
; Goniometer : D8 theta/2theta, stage : Unknown
_ATTACHMENTS_CODE = 0
_GONIOMETER_RADIUS = 200.5
_FIXED_DIVSLIT = 0.6
_FIXED_SAMPLESLIT = 0
_SOLLER_SLITS = 2
_FIXED_DETSLIT = 9.55
_MONOCHROMATOR = 0
; Incident beam monochromator : None
_SOLLER_SLITS_2 = N
_THIN_FILM = N
_BETA_FILTER = Y
_FIXED_ANTISLIT = 5.89
_ANALYZER_CODE = 0
; Received beam analyzer : None
_DATEMEASURED = "26-Jul-2022 09:16:00"
_WL_UNIT = A
_WL1 = 1.5406
_WL2 = 1.54439
_WL3 = 1.39222
_WLRATIO = 0.5
_ANODE = Cu
_V4_INF_CREATOR = XRDWizard
_V4_INF_CREATOR_VERSION = V2.9.0.22
_V4_INF_WIZARD_VERSION = V2.9.0.22
_V4_INF_WIZARD_ADDINS = V2.9.0.22
_V4_INF_WIZARD_DOCTYPE = XRD
_V4_INF_OSUSER = McQueenLab
_V4_INF_USER = Administrator
_V4_INF_SITE = USA
_V4_INF_SAMPLEID = ML_20220718_29_SJD_0_LaB6-2min

; Data for range 1
_DRIVE = COUPLED
_STEPTIME = 5.64
_STEPSIZE = 0.0185756
_STEPMODE = C
_START = 5
_THETA = 2.5
_2THETA = 5
_KHI = 0
_PHI = 0
_X = 0
_Y = 0
_Z = 0
_DETECTOR = 5
; Detector type : Unknown
_DETECTORSLIT = unkn
_AUX1 = 0
_AUX2 = 0
_AUX3 = 0
_TIMESTARTED = 14
_TEMP_RATE = -1
_TEMP_DELAY = -1
_KV = 40
_MA = 40
_RANGE_WL = 1.5406
_3DPLANE = 0
_V4_ADDITIONALDETECTOR = 257
_V4_PSD2THETA = 3.4232
_V4_PSDCHANNEL1 = 0
_V4_PSDAPERTURE = 12.68
_V4_PSDTYPE = 5
_V4_PSDFIXED = 0
_V4_COUNTERS_MASK = 4096
_V4_DRIVES_MASK = 0
_V4_ENCODERS_MASK = 0
_2THETACOUNTS = 1
; 2THETA  PSD
   5.0000        141
   5.0372        146
   5.0743        143
   5.1115        118
   5.1486        126
   5.1858        122
   5.2229        122
   5.2601        124
   5.2972        137
   5.3344        103
   5.3715        131
   5.4087        111
   5.4458        128
   5.4830        112
   5.5201        114
   5.5573        100
   5.5944        106
   5.6316        107
   5.6687        102
   5.7059        115
   5.7430        115
   5.7802         99
   5.8173         91
   5.8545        117
   5.8916        102
   5.9288        117
   5.9659        126
   6.0031        103
   6.0402         86
   6.0774        123
   6.1145        111
   6.1517        105
   6.1888         97
   6.2260         97
   6.2631         93
   6.3003        105
   6.3374         79
   6.3746         90
   6.4117         89
   6.4489        116
   6.4860         86
   6.5232         85
   6.5604        117
   6.5975         85
   6.6347         82
   6.6718         87
   6.7090        100
   6.7461         65
   6.7833         77
   6.8204         89
   6.8576         67
   6.8947         83
   6.9319         90
   6.9690         78
   7.0062         90
   7.0433         94
   7.0805         94
   7.1176         60
   7.1548         78
   7.1919         82
   7.2291         69
   7.2662         81
   7.3034         72
   7.3405         89
   7.3777         75
   7.4148         93
   7.4520         80
   7.4891         81
   7.5263         68
   7.5634         87
   7.6006         90
   7.6377         78
   7.6749         67
   7.7120        110
   7.7492         93
   7.7863        101
   7.8235         83
   7.8606         99
   7.8978         92
   7.9349         96
   7.9721        102
   8.0092         88
   8.0464         92
   8.0835         78
   8.1207         82
   8.1579         97
   8.1950         96
   8.2322         91
   8.2693         89
   8.3065        100
   8.3436         99
   8.3808        100
   8.4179        101
   8.4551         91
   8.4922         80
   8.5294        103
   8.5665         94
   8.6037         85
   8.6408         91
   8.6780        110
   8.7151        121
   8.7523        102
   8.7894         97
   8.8266        110
   8.8637        127
   8.9009        120
   8.9380        121
   8.9752         94
   9.0123        115
   9.0495        121
   9.0866        125
   9.1238        122
   9.1609        103
   9.1981        101
   9.2352        102
   9.2724        114
   9.3095        113
   9.3467        114
   9.3838        100
   9.4210        105
   9.4581        125
   9.4953        107
   9.5324        136
   9.5696        101
   9.6067        105
   9.6439        119
   9.6811        106
   9.7182        101
   9.7554        106
   9.7925        117
   9.8297        114
   9.8668        108
   9.9040        118
   9.9411        110
   9.9783        123
  10.0154        116
  10.0526        129
  10.0897         94
  10.1269        110
  10.1640        118
  10.2012        116
  10.2383        135
  10.2755        128
  10.3126         98
  10.3498        129
  10.3869        115
  10.4241        142
  10.4612         99
  10.4984        139
  10.5355        109
  10.5727        116
  10.6098        117
  10.6470        119
  10.6841        113
  10.7213        102
  10.7584        108
  10.7956        110
  10.8327        123
  10.8699        126
  10.9070        119
  10.9442        121
  10.9813        121
  11.0185        130
  11.0556        121
  11.0928        112
  11.1299        115
  11.1671        105
  11.2043        135
  11.2414        119
  11.2786        109
  11.3157        128
  11.3529        125
  11.3900         84
  11.4272        135
  11.4643        107
  11.5015         93
  11.5386        130
  11.5758        113
  11.6129        119
  11.6501        105
  11.6872        101
  11.7244        113
  11.7615        100
  11.7987        103
  11.8358        110
  11.8730        107
  11.9101        132
  11.9473         98
  11.9844        106
  12.0216        120
  12.0587        123
  12.0959        115
  12.1330        105
  12.1702        101
  12.2073        110
  12.2445        128
  12.2816        114
  12.3188        105
  12.3559        119
  12.3931         89
  12.4302        110
  12.4674        100
  12.5045        116
  12.5417         96
  12.5788        105
  12.6160         89
  12.6531        111
  12.6903        115
  12.7274         96
  12.7646        101
  12.8018         96
  12.8389        111
  12.8761        106
  12.9132         88
  12.9504         95
  12.9875         93
  13.0247        113
  13.0618         96
  13.0990        108
  13.1361         75
  13.1733         92
  13.2104         98
  13.2476         87
  13.2847        102
  13.3219         99
  13.3590         98
  13.3962         87
  13.4333         94
  13.4705         93
  13.5076        106
  13.5448        103
  13.5819        101
  13.6191         84
  13.6562         96
  13.6934        113
  13.7305        104
  13.7677        107
  13.8048         80
  13.8420        112
  13.8791         88
  13.9163         85
  13.9534         92
  13.9906         97
  14.0277         90
  14.0649         88
  14.1020         89
  14.1392         85
  14.1763         98
  14.2135         97
  14.2506         93
  14.2878         72
  14.3250         96
  14.3621         90
  14.3993         89
  14.4364         89
  14.4736         91
  14.5107         80
  14.5479        100
  14.5850         75
  14.6222         91
  14.6593         71
  14.6965         67
  14.7336         84
  14.7708         73
  14.8079         85
  14.8451         89
  14.8822         92
  14.9194         89
  14.9565         75
  14.9937         88
  15.0308         82
  15.0680         76
  15.1051         85
  15.1423         78
  15.1794         89
  15.2166         84
  15.2537         73
  15.2909         84
  15.3280         88
  15.3652         80
  15.4023         85
  15.4395         70
  15.4766         81
  15.5138         80
  15.5509         97
  15.5881         92
  15.6252         79
  15.6624         80
  15.6995         80
  15.7367         80
  15.7738         77
  15.8110         69
  15.8482         97
  15.8853         92
  15.9225         78
  15.9596         89
  15.9968         89
  16.0339         73
  16.0711         80
  16.1082         79
  16.1454         88
  16.1825         85
  16.2197         87
  16.2568         85
  16.2940         91
  16.3311         80
  16.3683         85
  16.4054         79
  16.4426         77
  16.4797         77
  16.5169         87
  16.5540         92
  16.5912         86
  16.6283         67
  16.6655        103
  16.7026         80
  16.7398         97
  16.7769         73
  16.8141         73
  16.8512         76
  16.8884         86
  16.9255         81
  16.9627         75
  16.9998         87
  17.0370         71
  17.0741         80
  17.1113         67
  17.1484         85
  17.1856         85
  17.2227         88
  17.2599         82
  17.2970         72
  17.3342         73
  17.3713         69
  17.4085         92
  17.4457         91
  17.4828        102
  17.5200         86
  17.5571         75
  17.5943         69
  17.6314         91
  17.6686         91
  17.7057         73
  17.7429         76
  17.7800         64
  17.8172         76
  17.8543         82
  17.8915         83
  17.9286         84
  17.9658         80
  18.0029         73
  18.0401         80
  18.0772         94
  18.1144         80
  18.1515         84
  18.1887         74
  18.2258         81
  18.2630         77
  18.3001         78
  18.3373         84
  18.3744         92
  18.4116         76
  18.4487         73
  18.4859         83
  18.5230         77
  18.5602         92
  18.5973         89
  18.6345         92
  18.6716         85
  18.7088         89
  18.7459         96
  18.7831         80
  18.8202         74
  18.8574         75
  18.8945         91
  18.9317         54
  18.9689         80
  19.0060         70
  19.0432         74
  19.0803         74
  19.1175         89
  19.1546         72
  19.1918         87
  19.2289         97
  19.2661         87
  19.3032         79
  19.3404         90
  19.3775         89
  19.4147         82
  19.4518         74
  19.4890         94
  19.5261         83
  19.5633         93
  19.6004        101
  19.6376         88
  19.6747         77
  19.7119         81
  19.7490        102
  19.7862         87
  19.8233        107
  19.8605         93
  19.8976        101
  19.9348         96
  19.9719         73
  20.0091         87
  20.0462         84
  20.0834         96
  20.1205         83
  20.1577         82
  20.1948         92
  20.2320         88
  20.2691         78
  20.3063         81
  20.3434         98
  20.3806        105
  20.4177         87
  20.4549         94
  20.4921        105
  20.5292         81
  20.5664         87
  20.6035         66
  20.6407         94
  20.6778         86
  20.7150         99
  20.7521         90
  20.7893         94
  20.8264         90
  20.8636        122
  20.9007         87
  20.9379        104
  20.9750        113
  21.0122         88
  21.0493        104
  21.0865        105
  21.1236         93
  21.1608        104
  21.1979        118
  21.2351        170
  21.2722        168
  21.3094        152
  21.3465        248
  21.3837        188
  21.4208        166
  21.4580        126
  21.4951        129
  21.5323         79
  21.5694         86
  21.6066         90
  21.6437        101
  21.6809        106
  21.7180        102
  21.7552         90
  21.7923         98
  21.8295        100
  21.8666         88
  21.9038        109
  21.9409         94
  21.9781         88
  22.0152         97
  22.0524        108
  22.0896        105
  22.1267        107
  22.1639         96
  22.2010         85
  22.2382        102
  22.2753        107
  22.3125         83
  22.3496         77
  22.3868         93
  22.4239         96
  22.4611        110
  22.4982        115
  22.5354         97
  22.5725         80
  22.6097         95
  22.6468         93
  22.6840         94
  22.7211         95
  22.7583         78
  22.7954         98
  22.8326         92
  22.8697        100
  22.9069         92
  22.9440         91
  22.9812        109
  23.0183         97
  23.0555        109
  23.0926         89
  23.1298        110
  23.1669         85
  23.2041         92
  23.2412        101
  23.2784         85
  23.3155        107
  23.3527         92
  23.3898        101
  23.4270         73
  23.4641         89
  23.5013        116
  23.5384        100
  23.5756         99
  23.6128        100
  23.6499        115
  23.6871        105
  23.7242        102
  23.7614         98
  23.7985         98
  23.8357        101
  23.8728         92
  23.9100        101
  23.9471        113
  23.9843         93
  24.0214        115
  24.0586         80
  24.0957         94
  24.1329        109
  24.1700         97
  24.2072         91
  24.2443        106
  24.2815        113
  24.3186        120
  24.3558        119
  24.3929        110
  24.4301        108
  24.4672         92
  24.5044         94
  24.5415        104
  24.5787        111
  24.6158         93
  24.6530         83
  24.6901         96
  24.7273        102
  24.7644         95
  24.8016         93
  24.8387         92
  24.8759        100
  24.9130        100
  24.9502        103
  24.9873         96
  25.0245         78
  25.0616         91
  25.0988        101
  25.1360         90
  25.1731         88
  25.2103         93
  25.2474         98
  25.2846         98
  25.3217        107
  25.3589         99
  25.3960         96
  25.4332         90
  25.4703        107
  25.5075        108
  25.5446         96
  25.5818         76
  25.6189         96
  25.6561        103
  25.6932         80
  25.7304         99
  25.7675         93
  25.8047         95
  25.8418         96
  25.8790         84
  25.9161         94
  25.9533        100
  25.9904        108
  26.0276        103
  26.0647         93
  26.1019        100
  26.1390         91
  26.1762        100
  26.2133         86
  26.2505         98
  26.2876         85
  26.3248        113
  26.3619         81
  26.3991        100
  26.4362         97
  26.4734         90
  26.5105         78
  26.5477        100
  26.5848         88
  26.6220         88
  26.6591         91
  26.6963        107
  26.7335         99
  26.7706         90
  26.8078         79
  26.8449         93
  26.8821         82
  26.9192         92
  26.9564         93
  26.9935         85
  27.0307        102
  27.0678         98
  27.1050         84
  27.1421         89
  27.1793        115
  27.2164        124
  27.2536        117
  27.2907        107
  27.3279         91
  27.3650         95
  27.4022         79
  27.4393         95
  27.4765         93
  27.5136        112
  27.5508         95
  27.5879         93
  27.6251         97
  27.6622         96
  27.6994         83
  27.7365         88
  27.7737        100
  27.8108         79
  27.8480         81
  27.8851        106
  27.9223         84
  27.9594         90
  27.9966         79
  28.0337        109
  28.0709         92
  28.1080         81
  28.1452         85
  28.1823         82
  28.2195         78
  28.2567         86
  28.2938         81
  28.3310         98
  28.3681         84
  28.4053         86
  28.4424         87
  28.4796         78
  28.5167         85
  28.5539         80
  28.5910         77
  28.6282         83
  28.6653         73
  28.7025         91
  28.7396         83
  28.7768         85
  28.8139         83
  28.8511         85
  28.8882         78
  28.9254         85
  28.9625         89
  28.9997         73
  29.0368         88
  29.0740         78
  29.1111         76
  29.1483         80
  29.1854         81
  29.2226        100
  29.2597         85
  29.2969        100
  29.3340         88
  29.3712         85
  29.4083         81
  29.4455         80
  29.4826         71
  29.5198         97
  29.5569         73
  29.5941         76
  29.6312        100
  29.6684         81
  29.7055         80
  29.7427         86
  29.7799         81
  29.8170         80
  29.8542         79
  29.8913         71
  29.9285         89
  29.9656         74
  30.0028         85
  30.0399         84
  30.0771         84
  30.1142         74
  30.1514         94
  30.1885         89
  30.2257         83
  30.2628         76
  30.3000         87
  30.3371         98
  30.3743        172
  30.4114        132
  30.4486        123
  30.4857         90
  30.5229         82
  30.5600         93
  30.5972         70
  30.6343         69
  30.6715         76
  30.7086         77
  30.7458         77
  30.7829         66
  30.8201         83
  30.8572         67
  30.8944         62
  30.9315         65
  30.9687         75
  31.0058         71
  31.0430         82
  31.0801         75
  31.1173         80
  31.1544         68
  31.1916         53
  31.2287         63
  31.2659         73
  31.3030         87
  31.3402         71
  31.3774         75
  31.4145         75
  31.4517         74
  31.4888         66
  31.5260         70
  31.5631         80
  31.6003         70
  31.6374         76
  31.6746         60
  31.7117         64
  31.7489         59
  31.7860         68
  31.8232         54
  31.8603         62
  31.8975         60
  31.9346         76
  31.9718         49
  32.0089         63
  32.0461         66
  32.0832         76
  32.1204         66
  32.1575         66
  32.1947         69
  32.2318         59
  32.2690         82
  32.3061         60
  32.3433         77
  32.3804         75
  32.4176         61
  32.4547         75
  32.4919         86
  32.5290         72
  32.5662         80
  32.6033         65
  32.6405         55
  32.6776         69
  32.7148         60
  32.7519         75
  32.7891         67
  32.8262         57
  32.8634         67
  32.9006         74
  32.9377         63
  32.9749         66
  33.0120         54
  33.0492         61
  33.0863         62
  33.1235         64
  33.1606         67
  33.1978         58
  33.2349         53
  33.2721         60
  33.3092         67
  33.3464         67
  33.3835         47
  33.4207         65
  33.4578         60
  33.4950         56
  33.5321         72
  33.5693         51
  33.6064         58
  33.6436         64
  33.6807         58
  33.7179         56
  33.7550         55
  33.7922         61
  33.8293         48
  33.8665         64
  33.9036         60
  33.9408         45
  33.9779         51
  34.0151         62
  34.0522         80
  34.0894         60
  34.1265         51
  34.1637         59
  34.2008         56
  34.2380         67
  34.2751         68
  34.3123         58
  34.3494         53
  34.3866         54
  34.4238         62
  34.4609         52
  34.4981         56
  34.5352         43
  34.5724         62
  34.6095         44
  34.6467         71
  34.6838         58
  34.7210         66
  34.7581         90
  34.7953         87
  34.8324         61
  34.8696         63
  34.9067         52
  34.9439         56
  34.9810         51
  35.0182         68
  35.0553         49
  35.0925         54
  35.1296         56
  35.1668         45
  35.2039         58
  35.2411         48
  35.2782         53
  35.3154         47
  35.3525         53
  35.3897         58
  35.4268         59
  35.4640         48
  35.5011         47
  35.5383         57
  35.5754         52
  35.6126         43
  35.6497         40
  35.6869         53
  35.7240         55
  35.7612         39
  35.7983         42
  35.8355         45
  35.8726         41
  35.9098         55
  35.9469         35
  35.9841         49
  36.0213         54
  36.0584         42
  36.0956         49
  36.1327         49
  36.1699         53
  36.2070         45
  36.2442         44
  36.2813         41
  36.3185         50
  36.3556         46
  36.3928         57
  36.4299         45
  36.4671         53
  36.5042         38
  36.5414         50
  36.5785         48
  36.6157         40
  36.6528         39
  36.6900         48
  36.7271         46
  36.7643         51
  36.8014         48
  36.8386         45
  36.8757         50
  36.9129         43
  36.9500         60
  36.9872         38
  37.0243         46
  37.0615         47
  37.0986         51
  37.1358         38
  37.1729         46
  37.2101         35
  37.2472         44
  37.2844         37
  37.3215         40
  37.3587         45
  37.3958         46
  37.4330         73
  37.4701         61
  37.5073         58
  37.5445         66
  37.5816         64
  37.6188         40
  37.6559         37
  37.6931         50
  37.7302         48
  37.7674         38
  37.8045         33
  37.8417         43
  37.8788         37
  37.9160         50
  37.9531         40
  37.9903         39
  38.0274         43
  38.0646         48
  38.1017         38
  38.1389         29
  38.1760         43
  38.2132         45
  38.2503         34
  38.2875         41
  38.3246         47
  38.3618         36
  38.3989         40
  38.4361         40
  38.4732         37
  38.5104         39
  38.5475         42
  38.5847         40
  38.6218         33
  38.6590         43
  38.6961         40
  38.7333         33
  38.7704         44
  38.8076         34
  38.8447         54
  38.8819         36
  38.9190         41
  38.9562         49
  38.9933         49
  39.0305         48
  39.0677         31
  39.1048         44
  39.1420         38
  39.1791         33
  39.2163         39
  39.2534         40
  39.2906         34
  39.3277         34
  39.3649         40
  39.4020         41
  39.4392         41
  39.4763         28
  39.5135         38
  39.5506         39
  39.5878         40
  39.6249         30
  39.6621         41
  39.6992         33
  39.7364         32
  39.7735         34
  39.8107         42
  39.8478         32
  39.8850         47
  39.9221         42
  39.9593         45
  39.9964         40
  40.0336         29
  40.0707         30
  40.1079         28
  40.1450         43
  40.1822         27
  40.2193         30
  40.2565         39
  40.2936         39
  40.3308         45
  40.3679         28
  40.4051         41
  40.4422         40
  40.4794         38
  40.5165         41
  40.5537         41
  40.5908         42
  40.6280         43
  40.6652         41
  40.7023         40
  40.7395         31
  40.7766         37
  40.8138         44
  40.8509         54
  40.8881         40
  40.9252         39
  40.9624         29
  40.9995         45
  41.0367         37
  41.0738         41
  41.1110         39
  41.1481         42
  41.1853         37
  41.2224         37
  41.2596         31
  41.2967         35
  41.3339         39
  41.3710         39
  41.4082         38
  41.4453         37
  41.4825         43
  41.5196         40
  41.5568         33
  41.5939         47
  41.6311         32
  41.6682         32
  41.7054         31
  41.7425         31
  41.7797         44
  41.8168         41
  41.8540         37
  41.8911         38
  41.9283         34
  41.9654         39
  42.0026         26
  42.0397         32
  42.0769         30
  42.1140         31
  42.1512         33
  42.1884         35
  42.2255         34
  42.2627         31
  42.2998         42
  42.3370         38
  42.3741         30
  42.4113         30
  42.4484         36
  42.4856         29
  42.5227         36
  42.5599         41
  42.5970         27
  42.6342         29
  42.6713         43
  42.7085         40
  42.7456         39
  42.7828         40
  42.8199         41
  42.8571         44
  42.8942         53
  42.9314         38
  42.9685         35
  43.0057         42
  43.0428         38
  43.0800         27
  43.1171         37
  43.1543         32
  43.1914         37
  43.2286         44
  43.2657         47
  43.3029         48
  43.3400         37
  43.3772         50
  43.4143         33
  43.4515         44
  43.4886         48
  43.5258         64
  43.5629         33
  43.6001         48
  43.6372         50
  43.6744         36
  43.7116         35
  43.7487         54
  43.7859         26
  43.8230         38
  43.8602         47
  43.8973         49
  43.9345         37
  43.9716         44
  44.0088         33
  44.0459         56
  44.0831         37
  44.1202         48
  44.1574         38
  44.1945         36
  44.2317         44
  44.2688         40
  44.3060         41
  44.3431         51
  44.3803         41
  44.4174         24
  44.4546         45
  44.4917         38
  44.5289         35
  44.5660         34
  44.6032         30
  44.6403         34
  44.6775         34
  44.7146         40
  44.7518         31
  44.7889         42
  44.8261         46
  44.8632         45
  44.9004         33
  44.9375         27
  44.9747         45
  45.0118         29
  45.0490         45
  45.0861         36
  45.1233         29
  45.1604         48
  45.1976         28
  45.2347         39
  45.2719         37
  45.3091         24
  45.3462         41
  45.3834         37
  45.4205         35
  45.4577         37
  45.4948         34
  45.5320         26
  45.5691         23
  45.6063         32
  45.6434         40
  45.6806         43
  45.7177         25
  45.7549         42
  45.7920         27
  45.8292         36
  45.8663         32
  45.9035         23
  45.9406         26
  45.9778         23
  46.0149         38
  46.0521         35
  46.0892         42
  46.1264         25
  46.1635         41
  46.2007         37
  46.2378         25
  46.2750         21
  46.3121         30
  46.3493         35
  46.3864         33
  46.4236         30
  46.4607         43
  46.4979         24
  46.5350         32
  46.5722         39
  46.6093         42
  46.6465         32
  46.6836         40
  46.7208         47
  46.7579         31
  46.7951         30
  46.8323         37
  46.8694         32
  46.9066         27
  46.9437         39
  46.9809         28
  47.0180         33
  47.0552         31
  47.0923         27
  47.1295         33
  47.1666         29
  47.2038         35
  47.2409         22
  47.2781         33
  47.3152         20
  47.3524         41
  47.3895         34
  47.4267         34
  47.4638         34
  47.5010         30
  47.5381         21
  47.5753         22
  47.6124         30
  47.6496         33
  47.6867         37
  47.7239         36
  47.7610         35
  47.7982         31
  47.8353         28
  47.8725         32
  47.9096         31
  47.9468         27
  47.9839         53
  48.0211         34
  48.0582         28
  48.0954         25
  48.1325         27
  48.1697         25
  48.2068         32
  48.2440         36
  48.2811         34
  48.3183         43
  48.3555         35
  48.3926         33
  48.4298         40
  48.4669         32
  48.5041         29
  48.5412         28
  48.5784         33
  48.6155         35
  48.6527         29
  48.6898         39
  48.7270         31
  48.7641         36
  48.8013         37
  48.8384         43
  48.8756         34
  48.9127         38
  48.9499         52
  48.9870         56
  49.0242         44
  49.0613         43
  49.0985         34
  49.1356         35
  49.1728         34
  49.2099         37
  49.2471         34
  49.2842         27
  49.3214         23
  49.3585         33
  49.3957         40
  49.4328         32
  49.4700         34
  49.5071         38
  49.5443         25
  49.5814         29
  49.6186         29
  49.6557         33
  49.6929         24
  49.7300         28
  49.7672         30
  49.8043         21
  49.8415         32
  49.8786         22
  49.9158         32
  49.9530         29
  49.9901         37
  50.0273         35
  50.0644         34
  50.1016         31
  50.1387         38
  50.1759         34
  50.2130         30
  50.2502         32
  50.2873         32
  50.3245         26
  50.3616         30
  50.3988         42
  50.4359         28
  50.4731         27
  50.5102         35
  50.5474         25
  50.5845         35
  50.6217         27
  50.6588         32
  50.6960         30
  50.7331         30
  50.7703         24
  50.8074         26
  50.8446         24
  50.8817         29
  50.9189         29
  50.9560         29
  50.9932         21
  51.0303         38
  51.0675         27
  51.1046         33
  51.1418         31
  51.1789         31
  51.2161         24
  51.2532         28
  51.2904         26
  51.3275         22
  51.3647         34
  51.4018         48
  51.4390         50
  51.4762         36
  51.5133         33
  51.5505         36
  51.5876         30
  51.6248         37
  51.6619         26
  51.6991         29
  51.7362         45
  51.7734         21
  51.8105         28
  51.8477         34
  51.8848         35
  51.9220         34
  51.9591         26
  51.9963         27
  52.0334         33
  52.0706         31
  52.1077         31
  52.1449         22
  52.1820         27
  52.2192         35
  52.2563         23
  52.2935         29
  52.3306         25
  52.3678         30
  52.4049         32
  52.4421         24
  52.4792         35
  52.5164         20
  52.5535         36
  52.5907         29
  52.6278         29
  52.6650         29
  52.7021         28
  52.7393         24
  52.7764         27
  52.8136         23
  52.8507         34
  52.8879         33
  52.9250         28
  52.9622         31
  52.9994         37
  53.0365         25
  53.0737         23
  53.1108         32
  53.1480         22
  53.1851         12
  53.2223         32
  53.2594         29
  53.2966         32
  53.3337         32
  53.3709         39
  53.4080         29
  53.4452         18
  53.4823         20
  53.5195         27
  53.5566         36
  53.5938         28
  53.6309         24
  53.6681         25
  53.7052         25
  53.7424         32
  53.7795         26
  53.8167         27
  53.8538         29
  53.8910         36
  53.9281         29
  53.9653         41
  54.0024         42
  54.0396         30
  54.0767         28
  54.1139         41
  54.1510         43
  54.1882         24
  54.2253         37
  54.2625         26
  54.2996         25
  54.3368         31
  54.3739         35
  54.4111         29
  54.4482         30
  54.4854         25
  54.5225         23
  54.5597         29
  54.5969         31
  54.6340         28
  54.6712         24
  54.7083         26
  54.7455         34
  54.7826         25
  54.8198         31
  54.8569         28
  54.8941         34
  54.9312         29
  54.9684         35
  55.0055         38
  55.0427         27
  55.0798         14
  55.1170         25
  55.1541         31
  55.1913         25
  55.2284         22
  55.2656         39
  55.3027         16
  55.3399         26
  55.3770         24
  55.4142         24
  55.4513         21
  55.4885         25
  55.5256         33
  55.5628         33
  55.5999         24
  55.6371         34
  55.6742         28
  55.7114         26
  55.7485         35
  55.7857         29
  55.8228         26
  55.8600         32
  55.8971         34
  55.9343         25
  55.9714         20
  56.0086         32
  56.0457         29
  56.0829         29
  56.1201         19
  56.1572         29
  56.1944         25
  56.2315         43
  56.2687         33
  56.3058         30
  56.3430         35
  56.3801         32
  56.4173         24
  56.4544         20
  56.4916         31
  56.5287         44
  56.5659         28
  56.6030         32
  56.6402         28
  56.6773         28
  56.7145         25
  56.7516         43
  56.7888         30
  56.8259         21
  56.8631         26
  56.9002         33
  56.9374         29
  56.9745         25
  57.0117         27
  57.0488         30
  57.0860         27
  57.1231         25
  57.1603         23
  57.1974         37
  57.2346         28
  57.2717         32
  57.3089         30
  57.3460         22
  57.3832         29
  57.4203         34
  57.4575         19
  57.4946         27
  57.5318         30
  57.5689         21
  57.6061         26
  57.6433         37
  57.6804         37
  57.7176         29
  57.7547         32
  57.7919         26
  57.8290         31
  57.8662         33
  57.9033         31
  57.9405         30
  57.9776         27
  58.0148         21
  58.0519         24
  58.0891         30
  58.1262         14
  58.1634         30
  58.2005         33
  58.2377         24
  58.2748         31
  58.3120         20
  58.3491         25
  58.3863         25
  58.4234         29
  58.4606         32
  58.4977         18
  58.5349         21
  58.5720         25
  58.6092         29
  58.6463         27
  58.6835         28
  58.7206         22
  58.7578         30
  58.7949         32
  58.8321         36
  58.8692         28
  58.9064         31
  58.9435         21
  58.9807         23
  59.0178         31
  59.0550         29
  59.0921         21
  59.1293         25
  59.1664         21
  59.2036         18
  59.2408         36
  59.2779         18
  59.3151         20
  59.3522         24
  59.3894         19
  59.4265         28
  59.4637         25
  59.5008         20
  59.5380         26
  59.5751         29
  59.6123         25
  59.6494         41
  59.6866         25
  59.7237         28
  59.7609         38
  59.7980         28
  59.8352         27
  59.8723         31
  59.9095         26
  59.9466         17
  59.9838         31
  60.0024         27