File: notebooks/data/xrd_data/ML_20220718_48_SJD_4_LaB6-2min.csv
;,2THETA,
5.0000,124
5.0372,137
5.0743,106
5.1115,131
5.1486,132
5.1858,114
5.2229,114
5.2601,120
5.2972,97
5.3344,130
5.3715,106
5.4087,112
5.4458,116
5.4830,101
5.5201,95
5.5573,98
5.5944,118
5.6316,96
5.6687,102
5.7059,98
5.7430,108
5.7802,103
5.8173,110
5.8545,105
5.8916,103
5.9288,93
5.9659,113
6.0031,82
6.0402,107
6.0774,80
6.1145,88
6.1517,69
6.1888,94
6.2260,88
6.2631,97
6.3003,104
6.3374,84
6.3746,95
6.4117,93
6.4489,107
6.4860,91
6.5232,90
6.5604,93
6.5975,85
6.6347,87
6.6718,84
6.7090,85
6.7461,103
6.7833,79
6.8204,89
6.8576,77
6.8947,93
6.9319,81
6.9690,77
7.0062,84
7.0433,66
7.0805,87
7.1176,92
7.1548,68
7.1919,79
7.2291,80
7.2662,78
7.3034,76
7.3405,67
7.3777,74
7.4148,93
7.4520,79
7.4891,76
7.5263,81
7.5634,96
7.6006,77
7.6377,78
7.6749,74
7.7120,98
7.7492,79
7.7863,88
7.8235,87
7.8606,95
7.8978,65
7.9349,108
7.9721,79
8.0092,89
8.0464,76
8.0835,89
8.1207,89
8.1579,101
8.1950,105
8.2322,97
8.2693,85
8.3065,80
8.3436,91
8.3808,128
8.4179,103
8.4551,99
8.4922,97
8.5294,92
8.5665,85
8.6037,110
8.6408,99
8.6780,90
8.7151,108
8.7523,125
8.7894,126
8.8266,103
8.8637,106
8.9009,112
8.9380,89
8.9752,103
9.0123,118
9.0495,114
9.0866,100
9.1238,97
9.1609,94
9.1981,116
9.2352,107
9.2724,116
9.3095,121
9.3467,116
9.3838,111
9.4210,113
9.4581,118
9.4953,107
9.5324,109
9.5696,90
9.6067,98
9.6439,98
9.6811,106
9.7182,89
9.7554,102
9.7925,118
9.8297,111
9.8668,120
9.9040,142
9.9411,125
9.9783,107
10.0154,127
10.0526,117
10.0897,107
10.1269,117
10.1640,115
10.2012,135
10.2383,122
10.2755,113
10.3126,123
10.3498,126
10.3869,136
10.4241,136
10.4612,124
10.4984,120
10.5355,104
10.5727,105
10.6098,109
10.6470,142
10.6841,108
10.7213,121
10.7584,108
10.7956,115
10.8327,124
10.8699,130
10.9070,121
10.9442,109
10.9813,111
11.0185,132
11.0556,104
11.0928,135
11.1299,117
11.1671,127
11.2043,115
11.2414,96
11.2786,123
11.3157,131
11.3529,97
11.3900,132
11.4272,104
11.4643,106
11.5015,115
11.5386,110
11.5758,103
11.6129,104
11.6501,115
11.6872,112
11.7244,127
11.7615,107
11.7987,95
11.8358,128
11.8730,111
11.9101,106
11.9473,111
11.9844,118
12.0216,109
12.0587,127
12.0959,131
12.1330,123
12.1702,97
12.2073,114
12.2445,105
12.2816,97
12.3188,110
12.3559,103
12.3931,110
12.4302,100
12.4674,92
12.5045,99
12.5417,111
12.5788,92
12.6160,115
12.6531,120
12.6903,93
12.7274,113
12.7646,92
12.8018,120
12.8389,106
12.8761,80
12.9132,118
12.9504,110
12.9875,90
13.0247,116
13.0618,99
13.0990,87
13.1361,101
13.1733,90
13.2104,99
13.2476,93
13.2847,119
13.3219,116
13.3590,98
13.3962,98
13.4333,80
13.4705,99
13.5076,100
13.5448,103
13.5819,96
13.6191,88
13.6562,99
13.6934,103
13.7305,90
13.7677,95
13.8048,85
13.8420,101
13.8791,120
13.9163,87
13.9534,84
13.9906,113
14.0277,85
14.0649,101
14.1020,102
14.1392,73
14.1763,103
14.2135,90
14.2506,93
14.2878,92
14.3250,86
14.3621,97
14.3993,85
14.4364,84
14.4736,84
14.5107,84
14.5479,89
14.5850,79
14.6222,79
14.6593,103
14.6965,78
14.7336,85
14.7708,70
14.8079,88
14.8451,74
14.8822,90
14.9194,72
14.9565,89
14.9937,80
15.0308,78
15.0680,81
15.1051,81
15.1423,84
15.1794,82
15.2166,70
15.2537,73
15.2909,90
15.3280,77
15.3652,71
15.4023,105
15.4395,76
15.4766,86
15.5138,72
15.5509,74
15.5881,60
15.6252,82
15.6624,85
15.6995,78
15.7367,105
15.7738,79
15.8110,69
15.8482,77
15.8853,84
15.9225,80
15.9596,76
15.9968,99
16.0339,88
16.0711,83
16.1082,94
16.1454,75
16.1825,80
16.2197,72
16.2568,69
16.2940,64
16.3311,73
16.3683,80
16.4054,85
16.4426,82
16.4797,74
16.5169,86
16.5540,57
16.5912,75
16.6283,74
16.6655,77
16.7026,79
16.7398,79
16.7769,72
16.8141,74
16.8512,80
16.8884,72
16.9255,85
16.9627,68
16.9998,72
17.0370,95
17.0741,73
17.1113,68
17.1484,84
17.1856,75
17.2227,89
17.2599,83
17.2970,73
17.3342,84
17.3713,81
17.4085,77
17.4457,87
17.4828,75
17.5200,82
17.5571,86
17.5943,88
17.6314,74
17.6686,100
17.7057,66
17.7429,73
17.7800,83
17.8172,90
17.8543,73
17.8915,84
17.9286,95
17.9658,82
18.0029,92
18.0401,69
18.0772,65
18.1144,81
18.1515,95
18.1887,73
18.2258,86
18.2630,96
18.3001,72
18.3373,81
18.3744,81
18.4116,87
18.4487,77
18.4859,87
18.5230,80
18.5602,75
18.5973,62
18.6345,94
18.6716,90
18.7088,80
18.7459,68
18.7831,92
18.8202,90
18.8574,78
18.8945,89
18.9317,85
18.9689,80
19.0060,77
19.0432,88
19.0803,79
19.1175,88
19.1546,88
19.1918,83
19.2289,79
19.2661,87
19.3032,77
19.3404,89
19.3775,90
19.4147,89
19.4518,94
19.4890,71
19.5261,84
19.5633,92
19.6004,82
19.6376,82
19.6747,79
19.7119,81
19.7490,86
19.7862,85
19.8233,82
19.8605,85
19.8976,75
19.9348,71
19.9719,75
20.0091,69
20.0462,93
20.0834,104
20.1205,95
20.1577,88
20.1948,99
20.2320,69
20.2691,84
20.3063,94
20.3434,105
20.3806,100
20.4177,92
20.4549,94
20.4921,93
20.5292,87
20.5664,91
20.6035,109
20.6407,80
20.6778,91
20.7150,102
20.7521,96
20.7893,89
20.8264,73
20.8636,85
20.9007,102
20.9379,90
20.9750,108
21.0122,91
21.0493,91
21.0865,110
21.1236,114
21.1608,133
21.1979,149
21.2351,171
21.2722,178
21.3094,162
21.3465,240
21.3837,213
21.4208,169
21.4580,115
21.4951,94
21.5323,94
21.5694,115
21.6066,90
21.6437,105
21.6809,102
21.7180,101
21.7552,99
21.7923,103
21.8295,95
21.8666,87
21.9038,99
21.9409,103
21.9781,94
22.0152,88
22.0524,103
22.0896,83
22.1267,99
22.1639,102
22.2010,108
22.2382,127
22.2753,97
22.3125,88
22.3496,96
22.3868,91
22.4239,84
22.4611,85
22.4982,96
22.5354,114
22.5725,97
22.6097,95
22.6468,103
22.6840,102
22.7211,96
22.7583,104
22.7954,110
22.8326,112
22.8697,104
22.9069,111
22.9440,87
22.9812,110
23.0183,103
23.0555,102
23.0926,101
23.1298,102
23.1669,100
23.2041,101
23.2412,93
23.2784,89
23.3155,108
23.3527,92
23.3898,93
23.4270,115
23.4641,89
23.5013,86
23.5384,83
23.5756,101
23.6128,111
23.6499,86
23.6871,94
23.7242,98
23.7614,97
23.7985,89
23.8357,89
23.8728,98
23.9100,94
23.9471,124
23.9843,126
24.0214,96
24.0586,91
24.0957,96
24.1329,84
24.1700,100
24.2072,101
24.2443,102
24.2815,112
24.3186,107
24.3558,113
24.3929,109
24.4301,94
24.4672,92
24.5044,91
24.5415,95
24.5787,90
24.6158,98
24.6530,84
24.6901,109
24.7273,93
24.7644,114
24.8016,104
24.8387,92
24.8759,82
24.9130,91
24.9502,126
24.9873,90
25.0245,107
25.0616,92
25.0988,94
25.1360,94
25.1731,103
25.2103,98
25.2474,100
25.2846,77
25.3217,80
25.3589,104
25.3960,96
25.4332,83
25.4703,90
25.5075,84
25.5446,79
25.5818,100
25.6189,99
25.6561,88
25.6932,101
25.7304,100
25.7675,86
25.8047,84
25.8418,101
25.8790,96
25.9161,87
25.9533,92
25.9904,79
26.0276,93
26.0647,119
26.1019,87
26.1390,92
26.1762,88
26.2133,99
26.2505,114
26.2876,91
26.3248,91
26.3619,81
26.3991,82
26.4362,86
26.4734,82
26.5105,93
26.5477,73
26.5848,86
26.6220,95
26.6591,92
26.6963,88
26.7335,87
26.7706,90
26.8078,105
26.8449,94
26.8821,99
26.9192,76
26.9564,91
26.9935,94
27.0307,112
27.0678,107
27.1050,101
27.1421,101
27.1793,111
27.2164,125
27.2536,122
27.2907,118
27.3279,81
27.3650,91
27.4022,89
27.4393,108
27.4765,75
27.5136,88
27.5508,69
27.5879,85
27.6251,91
27.6622,76
27.6994,78
27.7365,102
27.7737,79
27.8108,92
27.8480,87
27.8851,75
27.9223,65
27.9594,102
27.9966,72
28.0337,79
28.0709,86
28.1080,78
28.1452,77
28.1823,83
28.2195,71
28.2567,71
28.2938,106
28.3310,88
28.3681,85
28.4053,90
28.4424,82
28.4796,70
28.5167,91
28.5539,77
28.5910,77
28.6282,100
28.6653,59
28.7025,96
28.7396,83
28.7768,86
28.8139,72
28.8511,85
28.8882,75
28.9254,76
28.9625,79
28.9997,82
29.0368,75
29.0740,70
29.1111,96
29.1483,66
29.1854,76
29.2226,92
29.2597,71
29.2969,93
29.3340,79
29.3712,95
29.4083,77
29.4455,82
29.4826,69
29.5198,62
29.5569,73
29.5941,87
29.6312,83
29.6684,73
29.7055,89
29.7427,73
29.7799,81
29.8170,60
29.8542,87
29.8913,74
29.9285,78
29.9656,61
30.0028,66
30.0399,75
30.0771,72
30.1142,82
30.1514,70
30.1885,66
30.2257,72
30.2628,83
30.3000,94
30.3371,89
30.3743,158
30.4114,152
30.4486,107
30.4857,116
30.5229,77
30.5600,79
30.5972,78
30.6343,82
30.6715,57
30.7086,66
30.7458,71
30.7829,59
30.8201,67
30.8572,74
30.8944,60
30.9315,56
30.9687,71
31.0058,56
31.0430,71
31.0801,67
31.1173,58
31.1544,65
31.1916,73
31.2287,86
31.2659,73
31.3030,72
31.3402,69
31.3774,69
31.4145,63
31.4517,87
31.4888,59
31.5260,69
31.5631,60
31.6003,69
31.6374,66
31.6746,76
31.7117,67
31.7489,60
31.7860,79
31.8232,71
31.8603,52
31.8975,62
31.9346,68
31.9718,78
32.0089,71
32.0461,61
32.0832,66
32.1204,66
32.1575,72
32.1947,55
32.2318,77
32.2690,73
32.3061,63
32.3433,70
32.3804,79
32.4176,83
32.4547,61
32.4919,85
32.5290,72
32.5662,74
32.6033,80
32.6405,72
32.6776,64
32.7148,74
32.7519,56
32.7891,56
32.8262,56
32.8634,57
32.9006,68
32.9377,51
32.9749,59
33.0120,60
33.0492,67
33.0863,67
33.1235,74
33.1606,47
33.1978,63
33.2349,54
33.2721,59
33.3092,57
33.3464,62
33.3835,65
33.4207,66
33.4578,44
33.4950,54
33.5321,55
33.5693,62
33.6064,61
33.6436,65
33.6807,60
33.7179,70
33.7550,48
33.7922,65
33.8293,60
33.8665,55
33.9036,53
33.9408,38
33.9779,57
34.0151,52
34.0522,54
34.0894,57
34.1265,47
34.1637,70
34.2008,61
34.2380,45
34.2751,62
34.3123,55
34.3494,61
34.3866,59
34.4238,58
34.4609,51
34.4981,45
34.5352,53
34.5724,68
34.6095,75
34.6467,57
34.6838,63
34.7210,65
34.7581,77
34.7953,82
34.8324,82
34.8696,62
34.9067,51
34.9439,65
34.9810,49
35.0182,57
35.0553,52
35.0925,51
35.1296,54
35.1668,64
35.2039,46
35.2411,33
35.2782,65
35.3154,54
35.3525,48
35.3897,52
35.4268,52
35.4640,54
35.5011,42
35.5383,57
35.5754,51
35.6126,50
35.6497,41
35.6869,50
35.7240,40
35.7612,48
35.7983,41
35.8355,53
35.8726,49
35.9098,48
35.9469,41
35.9841,47
36.0213,52
36.0584,38
36.0956,51
36.1327,51
36.1699,49
36.2070,42
36.2442,43
36.2813,57
36.3185,53
36.3556,37
36.3928,47
36.4299,37
36.4671,45
36.5042,44
36.5414,40
36.5785,60
36.6157,44
36.6528,54
36.6900,46
36.7271,46
36.7643,53
36.8014,38
36.8386,50
36.8757,50
36.9129,58
36.9500,53
36.9872,34
37.0243,57
37.0615,54
37.0986,43
37.1358,54
37.1729,60
37.2101,58
37.2472,47
37.2844,52
37.3215,52
37.3587,41
37.3958,41
37.4330,84
37.4701,75
37.5073,61
37.5445,53
37.5816,40
37.6188,52
37.6559,44
37.6931,42
37.7302,38
37.7674,46
37.8045,35
37.8417,37
37.8788,33
37.9160,40
37.9531,38
37.9903,39
38.0274,35
38.0646,47
38.1017,46
38.1389,55
38.1760,41
38.2132,49
38.2503,54
38.2875,39
38.3246,37
38.3618,42
38.3989,45
38.4361,40
38.4732,31
38.5104,41
38.5475,51
38.5847,40
38.6218,37
38.6590,35
38.6961,43
38.7333,41
38.7704,43
38.8076,38
38.8447,39
38.8819,51
38.9190,50
38.9562,46
38.9933,47
39.0305,43
39.0677,43
39.1048,41
39.1420,43
39.1791,44
39.2163,43
39.2534,37
39.2906,37
39.3277,37
39.3649,42
39.4020,36
39.4392,39
39.4763,46
39.5135,46
39.5506,42
39.5878,42
39.6249,40
39.6621,49
39.6992,42
39.7364,33
39.7735,36
39.8107,44
39.8478,53
39.8850,45
39.9221,34
39.9593,27
39.9964,49
40.0336,46
40.0707,33
40.1079,44
40.1450,32
40.1822,41
40.2193,35
40.2565,43
40.2936,43
40.3308,40
40.3679,36
40.4051,30
40.4422,32
40.4794,40
40.5165,29
40.5537,39
40.5908,29
40.6280,45
40.6652,39
40.7023,44
40.7395,33
40.7766,39
40.8138,37
40.8509,44
40.8881,45
40.9252,29
40.9624,41
40.9995,39
41.0367,22
41.0738,36
41.1110,51
41.1481,38
41.1853,32
41.2224,37
41.2596,48
41.2967,42
41.3339,34
41.3710,31
41.4082,35
41.4453,57
41.4825,39
41.5196,29
41.5568,36
41.5939,37
41.6311,29
41.6682,32
41.7054,49
41.7425,40
41.7797,39
41.8168,35
41.8540,37
41.8911,26
41.9283,37
41.9654,34
42.0026,39
42.0397,30
42.0769,41
42.1140,46
42.1512,42
42.1884,38
42.2255,32
42.2627,33
42.2998,44
42.3370,42
42.3741,32
42.4113,36
42.4484,32
42.4856,27
42.5227,41
42.5599,39
42.5970,40
42.6342,25
42.6713,35
42.7085,38
42.7456,36
42.7828,48
42.8199,45
42.8571,35
42.8942,32
42.9314,36
42.9685,40
43.0057,42
43.0428,40
43.0800,40
43.1171,35
43.1543,39
43.1914,42
43.2286,59
43.2657,46
43.3029,38
43.3400,37
43.3772,33
43.4143,46
43.4515,50
43.4886,57
43.5258,69
43.5629,54
43.6001,51
43.6372,49
43.6744,47
43.7116,29
43.7487,44
43.7859,38
43.8230,38
43.8602,40
43.8973,35
43.9345,33
43.9716,44
44.0088,33
44.0459,34
44.0831,30
44.1202,34
44.1574,37
44.1945,40
44.2317,38
44.2688,39
44.3060,29
44.3431,36
44.3803,36
44.4174,38
44.4546,46
44.4917,34
44.5289,37
44.5660,45
44.6032,35
44.6403,45
44.6775,42
44.7146,40
44.7518,32
44.7889,31
44.8261,29
44.8632,41
44.9004,34
44.9375,38
44.9747,36
45.0118,36
45.0490,44
45.0861,35
45.1233,28
45.1604,30
45.1976,24
45.2347,35
45.2719,34
45.3091,36
45.3462,36
45.3834,36
45.4205,36
45.4577,29
45.4948,30
45.5320,37
45.5691,26
45.6063,36
45.6434,27
45.6806,39
45.7177,32
45.7549,36
45.7920,29
45.8292,30
45.8663,37
45.9035,28
45.9406,29
45.9778,26
46.0149,38
46.0521,31
46.0892,30
46.1264,32
46.1635,35
46.2007,27
46.2378,34
46.2750,29
46.3121,30
46.3493,36
46.3864,40
46.4236,34
46.4607,28
46.4979,33
46.5350,37
46.5722,29
46.6093,41
46.6465,33
46.6836,40
46.7208,29
46.7579,32
46.7951,33
46.8323,30
46.8694,32
46.9066,41
46.9437,29
46.9809,37
47.0180,24
47.0552,25
47.0923,32
47.1295,30
47.1666,23
47.2038,25
47.2409,21
47.2781,37
47.3152,34
47.3524,24
47.3895,41
47.4267,26
47.4638,37
47.5010,32
47.5381,37
47.5753,48
47.6124,33
47.6496,26
47.6867,44
47.7239,30
47.7610,33
47.7982,29
47.8353,27
47.8725,22
47.9096,27
47.9468,28
47.9839,29
48.0211,31
48.0582,36
48.0954,37
48.1325,27
48.1697,27
48.2068,39
48.2440,14
48.2811,33
48.3183,29
48.3555,24
48.3926,23
48.4298,32
48.4669,35
48.5041,34
48.5412,29
48.5784,32
48.6155,25
48.6527,31
48.6898,32
48.7270,38
48.7641,37
48.8013,22
48.8384,34
48.8756,36
48.9127,34
48.9499,45
48.9870,45
49.0242,40
49.0613,36
49.0985,51
49.1356,42
49.1728,43
49.2099,21
49.2471,38
49.2842,25
49.3214,25
49.3585,27
49.3957,41
49.4328,30
49.4700,21
49.5071,33
49.5443,30
49.5814,28
49.6186,33
49.6557,39
49.6929,23
49.7300,19
49.7672,25
49.8043,26
49.8415,35
49.8786,32
49.9158,34
49.9530,38
49.9901,35
50.0273,25
50.0644,31
50.1016,26
50.1387,26
50.1759,33
50.2130,22
50.2502,36
50.2873,29
50.3245,26
50.3616,29
50.3988,20
50.4359,24
50.4731,19
50.5102,24
50.5474,37
50.5845,38
50.6217,27
50.6588,32
50.6960,23
50.7331,39
50.7703,32
50.8074,25
50.8446,36
50.8817,23
50.9189,29
50.9560,30
50.9932,34
51.0303,22
51.0675,21
51.1046,32
51.1418,39
51.1789,23
51.2161,31
51.2532,25
51.2904,25
51.3275,35
51.3647,32
51.4018,45
51.4390,37
51.4762,27
51.5133,29
51.5505,38
51.5876,30
51.6248,27
51.6619,33
51.6991,35
51.7362,33
51.7734,30
51.8105,35
51.8477,40
51.8848,28
51.9220,35
51.9591,27
51.9963,28
52.0334,38
52.0706,28
52.1077,29
52.1449,27
52.1820,26
52.2192,33
52.2563,30
52.2935,29
52.3306,27
52.3678,24
52.4049,33
52.4421,23
52.4792,25
52.5164,24
52.5535,38
52.5907,35
52.6278,30
52.6650,29
52.7021,36
52.7393,34
52.7764,21
52.8136,28
52.8507,22
52.8879,25
52.9250,23
52.9622,31
52.9994,27
53.0365,42
53.0737,28
53.1108,30
53.1480,23
53.1851,26
53.2223,30
53.2594,24
53.2966,44
53.3337,29
53.3709,34
53.4080,24
53.4452,29
53.4823,25
53.5195,23
53.5566,28
53.5938,38
53.6309,33
53.6681,36
53.7052,25
53.7424,23
53.7795,21
53.8167,21
53.8538,30
53.8910,27
53.9281,35
53.9653,35
54.0024,49
54.0396,46
54.0767,20
54.1139,26
54.1510,41
54.1882,36
54.2253,29
54.2625,24
54.2996,23
54.3368,26
54.3739,31
54.4111,18
54.4482,27
54.4854,27
54.5225,26
54.5597,24
54.5969,22
54.6340,27
54.6712,21
54.7083,27
54.7455,23
54.7826,24
54.8198,29
54.8569,26
54.8941,17
54.9312,34
54.9684,33
55.0055,30
55.0427,29
55.0798,32
55.1170,32
55.1541,23
55.1913,34
55.2284,39
55.2656,28
55.3027,38
55.3399,27
55.3770,25
55.4142,26
55.4513,21
55.4885,35
55.5256,26
55.5628,35
55.5999,31
55.6371,22
55.6742,27
55.7114,31
55.7485,28
55.7857,32
55.8228,34
55.8600,24
55.8971,25
55.9343,31
55.9714,20
56.0086,27
56.0457,21
56.0829,29
56.1201,33
56.1572,25
56.1944,31
56.2315,21
56.2687,31
56.3058,39
56.3430,31
56.3801,27
56.4173,33
56.4544,28
56.4916,37
56.5287,28
56.5659,35
56.6030,27
56.6402,37
56.6773,30
56.7145,24
56.7516,27
56.7888,27
56.8259,34
56.8631,25
56.9002,31
56.9374,33
56.9745,30
57.0117,32
57.0488,21
57.0860,17
57.1231,24
57.1603,27
57.1974,26
57.2346,26
57.2717,23
57.3089,28
57.3460,23
57.3832,31
57.4203,26
57.4575,22
57.4946,21
57.5318,33
57.5689,29
57.6061,20
57.6433,32
57.6804,21
57.7176,23
57.7547,32
57.7919,33
57.8290,26
57.8662,27
57.9033,27
57.9405,21
57.9776,18
58.0148,29
58.0519,29
58.0891,13
58.1262,27
58.1634,37
58.2005,21
58.2377,24
58.2748,19
58.3120,22
58.3491,28
58.3863,23
58.4234,25
58.4606,32
58.4977,35
58.5349,26
58.5720,38
58.6092,26
58.6463,27
58.6835,32
58.7206,27
58.7578,27
58.7949,31
58.8321,30
58.8692,23
58.9064,16
58.9435,18
58.9807,19
59.0178,27
59.0550,34
59.0921,25
59.1293,32
59.1664,22
59.2036,22
59.2408,34
59.2779,24
59.3151,20
59.3522,23
59.3894,19
59.4265,25
59.4637,28
59.5008,26
59.5380,22
59.5751,30
59.6123,26
59.6494,27
59.6866,30
59.7237,27
59.7609,25
59.7980,32
59.8352,19
59.8723,25
59.9095,22
59.9466,27
59.9838,17
60.0024,25