File: notebooks/data/xrd_data/ML_20220720_10_SJD_4_LaB6-1min.uxd
; (content of file Y:\Sam\Apurva-07-20-2022\puck2\ML_20220720_10_SJD_0_LaB6-1min.raw)
_FILEVERSION = 3
_SAMPLE = ML_20220720_10_SJD_0_LaB6-1mi
_+SAMPLE =
_SITE = USA
_USER = Administrator
_GONIOMETER_CODE = 20
; Goniometer : D8 theta/2theta, stage : Unknown
_ATTACHMENTS_CODE = 0
_GONIOMETER_RADIUS = 200.5
_FIXED_DIVSLIT = 0.6
_FIXED_SAMPLESLIT = 0
_SOLLER_SLITS = 2
_FIXED_DETSLIT = 9.55
_MONOCHROMATOR = 0
; Incident beam monochromator : None
_SOLLER_SLITS_2 = N
_THIN_FILM = N
_BETA_FILTER = Y
_FIXED_ANTISLIT = 5.89
_ANALYZER_CODE = 0
; Received beam analyzer : None
_DATEMEASURED = "25-Jul-2022 18:04:57"
_WL_UNIT = A
_WL1 = 1.5406
_WL2 = 1.54439
_WL3 = 1.39222
_WLRATIO = 0.5
_ANODE = Cu
_V4_INF_CREATOR = XRDWizard
_V4_INF_CREATOR_VERSION = V2.9.0.22
_V4_INF_WIZARD_VERSION = V2.9.0.22
_V4_INF_WIZARD_ADDINS = V2.9.0.22
_V4_INF_WIZARD_DOCTYPE = XRD
_V4_INF_OSUSER = McQueenLab
_V4_INF_USER = Administrator
_V4_INF_SITE = USA
_V4_INF_SAMPLEID = ML_20220720_10_SJD_0_LaB6-1mi

; Data for range 1
_DRIVE = COUPLED
_STEPTIME = 4.23
_STEPSIZE = 0.0185756
_STEPMODE = C
_START = 5
_THETA = 2.5
_2THETA = 5
_KHI = 0
_PHI = 0
_X = 0
_Y = 0
_Z = 0
_DETECTOR = 5
; Detector type : Unknown
_DETECTORSLIT = unkn
_AUX1 = 0
_AUX2 = 0
_AUX3 = 0
_TIMESTARTED = 16
_TEMP_RATE = -1
_TEMP_DELAY = -1
_KV = 40
_MA = 40
_RANGE_WL = 1.5406
_3DPLANE = 0
_V4_ADDITIONALDETECTOR = 257
_V4_PSD2THETA = 3.3766
_V4_PSDCHANNEL1 = 0
_V4_PSDAPERTURE = 12.68
_V4_PSDTYPE = 5
_V4_PSDFIXED = 0
_V4_COUNTERS_MASK = 4096
_V4_DRIVES_MASK = 0
_V4_ENCODERS_MASK = 0
_2THETACOUNTS = 1
; 2THETA  PSD
   5.0000         97
   5.0372         94
   5.0743         86
   5.1115        110
   5.1486         85
   5.1858        101
   5.2229         86
   5.2601         82
   5.2972         96
   5.3344         84
   5.3715         89
   5.4087         77
   5.4458         95
   5.4830         96
   5.5201         80
   5.5573         82
   5.5944         62
   5.6316         86
   5.6687         80
   5.7059         87
   5.7430         87
   5.7802         71
   5.8173         83
   5.8545         73
   5.8916         64
   5.9288         70
   5.9659         79
   6.0031         70
   6.0402         70
   6.0774         71
   6.1145         76
   6.1517         82
   6.1888         63
   6.2260         62
   6.2631         78
   6.3003         77
   6.3374         64
   6.3746         71
   6.4117         72
   6.4489         71
   6.4860         54
   6.5232         64
   6.5604         62
   6.5975         66
   6.6347         55
   6.6718         73
   6.7090         63
   6.7461         57
   6.7833         81
   6.8204         67
   6.8576         61
   6.8947         63
   6.9319         77
   6.9690         54
   7.0062         43
   7.0433         66
   7.0805         71
   7.1176         51
   7.1548         50
   7.1919         68
   7.2291         63
   7.2662         66
   7.3034         56
   7.3405         61
   7.3777         53
   7.4148         59
   7.4520         54
   7.4891         72
   7.5263         59
   7.5634         69
   7.6006         63
   7.6377         47
   7.6749         67
   7.7120         71
   7.7492         85
   7.7863         68
   7.8235         69
   7.8606         62
   7.8978         70
   7.9349         68
   7.9721         62
   8.0092         68
   8.0464         70
   8.0835         72
   8.1207         75
   8.1579         63
   8.1950         66
   8.2322         58
   8.2693         69
   8.3065         69
   8.3436         68
   8.3808         72
   8.4179         77
   8.4551         60
   8.4922         69
   8.5294         79
   8.5665         46
   8.6037         67
   8.6408         70
   8.6780         78
   8.7151         64
   8.7523         93
   8.7894         69
   8.8266         71
   8.8637         77
   8.9009         72
   8.9380         66
   8.9752         75
   9.0123         86
   9.0495         90
   9.0866         77
   9.1238         81
   9.1609         76
   9.1981         75
   9.2352         89
   9.2724         76
   9.3095         66
   9.3467         81
   9.3838         82
   9.4210         80
   9.4581         83
   9.4953         66
   9.5324         78
   9.5696         76
   9.6067         81
   9.6439         62
   9.6811         87
   9.7182         89
   9.7554         77
   9.7925         82
   9.8297         71
   9.8668         77
   9.9040         99
   9.9411         95
   9.9783         64
  10.0154         73
  10.0526         79
  10.0897         92
  10.1269         86
  10.1640         88
  10.2012         95
  10.2383         84
  10.2755         86
  10.3126        114
  10.3498         89
  10.3869         89
  10.4241         74
  10.4612         87
  10.4984         87
  10.5355         81
  10.5727         72
  10.6098         74
  10.6470         73
  10.6841         94
  10.7213         81
  10.7584         84
  10.7956         83
  10.8327         80
  10.8699         84
  10.9070         85
  10.9442         88
  10.9813         78
  11.0185        104
  11.0556         89
  11.0928         83
  11.1299         95
  11.1671         83
  11.2043         90
  11.2414         90
  11.2786         75
  11.3157         87
  11.3529        101
  11.3900         87
  11.4272         85
  11.4643         78
  11.5015         87
  11.5386         92
  11.5758        102
  11.6129         93
  11.6501         84
  11.6872         91
  11.7244        104
  11.7615         73
  11.7987         97
  11.8358         97
  11.8730         84
  11.9101         91
  11.9473         78
  11.9844         83
  12.0216         77
  12.0587         73
  12.0959         75
  12.1330         78
  12.1702         86
  12.2073         73
  12.2445         90
  12.2816         96
  12.3188         83
  12.3559         67
  12.3931         67
  12.4302         79
  12.4674         78
  12.5045         79
  12.5417         72
  12.5788         81
  12.6160         81
  12.6531         78
  12.6903         96
  12.7274         85
  12.7646         73
  12.8018         75
  12.8389         87
  12.8761         84
  12.9132         86
  12.9504         67
  12.9875         81
  13.0247         69
  13.0618         82
  13.0990         77
  13.1361         78
  13.1733         70
  13.2104         81
  13.2476         70
  13.2847         73
  13.3219         85
  13.3590         82
  13.3962         75
  13.4333         85
  13.4705         76
  13.5076         70
  13.5448         69
  13.5819         80
  13.6191         70
  13.6562         59
  13.6934         76
  13.7305         79
  13.7677         73
  13.8048         95
  13.8420         65
  13.8791         83
  13.9163         60
  13.9534         74
  13.9906         72
  14.0277         75
  14.0649         66
  14.1020         53
  14.1392         58
  14.1763         66
  14.2135         52
  14.2506         67
  14.2878         60
  14.3250         55
  14.3621         57
  14.3993         77
  14.4364         65
  14.4736         61
  14.5107         63
  14.5479         58
  14.5850         59
  14.6222         53
  14.6593         62
  14.6965         64
  14.7336         54
  14.7708         59
  14.8079         67
  14.8451         51
  14.8822         51
  14.9194         60
  14.9565         73
  14.9937         58
  15.0308         64
  15.0680         75
  15.1051         58
  15.1423         63
  15.1794         70
  15.2166         68
  15.2537         64
  15.2909         64
  15.3280         65
  15.3652         62
  15.4023         55
  15.4395         63
  15.4766         65
  15.5138         47
  15.5509         75
  15.5881         59
  15.6252         58
  15.6624         52
  15.6995         58
  15.7367         68
  15.7738         56
  15.8110         62
  15.8482         49
  15.8853         57
  15.9225         63
  15.9596         86
  15.9968         54
  16.0339         61
  16.0711         61
  16.1082         52
  16.1454         60
  16.1825         62
  16.2197         53
  16.2568         58
  16.2940         61
  16.3311         59
  16.3683         63
  16.4054         66
  16.4426         82
  16.4797         59
  16.5169         54
  16.5540         75
  16.5912         70
  16.6283         68
  16.6655         62
  16.7026         61
  16.7398         62
  16.7769         52
  16.8141         74
  16.8512         67
  16.8884         55
  16.9255         53
  16.9627         64
  16.9998         56
  17.0370         59
  17.0741         62
  17.1113         53
  17.1484         52
  17.1856         65
  17.2227         55
  17.2599         74
  17.2970         54
  17.3342         62
  17.3713         47
  17.4085         78
  17.4457         59
  17.4828         73
  17.5200         64
  17.5571         70
  17.5943         60
  17.6314         67
  17.6686         56
  17.7057         53
  17.7429         66
  17.7800         64
  17.8172         57
  17.8543         48
  17.8915         45
  17.9286         52
  17.9658         54
  18.0029         52
  18.0401         60
  18.0772         57
  18.1144         60
  18.1515         58
  18.1887         64
  18.2258         56
  18.2630         50
  18.3001         56
  18.3373         61
  18.3744         55
  18.4116         61
  18.4487         44
  18.4859         61
  18.5230         63
  18.5602         70
  18.5973         63
  18.6345         71
  18.6716         62
  18.7088         50
  18.7459         62
  18.7831         70
  18.8202         50
  18.8574         62
  18.8945         58
  18.9317         56
  18.9689         60
  19.0060         67
  19.0432         78
  19.0803         64
  19.1175         68
  19.1546         65
  19.1918         63
  19.2289         78
  19.2661         58
  19.3032         64
  19.3404         61
  19.3775         83
  19.4147         66
  19.4518         65
  19.4890         74
  19.5261         54
  19.5633         56
  19.6004         61
  19.6376         57
  19.6747         66
  19.7119         63
  19.7490         59
  19.7862         66
  19.8233         68
  19.8605         69
  19.8976         60
  19.9348         80
  19.9719         66
  20.0091         62
  20.0462         65
  20.0834         81
  20.1205         81
  20.1577         54
  20.1948         64
  20.2320         68
  20.2691         81
  20.3063         55
  20.3434         63
  20.3806         78
  20.4177         72
  20.4549         71
  20.4921         73
  20.5292         74
  20.5664         69
  20.6035         76
  20.6407         76
  20.6778         75
  20.7150         74
  20.7521         65
  20.7893         82
  20.8264         66
  20.8636         79
  20.9007         63
  20.9379         79
  20.9750         72
  21.0122         75
  21.0493         58
  21.0865         75
  21.1236         69
  21.1608         97
  21.1979        109
  21.2351        121
  21.2722        109
  21.3094        117
  21.3465        217
  21.3837        134
  21.4208        135
  21.4580         97
  21.4951         89
  21.5323         61
  21.5694         91
  21.6066         76
  21.6437         60
  21.6809         67
  21.7180         69
  21.7552         70
  21.7923         74
  21.8295         52
  21.8666         86
  21.9038         80
  21.9409         48
  21.9781         82
  22.0152         68
  22.0524         78
  22.0896         65
  22.1267         80
  22.1639         61
  22.2010         84
  22.2382         82
  22.2753         79
  22.3125         73
  22.3496         88
  22.3868         74
  22.4239         72
  22.4611         79
  22.4982         71
  22.5354         73
  22.5725         70
  22.6097         62
  22.6468         66
  22.6840         69
  22.7211         52
  22.7583         85
  22.7954         73
  22.8326         71
  22.8697         62
  22.9069         73
  22.9440         87
  22.9812         80
  23.0183         74
  23.0555         82
  23.0926         90
  23.1298         68
  23.1669         72
  23.2041         72
  23.2412         62
  23.2784         93
  23.3155         62
  23.3527         79
  23.3898         84
  23.4270         51
  23.4641         72
  23.5013         74
  23.5384         67
  23.5756         64
  23.6128         64
  23.6499         70
  23.6871         57
  23.7242         76
  23.7614         68
  23.7985        101
  23.8357         75
  23.8728         72
  23.9100         73
  23.9471         75
  23.9843         58
  24.0214         69
  24.0586         84
  24.0957         70
  24.1329         81
  24.1700         73
  24.2072         77
  24.2443         73
  24.2815         77
  24.3186         92
  24.3558         71
  24.3929         63
  24.4301         73
  24.4672         82
  24.5044         78
  24.5415         48
  24.5787         77
  24.6158         63
  24.6530         62
  24.6901         80
  24.7273         61
  24.7644         94
  24.8016         72
  24.8387         70
  24.8759         63
  24.9130         67
  24.9502         65
  24.9873         64
  25.0245         68
  25.0616         69
  25.0988         76
  25.1360         70
  25.1731         69
  25.2103         71
  25.2474         74
  25.2846         73
  25.3217         83
  25.3589         61
  25.3960         74
  25.4332         67
  25.4703         70
  25.5075         82
  25.5446         67
  25.5818         63
  25.6189         58
  25.6561         66
  25.6932         67
  25.7304         81
  25.7675         61
  25.8047         75
  25.8418         80
  25.8790         66
  25.9161         63
  25.9533         72
  25.9904         64
  26.0276         63
  26.0647         68
  26.1019         80
  26.1390         82
  26.1762         63
  26.2133         68
  26.2505         66
  26.2876         77
  26.3248         71
  26.3619         65
  26.3991         66
  26.4362         77
  26.4734         55
  26.5105         57
  26.5477         71
  26.5848         44
  26.6220         83
  26.6591         66
  26.6963         73
  26.7335         68
  26.7706         61
  26.8078         71
  26.8449         45
  26.8821         68
  26.9192         68
  26.9564         73
  26.9935         68
  27.0307         71
  27.0678         62
  27.1050         83
  27.1421         58
  27.1793         82
  27.2164         78
  27.2536         67
  27.2907         90
  27.3279         59
  27.3650         70
  27.4022         59
  27.4393         74
  27.4765         70
  27.5136         65
  27.5508         73
  27.5879         66
  27.6251         63
  27.6622         61
  27.6994         63
  27.7365         69
  27.7737         71
  27.8108         69
  27.8480         59
  27.8851         70
  27.9223         64
  27.9594         74
  27.9966         75
  28.0337         59
  28.0709         53
  28.1080         63
  28.1452         69
  28.1823         51
  28.2195         51
  28.2567         61
  28.2938         54
  28.3310         64
  28.3681         65
  28.4053         64
  28.4424         67
  28.4796         61
  28.5167         77
  28.5539         71
  28.5910         57
  28.6282         67
  28.6653         68
  28.7025         62
  28.7396         68
  28.7768         66
  28.8139         63
  28.8511         77
  28.8882         55
  28.9254         54
  28.9625         65
  28.9997         71
  29.0368         60
  29.0740         68
  29.1111         56
  29.1483         52
  29.1854         63
  29.2226         45
  29.2597         54
  29.2969         58
  29.3340         58
  29.3712         70
  29.4083         61
  29.4455         59
  29.4826         51
  29.5198         64
  29.5569         48
  29.5941         55
  29.6312         67
  29.6684         72
  29.7055         45
  29.7427         62
  29.7799         57
  29.8170         46
  29.8542         58
  29.8913         61
  29.9285         57
  29.9656         58
  30.0028         74
  30.0399         63
  30.0771         54
  30.1142         70
  30.1514         62
  30.1885         65
  30.2257         55
  30.2628         76
  30.3000         63
  30.3371         82
  30.3743        113
  30.4114         82
  30.4486         97
  30.4857         81
  30.5229         68
  30.5600         57
  30.5972         56
  30.6343         58
  30.6715         59
  30.7086         56
  30.7458         42
  30.7829         54
  30.8201         68
  30.8572         51
  30.8944         42
  30.9315         60
  30.9687         49
  31.0058         58
  31.0430         57
  31.0801         56
  31.1173         52
  31.1544         49
  31.1916         38
  31.2287         53
  31.2659         51
  31.3030         46
  31.3402         45
  31.3774         50
  31.4145         54
  31.4517         64
  31.4888         56
  31.5260         48
  31.5631         50
  31.6003         41
  31.6374         58
  31.6746         50
  31.7117         53
  31.7489         57
  31.7860         56
  31.8232         53
  31.8603         50
  31.8975         57
  31.9346         47
  31.9718         38
  32.0089         49
  32.0461         40
  32.0832         58
  32.1204         45
  32.1575         54
  32.1947         49
  32.2318         53
  32.2690         51
  32.3061         44
  32.3433         41
  32.3804         54
  32.4176         61
  32.4547         55
  32.4919         58
  32.5290         53
  32.5662         61
  32.6033         47
  32.6405         48
  32.6776         48
  32.7148         46
  32.7519         60
  32.7891         47
  32.8262         49
  32.8634         40
  32.9006         43
  32.9377         38
  32.9749         43
  33.0120         53
  33.0492         42
  33.0863         47
  33.1235         34
  33.1606         50
  33.1978         52
  33.2349         58
  33.2721         49
  33.3092         40
  33.3464         58
  33.3835         23
  33.4207         33
  33.4578         42
  33.4950         39
  33.5321         45
  33.5693         43
  33.6064         42
  33.6436         45
  33.6807         56
  33.7179         44
  33.7550         41
  33.7922         37
  33.8293         45
  33.8665         37
  33.9036         37
  33.9408         47
  33.9779         39
  34.0151         28
  34.0522         44
  34.0894         48
  34.1265         40
  34.1637         33
  34.2008         44
  34.2380         39
  34.2751         35
  34.3123         48
  34.3494         42
  34.3866         38
  34.4238         48
  34.4609         46
  34.4981         36
  34.5352         35
  34.5724         49
  34.6095         50
  34.6467         53
  34.6838         49
  34.7210         62
  34.7581         62
  34.7953         56
  34.8324         49
  34.8696         61
  34.9067         43
  34.9439         39
  34.9810         38
  35.0182         43
  35.0553         39
  35.0925         40
  35.1296         31
  35.1668         38
  35.2039         34
  35.2411         37
  35.2782         36
  35.3154         42
  35.3525         38
  35.3897         34
  35.4268         36
  35.4640         48
  35.5011         31
  35.5383         38
  35.5754         40
  35.6126         38
  35.6497         38
  35.6869         31
  35.7240         29
  35.7612         33
  35.7983         35
  35.8355         42
  35.8726         35
  35.9098         37
  35.9469         34
  35.9841         36
  36.0213         40
  36.0584         27
  36.0956         30
  36.1327         35
  36.1699         31
  36.2070         33
  36.2442         43
  36.2813         33
  36.3185         28
  36.3556         32
  36.3928         37
  36.4299         38
  36.4671         37
  36.5042         38
  36.5414         36
  36.5785         30
  36.6157         39
  36.6528         39
  36.6900         23
  36.7271         30
  36.7643         31
  36.8014         32
  36.8386         23
  36.8757         39
  36.9129         29
  36.9500         39
  36.9872         44
  37.0243         28
  37.0615         38
  37.0986         37
  37.1358         29
  37.1729         37
  37.2101         28
  37.2472         35
  37.2844         38
  37.3215         44
  37.3587         34
  37.3958         40
  37.4330         47
  37.4701         42
  37.5073         48
  37.5445         37
  37.5816         33
  37.6188         41
  37.6559         34
  37.6931         23
  37.7302         42
  37.7674         41
  37.8045         28
  37.8417         31
  37.8788         38
  37.9160         26
  37.9531         25
  37.9903         25
  38.0274         22
  38.0646         29
  38.1017         27
  38.1389         32
  38.1760         26
  38.2132         18
  38.2503         35
  38.2875         37
  38.3246         33
  38.3618         28
  38.3989         31
  38.4361         28
  38.4732         21
  38.5104         36
  38.5475         27
  38.5847         31
  38.6218         37
  38.6590         28
  38.6961         32
  38.7333         25
  38.7704         33
  38.8076         37
  38.8447         37
  38.8819         35
  38.9190         33
  38.9562         27
  38.9933         33
  39.0305         43
  39.0677         24
  39.1048         37
  39.1420         41
  39.1791         37
  39.2163         29
  39.2534         37
  39.2906         30
  39.3277         31
  39.3649         22
  39.4020         30
  39.4392         29
  39.4763         26
  39.5135         35
  39.5506         25
  39.5878         24
  39.6249         32
  39.6621         32
  39.6992         29
  39.7364         31
  39.7735         28
  39.8107         29
  39.8478         28
  39.8850         24
  39.9221         34
  39.9593         46
  39.9964         28
  40.0336         23
  40.0707         20
  40.1079         32
  40.1450         27
  40.1822         37
  40.2193         23
  40.2565         27
  40.2936         32
  40.3308         26
  40.3679         25
  40.4051         27
  40.4422         26
  40.4794         23
  40.5165         34
  40.5537         24
  40.5908         26
  40.6280         35
  40.6652         27
  40.7023         26
  40.7395         24
  40.7766         30
  40.8138         25
  40.8509         27
  40.8881         33
  40.9252         37
  40.9624         25
  40.9995         21
  41.0367         29
  41.0738         37
  41.1110         42
  41.1481         35
  41.1853         24
  41.2224         37
  41.2596         25
  41.2967         53
  41.3339         30
  41.3710         37
  41.4082         25
  41.4453         34
  41.4825         28
  41.5196         24
  41.5568         18
  41.5939         29
  41.6311         33
  41.6682         33
  41.7054         28
  41.7425         24
  41.7797         35
  41.8168         32
  41.8540         19
  41.8911         19
  41.9283         26
  41.9654         25
  42.0026         24
  42.0397         22
  42.0769         26
  42.1140         26
  42.1512         30
  42.1884         23
  42.2255         14
  42.2627         26
  42.2998         25
  42.3370         29
  42.3741         25
  42.4113         25
  42.4484         23
  42.4856         25
  42.5227         27
  42.5599         29
  42.5970         34
  42.6342         33
  42.6713         32
  42.7085         39
  42.7456         32
  42.7828         25
  42.8199         30
  42.8571         31
  42.8942         25
  42.9314         26
  42.9685         25
  43.0057         27
  43.0428         26
  43.0800         25
  43.1171         27
  43.1543         22
  43.1914         27
  43.2286         38
  43.2657         35
  43.3029         28
  43.3400         30
  43.3772         35
  43.4143         30
  43.4515         31
  43.4886         36
  43.5258         44
  43.5629         29
  43.6001         41
  43.6372         32
  43.6744         26
  43.7116         35
  43.7487         31
  43.7859         34
  43.8230         26
  43.8602         29
  43.8973         28
  43.9345         30
  43.9716         22
  44.0088         27
  44.0459         33
  44.0831         32
  44.1202         30
  44.1574         22
  44.1945         23
  44.2317         27
  44.2688         21
  44.3060         32
  44.3431         22
  44.3803         28
  44.4174         30
  44.4546         22
  44.4917         31
  44.5289         26
  44.5660         20
  44.6032         30
  44.6403         23
  44.6775         30
  44.7146         30
  44.7518         25
  44.7889         29
  44.8261         25
  44.8632         32
  44.9004         22
  44.9375         37
  44.9747         27
  45.0118         35
  45.0490         27
  45.0861         25
  45.1233         21
  45.1604         24
  45.1976         25
  45.2347         17
  45.2719         22
  45.3091         38
  45.3462         23
  45.3834         23
  45.4205         28
  45.4577         31
  45.4948         28
  45.5320         16
  45.5691         34
  45.6063         25
  45.6434         22
  45.6806         31
  45.7177         20
  45.7549         26
  45.7920         23
  45.8292         22
  45.8663         25
  45.9035         23
  45.9406         23
  45.9778         28
  46.0149         35
  46.0521         34
  46.0892         18
  46.1264         27
  46.1635         16
  46.2007         25
  46.2378         20
  46.2750         27
  46.3121         22
  46.3493         21
  46.3864         35
  46.4236         21
  46.4607         21
  46.4979         22
  46.5350         14
  46.5722         24
  46.6093         25
  46.6465         21
  46.6836         18
  46.7208         32
  46.7579         23
  46.7951         30
  46.8323         23
  46.8694         17
  46.9066         29
  46.9437         20
  46.9809         21
  47.0180         25
  47.0552         23
  47.0923         31
  47.1295         24
  47.1666         25
  47.2038         30
  47.2409         29
  47.2781         16
  47.3152         18
  47.3524         28
  47.3895         27
  47.4267         20
  47.4638         23
  47.5010         17
  47.5381         21
  47.5753         25
  47.6124         28
  47.6496         25
  47.6867         22
  47.7239         22
  47.7610         24
  47.7982         21
  47.8353         29
  47.8725         21
  47.9096         24
  47.9468         22
  47.9839         27
  48.0211         15
  48.0582         21
  48.0954         18
  48.1325         29
  48.1697         27
  48.2068         32
  48.2440         39
  48.2811         25
  48.3183         18
  48.3555         22
  48.3926         30
  48.4298         18
  48.4669         25
  48.5041         21
  48.5412         24
  48.5784         14
  48.6155         24
  48.6527         27
  48.6898         17
  48.7270         16
  48.7641         29
  48.8013         24
  48.8384         20
  48.8756         24
  48.9127         31
  48.9499         37
  48.9870         41
  49.0242         37
  49.0613         32
  49.0985         32
  49.1356         17
  49.1728         17
  49.2099         24
  49.2471         12
  49.2842         20
  49.3214         23
  49.3585         24
  49.3957         25
  49.4328         28
  49.4700         25
  49.5071         21
  49.5443         29
  49.5814         26
  49.6186         24
  49.6557         23
  49.6929         16
  49.7300         31
  49.7672         20
  49.8043         19
  49.8415         22
  49.8786         19
  49.9158         29
  49.9530         26
  49.9901         24
  50.0273         20
  50.0644         16
  50.1016         24
  50.1387         24
  50.1759         27
  50.2130         20
  50.2502         20
  50.2873         23
  50.3245         30
  50.3616         27
  50.3988         26
  50.4359         18
  50.4731         23
  50.5102         17
  50.5474         21
  50.5845         21
  50.6217         20
  50.6588         20
  50.6960         21
  50.7331         27
  50.7703         27
  50.8074         27
  50.8446         26
  50.8817         26
  50.9189         18
  50.9560         19
  50.9932         24
  51.0303         13
  51.0675         28
  51.1046         28
  51.1418         24
  51.1789         24
  51.2161         17
  51.2532         22
  51.2904         17
  51.3275         23
  51.3647         31
  51.4018         11
  51.4390         32
  51.4762         19
  51.5133         29
  51.5505         17
  51.5876         19
  51.6248         26
  51.6619         23
  51.6991         20
  51.7362         19
  51.7734         25
  51.8105         34
  51.8477         23
  51.8848         33
  51.9220         25
  51.9591         21
  51.9963         32
  52.0334         27
  52.0706         24
  52.1077         19
  52.1449         20
  52.1820         19
  52.2192         23
  52.2563         19
  52.2935         13
  52.3306         15
  52.3678          7
  52.4049         20
  52.4421         17
  52.4792         24
  52.5164         24
  52.5535         18
  52.5907         24
  52.6278         19
  52.6650         29
  52.7021         24
  52.7393         17
  52.7764         29
  52.8136         19
  52.8507         16
  52.8879         14
  52.9250         19
  52.9622         19
  52.9994         24
  53.0365         14
  53.0737         21
  53.1108         19
  53.1480         26
  53.1851         29
  53.2223         24
  53.2594         18
  53.2966         25
  53.3337         17
  53.3709         17
  53.4080         21
  53.4452         16
  53.4823         16
  53.5195         27
  53.5566         17
  53.5938         19
  53.6309         19
  53.6681         22
  53.7052         14
  53.7424         23
  53.7795         23
  53.8167         18
  53.8538         21
  53.8910         29
  53.9281         24
  53.9653         28
  54.0024         22
  54.0396         21
  54.0767         25
  54.1139         18
  54.1510         24
  54.1882         23
  54.2253         28
  54.2625         17
  54.2996         29
  54.3368         28
  54.3739         20
  54.4111         20
  54.4482         17
  54.4854         20
  54.5225         14
  54.5597         21
  54.5969         24
  54.6340         26
  54.6712         18
  54.7083         24
  54.7455         24
  54.7826         24
  54.8198         12
  54.8569         18
  54.8941         11
  54.9312         23
  54.9684         18
  55.0055         22
  55.0427         16
  55.0798         25
  55.1170         16
  55.1541         21
  55.1913         16
  55.2284         21
  55.2656         17
  55.3027         16
  55.3399         14
  55.3770         22
  55.4142         17
  55.4513         27
  55.4885         23
  55.5256         22
  55.5628         23
  55.5999         15
  55.6371         20
  55.6742         22
  55.7114         25
  55.7485         17
  55.7857         23
  55.8228         27
  55.8600         22
  55.8971         18
  55.9343         20
  55.9714         16
  56.0086         16
  56.0457         20
  56.0829         18
  56.1201         22
  56.1572         23
  56.1944         31
  56.2315         22
  56.2687         24
  56.3058         25
  56.3430         18
  56.3801         16
  56.4173         21
  56.4544         29
  56.4916         20
  56.5287         21
  56.5659         23
  56.6030         22
  56.6402         22
  56.6773         27
  56.7145         18
  56.7516         24
  56.7888         23
  56.8259         16
  56.8631         19
  56.9002         26
  56.9374         19
  56.9745         18
  57.0117         21
  57.0488         30
  57.0860         15
  57.1231         16
  57.1603         15
  57.1974         23
  57.2346         16
  57.2717         22
  57.3089         23
  57.3460         17
  57.3832         15
  57.4203         14
  57.4575         16
  57.4946         16
  57.5318         23
  57.5689         17
  57.6061         19
  57.6433         21
  57.6804         29
  57.7176         22
  57.7547         17
  57.7919         23
  57.8290         18
  57.8662         20
  57.9033         27
  57.9405         16
  57.9776         21
  58.0148         16
  58.0519         20
  58.0891         22
  58.1262         22
  58.1634         18
  58.2005         21
  58.2377         18
  58.2748         24
  58.3120         22
  58.3491         25
  58.3863         20
  58.4234         20
  58.4606         18
  58.4977         24
  58.5349         26
  58.5720         14
  58.6092         21
  58.6463         22
  58.6835         24
  58.7206         24
  58.7578         27
  58.7949         22
  58.8321         15
  58.8692         19
  58.9064         13
  58.9435         24
  58.9807         25
  59.0178         26
  59.0550         15
  59.0921         31
  59.1293         13
  59.1664         18
  59.2036         14
  59.2408         21
  59.2779         18
  59.3151         23
  59.3522         20
  59.3894         18
  59.4265         22
  59.4637         23
  59.5008         19
  59.5380         23
  59.5751         18
  59.6123          8
  59.6494         19
  59.6866         20
  59.7237         26
  59.7609         21
  59.7980         22
  59.8352         21
  59.8723         21
  59.9095         19
  59.9466         18
  59.9838         18
  60.0024         15