File: notebooks/data/xrd_data/ML_20220721_39_SJD_4_LaB6-4min.uxd
; (content of file Y:\Sam\Apurva-07-20-2022\puck1\ML_20220721_39_SJD_0_LaB6-4min.raw)
_FILEVERSION = 3
_SAMPLE = ML_20220721_39_SJD_0_LaB6-4min
_+SAMPLE =
_SITE = USA
_USER = Administrator
_GONIOMETER_CODE = 20
; Goniometer : D8 theta/2theta, stage : Unknown
_ATTACHMENTS_CODE = 0
_GONIOMETER_RADIUS = 200.5
_FIXED_DIVSLIT = 0.6
_FIXED_SAMPLESLIT = 0
_SOLLER_SLITS = 2
_FIXED_DETSLIT = 9.55
_MONOCHROMATOR = 0
; Incident beam monochromator : None
_SOLLER_SLITS_2 = N
_THIN_FILM = N
_BETA_FILTER = Y
_FIXED_ANTISLIT = 5.89
_ANALYZER_CODE = 0
; Received beam analyzer : None
_DATEMEASURED = "25-Jul-2022 16:47:18"
_WL_UNIT = A
_WL1 = 1.5406
_WL2 = 1.54439
_WL3 = 1.39222
_WLRATIO = 0.5
_ANODE = Cu
_V4_INF_CREATOR = XRDWizard
_V4_INF_CREATOR_VERSION = V2.9.0.22
_V4_INF_WIZARD_VERSION = V2.9.0.22
_V4_INF_WIZARD_ADDINS = V2.9.0.22
_V4_INF_WIZARD_DOCTYPE = XRD
_V4_INF_OSUSER = McQueenLab
_V4_INF_USER = Administrator
_V4_INF_SITE = USA
_V4_INF_SAMPLEID = ML_20220721_39_SJD_0_LaB6-4min

; Data for range 1
_DRIVE = COUPLED
_STEPTIME = 11.28
_STEPSIZE = 0.0185756
_STEPMODE = C
_START = 5
_THETA = 2.5
_2THETA = 5
_KHI = 0
_PHI = 0
_X = 0
_Y = 0
_Z = 0
_DETECTOR = 5
; Detector type : Unknown
_DETECTORSLIT = unkn
_AUX1 = 0
_AUX2 = 0
_AUX3 = 0
_TIMESTARTED = 15
_TEMP_RATE = -1
_TEMP_DELAY = -1
_KV = 40
_MA = 40
_RANGE_WL = 1.5406
_3DPLANE = 0
_V4_ADDITIONALDETECTOR = 257
_V4_PSD2THETA = 3.3673
_V4_PSDCHANNEL1 = 0
_V4_PSDAPERTURE = 12.68
_V4_PSDTYPE = 5
_V4_PSDFIXED = 0
_V4_COUNTERS_MASK = 4096
_V4_DRIVES_MASK = 0
_V4_ENCODERS_MASK = 0
_2THETACOUNTS = 1
; 2THETA  PSD
   5.0000        248
   5.0372        253
   5.0743        251
   5.1115        285
   5.1486        239
   5.1858        268
   5.2229        235
   5.2601        242
   5.2972        219
   5.3344        255
   5.3715        220
   5.4087        235
   5.4458        230
   5.4830        237
   5.5201        221
   5.5573        217
   5.5944        223
   5.6316        239
   5.6687        187
   5.7059        213
   5.7430        214
   5.7802        238
   5.8173        214
   5.8545        207
   5.8916        201
   5.9288        206
   5.9659        192
   6.0031        234
   6.0402        212
   6.0774        178
   6.1145        214
   6.1517        188
   6.1888        184
   6.2260        187
   6.2631        203
   6.3003        181
   6.3374        165
   6.3746        190
   6.4117        177
   6.4489        197
   6.4860        177
   6.5232        165
   6.5604        166
   6.5975        160
   6.6347        187
   6.6718        185
   6.7090        170
   6.7461        177
   6.7833        191
   6.8204        171
   6.8576        179
   6.8947        178
   6.9319        155
   6.9690        182
   7.0062        174
   7.0433        159
   7.0805        174
   7.1176        167
   7.1548        169
   7.1919        133
   7.2291        156
   7.2662        171
   7.3034        141
   7.3405        144
   7.3777        149
   7.4148        172
   7.4520        160
   7.4891        142
   7.5263        198
   7.5634        167
   7.6006        176
   7.6377        163
   7.6749        180
   7.7120        185
   7.7492        186
   7.7863        178
   7.8235        180
   7.8606        170
   7.8978        178
   7.9349        205
   7.9721        187
   8.0092        195
   8.0464        188
   8.0835        197
   8.1207        191
   8.1579        177
   8.1950        195
   8.2322        194
   8.2693        180
   8.3065        176
   8.3436        188
   8.3808        205
   8.4179        209
   8.4551        202
   8.4922        203
   8.5294        228
   8.5665        229
   8.6037        207
   8.6408        208
   8.6780        212
   8.7151        221
   8.7523        193
   8.7894        177
   8.8266        241
   8.8637        214
   8.9009        188
   8.9380        216
   8.9752        227
   9.0123        209
   9.0495        203
   9.0866        213
   9.1238        204
   9.1609        243
   9.1981        235
   9.2352        215
   9.2724        215
   9.3095        210
   9.3467        220
   9.3838        218
   9.4210        218
   9.4581        208
   9.4953        226
   9.5324        207
   9.5696        218
   9.6067        198
   9.6439        244
   9.6811        223
   9.7182        213
   9.7554        236
   9.7925        212
   9.8297        233
   9.8668        250
   9.9040        226
   9.9411        218
   9.9783        255
  10.0154        218
  10.0526        263
  10.0897        229
  10.1269        253
  10.1640        212
  10.2012        229
  10.2383        245
  10.2755        247
  10.3126        229
  10.3498        242
  10.3869        241
  10.4241        247
  10.4612        256
  10.4984        234
  10.5355        229
  10.5727        233
  10.6098        259
  10.6470        245
  10.6841        232
  10.7213        203
  10.7584        269
  10.7956        231
  10.8327        219
  10.8699        286
  10.9070        269
  10.9442        247
  10.9813        247
  11.0185        228
  11.0556        243
  11.0928        212
  11.1299        254
  11.1671        240
  11.2043        272
  11.2414        260
  11.2786        257
  11.3157        242
  11.3529        250
  11.3900        226
  11.4272        235
  11.4643        269
  11.5015        262
  11.5386        246
  11.5758        265
  11.6129        230
  11.6501        232
  11.6872        217
  11.7244        223
  11.7615        243
  11.7987        238
  11.8358        227
  11.8730        226
  11.9101        235
  11.9473        249
  11.9844        242
  12.0216        228
  12.0587        219
  12.0959        233
  12.1330        220
  12.1702        227
  12.2073        205
  12.2445        205
  12.2816        213
  12.3188        233
  12.3559        239
  12.3931        221
  12.4302        205
  12.4674        219
  12.5045        237
  12.5417        210
  12.5788        235
  12.6160        217
  12.6531        214
  12.6903        215
  12.7274        254
  12.7646        198
  12.8018        231
  12.8389        217
  12.8761        206
  12.9132        215
  12.9504        202
  12.9875        215
  13.0247        198
  13.0618        213
  13.0990        229
  13.1361        231
  13.1733        221
  13.2104        190
  13.2476        220
  13.2847        223
  13.3219        194
  13.3590        198
  13.3962        184
  13.4333        172
  13.4705        199
  13.5076        216
  13.5448        200
  13.5819        207
  13.6191        188
  13.6562        201
  13.6934        205
  13.7305        181
  13.7677        176
  13.8048        173
  13.8420        205
  13.8791        186
  13.9163        184
  13.9534        187
  13.9906        190
  14.0277        198
  14.0649        169
  14.1020        171
  14.1392        172
  14.1763        196
  14.2135        174
  14.2506        185
  14.2878        191
  14.3250        166
  14.3621        188
  14.3993        162
  14.4364        174
  14.4736        186
  14.5107        177
  14.5479        169
  14.5850        157
  14.6222        166
  14.6593        156
  14.6965        169
  14.7336        169
  14.7708        189
  14.8079        160
  14.8451        171
  14.8822        156
  14.9194        176
  14.9565        175
  14.9937        186
  15.0308        169
  15.0680        173
  15.1051        163
  15.1423        189
  15.1794        146
  15.2166        159
  15.2537        164
  15.2909        157
  15.3280        151
  15.3652        191
  15.4023        170
  15.4395        178
  15.4766        157
  15.5138        152
  15.5509        159
  15.5881        151
  15.6252        160
  15.6624        173
  15.6995        151
  15.7367        139
  15.7738        146
  15.8110        159
  15.8482        164
  15.8853        168
  15.9225        187
  15.9596        156
  15.9968        179
  16.0339        161
  16.0711        171
  16.1082        154
  16.1454        166
  16.1825        162
  16.2197        150
  16.2568        172
  16.2940        168
  16.3311        171
  16.3683        187
  16.4054        180
  16.4426        156
  16.4797        183
  16.5169        174
  16.5540        171
  16.5912        160
  16.6283        178
  16.6655        164
  16.7026        150
  16.7398        147
  16.7769        168
  16.8141        158
  16.8512        158
  16.8884        154
  16.9255        171
  16.9627        174
  16.9998        151
  17.0370        177
  17.0741        131
  17.1113        151
  17.1484        196
  17.1856        152
  17.2227        149
  17.2599        171
  17.2970        153
  17.3342        151
  17.3713        171
  17.4085        156
  17.4457        176
  17.4828        149
  17.5200        153
  17.5571        176
  17.5943        150
  17.6314        156
  17.6686        175
  17.7057        166
  17.7429        161
  17.7800        151
  17.8172        183
  17.8543        183
  17.8915        157
  17.9286        172
  17.9658        170
  18.0029        155
  18.0401        167
  18.0772        172
  18.1144        186
  18.1515        159
  18.1887        152
  18.2258        162
  18.2630        176
  18.3001        156
  18.3373        161
  18.3744        175
  18.4116        158
  18.4487        175
  18.4859        165
  18.5230        165
  18.5602        172
  18.5973        173
  18.6345        181
  18.6716        186
  18.7088        167
  18.7459        161
  18.7831        171
  18.8202        190
  18.8574        178
  18.8945        173
  18.9317        156
  18.9689        173
  19.0060        175
  19.0432        167
  19.0803        168
  19.1175        180
  19.1546        172
  19.1918        191
  19.2289        170
  19.2661        169
  19.3032        164
  19.3404        147
  19.3775        173
  19.4147        160
  19.4518        151
  19.4890        187
  19.5261        183
  19.5633        184
  19.6004        178
  19.6376        172
  19.6747        178
  19.7119        185
  19.7490        167
  19.7862        201
  19.8233        184
  19.8605        156
  19.8976        168
  19.9348        213
  19.9719        181
  20.0091        156
  20.0462        168
  20.0834        153
  20.1205        190
  20.1577        193
  20.1948        169
  20.2320        188
  20.2691        166
  20.3063        194
  20.3434        194
  20.3806        180
  20.4177        174
  20.4549        202
  20.4921        190
  20.5292        191
  20.5664        175
  20.6035        184
  20.6407        200
  20.6778        203
  20.7150        198
  20.7521        203
  20.7893        193
  20.8264        198
  20.8636        189
  20.9007        185
  20.9379        213
  20.9750        203
  21.0122        176
  21.0493        197
  21.0865        194
  21.1236        220
  21.1608        224
  21.1979        296
  21.2351        346
  21.2722        289
  21.3094        313
  21.3465        543
  21.3837        418
  21.4208        322
  21.4580        240
  21.4951        204
  21.5323        194
  21.5694        170
  21.6066        182
  21.6437        206
  21.6809        220
  21.7180        203
  21.7552        200
  21.7923        184
  21.8295        194
  21.8666        199
  21.9038        186
  21.9409        193
  21.9781        203
  22.0152        189
  22.0524        187
  22.0896        186
  22.1267        198
  22.1639        206
  22.2010        178
  22.2382        181
  22.2753        187
  22.3125        223
  22.3496        182
  22.3868        218
  22.4239        203
  22.4611        197
  22.4982        192
  22.5354        212
  22.5725        196
  22.6097        204
  22.6468        197
  22.6840        186
  22.7211        177
  22.7583        197
  22.7954        179
  22.8326        204
  22.8697        229
  22.9069        215
  22.9440        209
  22.9812        226
  23.0183        196
  23.0555        207
  23.0926        194
  23.1298        192
  23.1669        220
  23.2041        175
  23.2412        206
  23.2784        215
  23.3155        187
  23.3527        201
  23.3898        210
  23.4270        203
  23.4641        195
  23.5013        211
  23.5384        213
  23.5756        215
  23.6128        213
  23.6499        194
  23.6871        170
  23.7242        191
  23.7614        241
  23.7985        206
  23.8357        180
  23.8728        211
  23.9100        185
  23.9471        187
  23.9843        226
  24.0214        222
  24.0586        205
  24.0957        210
  24.1329        196
  24.1700        212
  24.2072        205
  24.2443        224
  24.2815        244
  24.3186        208
  24.3558        241
  24.3929        188
  24.4301        227
  24.4672        191
  24.5044        181
  24.5415        186
  24.5787        196
  24.6158        186
  24.6530        204
  24.6901        206
  24.7273        204
  24.7644        217
  24.8016        203
  24.8387        208
  24.8759        205
  24.9130        200
  24.9502        186
  24.9873        194
  25.0245        204
  25.0616        167
  25.0988        198
  25.1360        220
  25.1731        210
  25.2103        206
  25.2474        207
  25.2846        204
  25.3217        204
  25.3589        201
  25.3960        187
  25.4332        192
  25.4703        187
  25.5075        193
  25.5446        204
  25.5818        208
  25.6189        196
  25.6561        207
  25.6932        187
  25.7304        187
  25.7675        206
  25.8047        178
  25.8418        187
  25.8790        196
  25.9161        196
  25.9533        217
  25.9904        201
  26.0276        193
  26.0647        183
  26.1019        217
  26.1390        181
  26.1762        189
  26.2133        176
  26.2505        186
  26.2876        214
  26.3248        202
  26.3619        176
  26.3991        188
  26.4362        185
  26.4734        200
  26.5105        181
  26.5477        194
  26.5848        183
  26.6220        182
  26.6591        196
  26.6963        171
  26.7335        188
  26.7706        169
  26.8078        179
  26.8449        193
  26.8821        185
  26.9192        205
  26.9564        202
  26.9935        222
  27.0307        178
  27.0678        193
  27.1050        174
  27.1421        205
  27.1793        238
  27.2164        233
  27.2536        218
  27.2907        234
  27.3279        217
  27.3650        196
  27.4022        170
  27.4393        169
  27.4765        217
  27.5136        194
  27.5508        181
  27.5879        170
  27.6251        187
  27.6622        188
  27.6994        190
  27.7365        198
  27.7737        171
  27.8108        165
  27.8480        148
  27.8851        162
  27.9223        195
  27.9594        184
  27.9966        192
  28.0337        173
  28.0709        170
  28.1080        189
  28.1452        158
  28.1823        174
  28.2195        206
  28.2567        172
  28.2938        166
  28.3310        181
  28.3681        178
  28.4053        175
  28.4424        159
  28.4796        166
  28.5167        171
  28.5539        151
  28.5910        175
  28.6282        175
  28.6653        182
  28.7025        174
  28.7396        177
  28.7768        184
  28.8139        162
  28.8511        174
  28.8882        184
  28.9254        192
  28.9625        152
  28.9997        163
  29.0368        168
  29.0740        171
  29.1111        170
  29.1483        152
  29.1854        157
  29.2226        158
  29.2597        162
  29.2969        145
  29.3340        167
  29.3712        196
  29.4083        158
  29.4455        154
  29.4826        180
  29.5198        173
  29.5569        166
  29.5941        168
  29.6312        160
  29.6684        145
  29.7055        143
  29.7427        160
  29.7799        171
  29.8170        151
  29.8542        174
  29.8913        164
  29.9285        143
  29.9656        145
  30.0028        160
  30.0399        165
  30.0771        154
  30.1142        152
  30.1514        156
  30.1885        162
  30.2257        160
  30.2628        165
  30.3000        175
  30.3371        212
  30.3743        350
  30.4114        279
  30.4486        267
  30.4857        203
  30.5229        158
  30.5600        173
  30.5972        153
  30.6343        147
  30.6715        156
  30.7086        168
  30.7458        137
  30.7829        144
  30.8201        155
  30.8572        137
  30.8944        159
  30.9315        148
  30.9687        150
  31.0058        168
  31.0430        150
  31.0801        139
  31.1173        157
  31.1544        161
  31.1916        118
  31.2287        138
  31.2659        138
  31.3030        138
  31.3402        170
  31.3774        120
  31.4145        140
  31.4517        137
  31.4888        139
  31.5260        138
  31.5631        127
  31.6003        142
  31.6374        156
  31.6746        165
  31.7117        138
  31.7489        133
  31.7860        121
  31.8232        126
  31.8603        159
  31.8975        134
  31.9346        145
  31.9718        150
  32.0089        140
  32.0461        118
  32.0832        140
  32.1204        122
  32.1575        114
  32.1947        145
  32.2318        143
  32.2690        122
  32.3061        142
  32.3433        144
  32.3804        137
  32.4176        156
  32.4547        151
  32.4919        155
  32.5290        142
  32.5662        162
  32.6033        149
  32.6405        133
  32.6776        142
  32.7148        133
  32.7519        131
  32.7891        127
  32.8262        108
  32.8634        130
  32.9006        130
  32.9377        122
  32.9749        109
  33.0120        114
  33.0492        110
  33.0863        134
  33.1235        103
  33.1606        106
  33.1978        123
  33.2349        126
  33.2721        111
  33.3092        142
  33.3464        133
  33.3835        103
  33.4207        112
  33.4578        106
  33.4950        120
  33.5321        101
  33.5693        131
  33.6064        123
  33.6436        126
  33.6807        101
  33.7179        120
  33.7550        102
  33.7922        116
  33.8293        112
  33.8665        107
  33.9036        117
  33.9408        117
  33.9779        106
  34.0151        133
  34.0522        111
  34.0894        113
  34.1265        125
  34.1637        107
  34.2008         99
  34.2380        115
  34.2751        110
  34.3123        124
  34.3494        102
  34.3866         96
  34.4238        130
  34.4609        111
  34.4981        110
  34.5352        131
  34.5724        117
  34.6095        118
  34.6467        154
  34.6838        149
  34.7210        149
  34.7581        158
  34.7953        142
  34.8324        143
  34.8696        128
  34.9067        114
  34.9439        113
  34.9810        123
  35.0182        115
  35.0553         97
  35.0925         98
  35.1296        120
  35.1668        105
  35.2039        105
  35.2411        104
  35.2782        116
  35.3154        102
  35.3525        115
  35.3897        103
  35.4268        101
  35.4640        121
  35.5011         93
  35.5383        106
  35.5754        100
  35.6126         87
  35.6497        101
  35.6869        105
  35.7240         96
  35.7612        100
  35.7983        114
  35.8355         77
  35.8726         92
  35.9098        112
  35.9469         82
  35.9841        101
  36.0213        119
  36.0584         96
  36.0956         95
  36.1327        106
  36.1699        103
  36.2070        114
  36.2442         93
  36.2813         95
  36.3185         95
  36.3556         99
  36.3928        101
  36.4299         89
  36.4671         92
  36.5042        112
  36.5414         96
  36.5785        108
  36.6157         88
  36.6528         99
  36.6900         89
  36.7271        104
  36.7643         88
  36.8014         80
  36.8386         82
  36.8757         89
  36.9129         87
  36.9500        112
  36.9872         84
  37.0243         91
  37.0615        116
  37.0986         92
  37.1358        107
  37.1729         87
  37.2101         69
  37.2472         76
  37.2844        113
  37.3215         87
  37.3587         96
  37.3958        111
  37.4330        138
  37.4701        131
  37.5073        131
  37.5445        136
  37.5816        106
  37.6188         77
  37.6559        118
  37.6931         87
  37.7302         92
  37.7674         83
  37.8045         81
  37.8417         90
  37.8788         99
  37.9160         94
  37.9531         82
  37.9903         70
  38.0274         97
  38.0646         93
  38.1017         94
  38.1389         79
  38.1760         83
  38.2132         99
  38.2503         94
  38.2875         95
  38.3246         90
  38.3618         75
  38.3989         72
  38.4361         81
  38.4732         85
  38.5104         72
  38.5475         88
  38.5847         68
  38.6218         72
  38.6590         80
  38.6961         78
  38.7333         82
  38.7704         88
  38.8076         73
  38.8447         81
  38.8819         89
  38.9190         87
  38.9562         88
  38.9933         84
  39.0305         93
  39.0677         73
  39.1048         75
  39.1420        107
  39.1791         82
  39.2163         73
  39.2534         80
  39.2906         81
  39.3277         88
  39.3649         72
  39.4020         80
  39.4392         95
  39.4763         74
  39.5135         68
  39.5506         83
  39.5878         77
  39.6249         81
  39.6621         65
  39.6992         86
  39.7364         74
  39.7735         83
  39.8107         87
  39.8478         82
  39.8850         78
  39.9221         61
  39.9593         77
  39.9964         73
  40.0336         69
  40.0707         78
  40.1079         70
  40.1450         83
  40.1822         68
  40.2193         71
  40.2565         92
  40.2936         62
  40.3308         96
  40.3679         87
  40.4051         80
  40.4422         64
  40.4794         85
  40.5165         96
  40.5537         79
  40.5908         85
  40.6280         74
  40.6652         90
  40.7023         73
  40.7395         73
  40.7766         74
  40.8138         94
  40.8509         84
  40.8881         85
  40.9252         72
  40.9624         96
  40.9995         99
  41.0367         80
  41.0738         66
  41.1110         85
  41.1481         89
  41.1853         82
  41.2224         66
  41.2596         62
  41.2967         83
  41.3339         68
  41.3710         81
  41.4082         63
  41.4453         77
  41.4825         64
  41.5196         74
  41.5568         78
  41.5939         83
  41.6311         66
  41.6682         73
  41.7054         79
  41.7425         65
  41.7797         65
  41.8168         74
  41.8540         71
  41.8911         89
  41.9283         74
  41.9654         84
  42.0026         73
  42.0397         96
  42.0769         78
  42.1140         83
  42.1512         68
  42.1884         67
  42.2255         89
  42.2627         81
  42.2998         74
  42.3370         66
  42.3741         61
  42.4113         66
  42.4484         73
  42.4856         66
  42.5227         80
  42.5599         80
  42.5970         69
  42.6342         63
  42.6713         83
  42.7085         75
  42.7456         59
  42.7828         74
  42.8199         67
  42.8571         76
  42.8942         71
  42.9314         84
  42.9685         84
  43.0057         85
  43.0428         85
  43.0800         74
  43.1171         66
  43.1543         82
  43.1914         86
  43.2286        103
  43.2657         86
  43.3029         65
  43.3400         95
  43.3772         83
  43.4143         86
  43.4515        101
  43.4886        126
  43.5258        131
  43.5629         89
  43.6001        111
  43.6372        100
  43.6744         75
  43.7116         81
  43.7487         65
  43.7859         78
  43.8230         62
  43.8602         62
  43.8973         67
  43.9345         76
  43.9716         69
  44.0088         77
  44.0459         68
  44.0831         50
  44.1202         85
  44.1574         75
  44.1945         77
  44.2317         69
  44.2688         58
  44.3060         86
  44.3431         67
  44.3803         83
  44.4174         75
  44.4546         71
  44.4917         75
  44.5289         56
  44.5660         80
  44.6032         80
  44.6403         92
  44.6775         85
  44.7146         72
  44.7518         80
  44.7889         86
  44.8261         78
  44.8632         73
  44.9004         70
  44.9375         73
  44.9747         70
  45.0118         65
  45.0490         71
  45.0861         56
  45.1233         54
  45.1604         78
  45.1976         76
  45.2347         55
  45.2719         68
  45.3091         70
  45.3462         69
  45.3834         69
  45.4205         70
  45.4577         54
  45.4948         70
  45.5320         61
  45.5691         59
  45.6063         66
  45.6434         53
  45.6806         54
  45.7177         88
  45.7549         55
  45.7920         78
  45.8292         66
  45.8663         83
  45.9035         76
  45.9406         59
  45.9778         67
  46.0149         51
  46.0521         66
  46.0892         52
  46.1264         68
  46.1635         53
  46.2007         75
  46.2378         52
  46.2750         70
  46.3121         72
  46.3493         73
  46.3864         71
  46.4236         63
  46.4607         76
  46.4979         70
  46.5350         57
  46.5722         71
  46.6093         68
  46.6465         71
  46.6836         57
  46.7208         76
  46.7579         66
  46.7951         65
  46.8323         70
  46.8694         65
  46.9066         69
  46.9437         82
  46.9809         76
  47.0180         76
  47.0552         65
  47.0923         69
  47.1295         65
  47.1666         60
  47.2038         46
  47.2409         66
  47.2781         73
  47.3152         61
  47.3524         68
  47.3895         72
  47.4267         57
  47.4638         65
  47.5010         76
  47.5381         51
  47.5753         64
  47.6124         60
  47.6496         70
  47.6867         59
  47.7239         66
  47.7610         48
  47.7982         68
  47.8353         54
  47.8725         69
  47.9096         54
  47.9468         69
  47.9839         65
  48.0211         54
  48.0582         66
  48.0954         59
  48.1325         70
  48.1697         65
  48.2068         63
  48.2440         71
  48.2811         72
  48.3183         51
  48.3555         80
  48.3926         66
  48.4298         68
  48.4669         66
  48.5041         51
  48.5412         65
  48.5784         62
  48.6155         64
  48.6527         49
  48.6898         69
  48.7270         61
  48.7641         65
  48.8013         68
  48.8384         63
  48.8756         55
  48.9127         76
  48.9499        110
  48.9870         99
  49.0242         75
  49.0613         86
  49.0985         93
  49.1356         74
  49.1728         71
  49.2099         59
  49.2471         80
  49.2842         59
  49.3214         59
  49.3585         54
  49.3957         63
  49.4328         75
  49.4700         64
  49.5071         58
  49.5443         53
  49.5814         62
  49.6186         55
  49.6557         64
  49.6929         59
  49.7300         54
  49.7672         50
  49.8043         58
  49.8415         55
  49.8786         64
  49.9158         64
  49.9530         62
  49.9901         55
  50.0273         69
  50.0644         53
  50.1016         55
  50.1387         66
  50.1759         63
  50.2130         75
  50.2502         58
  50.2873         64
  50.3245         75
  50.3616         44
  50.3988         58
  50.4359         49
  50.4731         55
  50.5102         55
  50.5474         68
  50.5845         52
  50.6217         49
  50.6588         68
  50.6960         69
  50.7331         53
  50.7703         64
  50.8074         73
  50.8446         60
  50.8817         49
  50.9189         59
  50.9560         63
  50.9932         63
  51.0303         45
  51.0675         56
  51.1046         57
  51.1418         63
  51.1789         55
  51.2161         71
  51.2532         61
  51.2904         63
  51.3275         62
  51.3647         79
  51.4018         79
  51.4390         73
  51.4762         61
  51.5133         77
  51.5505         58
  51.5876         59
  51.6248         69
  51.6619         65
  51.6991         65
  51.7362         63
  51.7734         65
  51.8105         59
  51.8477         69
  51.8848         68
  51.9220         72
  51.9591         68
  51.9963         64
  52.0334         63
  52.0706         49
  52.1077         54
  52.1449         55
  52.1820         78
  52.2192         56
  52.2563         58
  52.2935         54
  52.3306         61
  52.3678         61
  52.4049         62
  52.4421         46
  52.4792         52
  52.5164         52
  52.5535         55
  52.5907         63
  52.6278         67
  52.6650         43
  52.7021         46
  52.7393         59
  52.7764         56
  52.8136         57
  52.8507         55
  52.8879         51
  52.9250         55
  52.9622         59
  52.9994         66
  53.0365         78
  53.0737         55
  53.1108         53
  53.1480         69
  53.1851         65
  53.2223         54
  53.2594         66
  53.2966         46
  53.3337         56
  53.3709         67
  53.4080         54
  53.4452         71
  53.4823         65
  53.5195         58
  53.5566         49
  53.5938         57
  53.6309         55
  53.6681         61
  53.7052         54
  53.7424         60
  53.7795         65
  53.8167         71
  53.8538         47
  53.8910         61
  53.9281         58
  53.9653         85
  54.0024         91
  54.0396         68
  54.0767         75
  54.1139         68
  54.1510         89
  54.1882         64
  54.2253         60
  54.2625         57
  54.2996         50
  54.3368         52
  54.3739         59
  54.4111         44
  54.4482         51
  54.4854         57
  54.5225         75
  54.5597         55
  54.5969         55
  54.6340         56
  54.6712         55
  54.7083         52
  54.7455         62
  54.7826         56
  54.8198         38
  54.8569         50
  54.8941         64
  54.9312         55
  54.9684         60
  55.0055         56
  55.0427         49
  55.0798         65
  55.1170         62
  55.1541         45
  55.1913         57
  55.2284         50
  55.2656         50
  55.3027         50
  55.3399         50
  55.3770         50
  55.4142         55
  55.4513         56
  55.4885         49
  55.5256         55
  55.5628         49
  55.5999         56
  55.6371         49
  55.6742         54
  55.7114         65
  55.7485         61
  55.7857         59
  55.8228         57
  55.8600         49
  55.8971         50
  55.9343         52
  55.9714         45
  56.0086         55
  56.0457         52
  56.0829         73
  56.1201         64
  56.1572         43
  56.1944         78
  56.2315         88
  56.2687         77
  56.3058         73
  56.3430         60
  56.3801         59
  56.4173         61
  56.4544         65
  56.4916         54
  56.5287         61
  56.5659         58
  56.6030         69
  56.6402         46
  56.6773         54
  56.7145         53
  56.7516         49
  56.7888         42
  56.8259         53
  56.8631         75
  56.9002         50
  56.9374         71
  56.9745         66
  57.0117         58
  57.0488         58
  57.0860         65
  57.1231         58
  57.1603         52
  57.1974         56
  57.2346         46
  57.2717         63
  57.3089         53
  57.3460         42
  57.3832         64
  57.4203         61
  57.4575         48
  57.4946         52
  57.5318         64
  57.5689         53
  57.6061         51
  57.6433         55
  57.6804         77
  57.7176         58
  57.7547         60
  57.7919         61
  57.8290         66
  57.8662         53
  57.9033         66
  57.9405         57
  57.9776         55
  58.0148         54
  58.0519         56
  58.0891         59
  58.1262         46
  58.1634         64
  58.2005         52
  58.2377         63
  58.2748         55
  58.3120         47
  58.3491         53
  58.3863         49
  58.4234         60
  58.4606         68
  58.4977         61
  58.5349         58
  58.5720         66
  58.6092         51
  58.6463         57
  58.6835         65
  58.7206         56
  58.7578         66
  58.7949         53
  58.8321         57
  58.8692         50
  58.9064         48
  58.9435         64
  58.9807         69
  59.0178         62
  59.0550         63
  59.0921         49
  59.1293         61
  59.1664         59
  59.2036         59
  59.2408         35
  59.2779         50
  59.3151         71
  59.3522         52
  59.3894         55
  59.4265         50
  59.4637         55
  59.5008         46
  59.5380         63
  59.5751         61
  59.6123         44
  59.6494         64
  59.6866         57
  59.7237         61
  59.7609         47
  59.7980         67
  59.8352         65
  59.8723         51
  59.9095         49
  59.9466         54
  59.9838         51
  60.0024         55