File: notebooks/data/xrd_data/ML_20220721_20_SJD_4_LaB6-4min.csv
;,2THETA,
5.0000,289
5.0372,243
5.0743,268
5.1115,289
5.1486,268
5.1858,248
5.2229,286
5.2601,246
5.2972,225
5.3344,232
5.3715,233
5.4087,237
5.4458,243
5.4830,202
5.5201,217
5.5573,212
5.5944,242
5.6316,252
5.6687,227
5.7059,225
5.7430,237
5.7802,202
5.8173,226
5.8545,205
5.8916,207
5.9288,188
5.9659,212
6.0031,205
6.0402,206
6.0774,203
6.1145,193
6.1517,195
6.1888,196
6.2260,191
6.2631,186
6.3003,197
6.3374,168
6.3746,202
6.4117,178
6.4489,162
6.4860,183
6.5232,180
6.5604,174
6.5975,200
6.6347,163
6.6718,195
6.7090,161
6.7461,164
6.7833,151
6.8204,169
6.8576,165
6.8947,175
6.9319,170
6.9690,179
7.0062,166
7.0433,181
7.0805,158
7.1176,154
7.1548,190
7.1919,167
7.2291,141
7.2662,149
7.3034,163
7.3405,154
7.3777,153
7.4148,164
7.4520,161
7.4891,154
7.5263,167
7.5634,185
7.6006,148
7.6377,157
7.6749,175
7.7120,181
7.7492,186
7.7863,174
7.8235,159
7.8606,169
7.8978,188
7.9349,176
7.9721,185
8.0092,201
8.0464,175
8.0835,158
8.1207,191
8.1579,179
8.1950,214
8.2322,207
8.2693,208
8.3065,211
8.3436,169
8.3808,188
8.4179,217
8.4551,175
8.4922,173
8.5294,188
8.5665,194
8.6037,217
8.6408,214
8.6780,218
8.7151,199
8.7523,206
8.7894,213
8.8266,195
8.8637,208
8.9009,205
8.9380,247
8.9752,214
9.0123,214
9.0495,193
9.0866,197
9.1238,180
9.1609,206
9.1981,233
9.2352,220
9.2724,227
9.3095,228
9.3467,217
9.3838,231
9.4210,229
9.4581,248
9.4953,239
9.5324,242
9.5696,249
9.6067,191
9.6439,239
9.6811,234
9.7182,239
9.7554,218
9.7925,230
9.8297,224
9.8668,236
9.9040,217
9.9411,249
9.9783,241
10.0154,237
10.0526,245
10.0897,241
10.1269,262
10.1640,232
10.2012,236
10.2383,249
10.2755,264
10.3126,221
10.3498,266
10.3869,217
10.4241,248
10.4612,242
10.4984,244
10.5355,253
10.5727,242
10.6098,272
10.6470,255
10.6841,248
10.7213,241
10.7584,231
10.7956,265
10.8327,226
10.8699,255
10.9070,259
10.9442,217
10.9813,242
11.0185,238
11.0556,212
11.0928,233
11.1299,220
11.1671,255
11.2043,253
11.2414,227
11.2786,228
11.3157,241
11.3529,232
11.3900,248
11.4272,233
11.4643,242
11.5015,250
11.5386,241
11.5758,219
11.6129,232
11.6501,237
11.6872,230
11.7244,231
11.7615,226
11.7987,235
11.8358,239
11.8730,252
11.9101,252
11.9473,233
11.9844,232
12.0216,223
12.0587,213
12.0959,236
12.1330,222
12.1702,217
12.2073,236
12.2445,265
12.2816,241
12.3188,203
12.3559,230
12.3931,225
12.4302,212
12.4674,233
12.5045,224
12.5417,227
12.5788,213
12.6160,223
12.6531,241
12.6903,250
12.7274,231
12.7646,203
12.8018,194
12.8389,181
12.8761,217
12.9132,174
12.9504,221
12.9875,212
13.0247,249
13.0618,228
13.0990,204
13.1361,208
13.1733,211
13.2104,209
13.2476,187
13.2847,204
13.3219,201
13.3590,205
13.3962,208
13.4333,191
13.4705,206
13.5076,190
13.5448,187
13.5819,192
13.6191,215
13.6562,187
13.6934,190
13.7305,191
13.7677,195
13.8048,197
13.8420,179
13.8791,184
13.9163,183
13.9534,187
13.9906,202
14.0277,168
14.0649,205
14.1020,174
14.1392,176
14.1763,179
14.2135,160
14.2506,174
14.2878,195
14.3250,157
14.3621,187
14.3993,186
14.4364,177
14.4736,182
14.5107,173
14.5479,164
14.5850,194
14.6222,188
14.6593,186
14.6965,173
14.7336,164
14.7708,162
14.8079,148
14.8451,159
14.8822,148
14.9194,166
14.9565,202
14.9937,185
15.0308,153
15.0680,185
15.1051,171
15.1423,172
15.1794,160
15.2166,163
15.2537,155
15.2909,177
15.3280,156
15.3652,161
15.4023,179
15.4395,163
15.4766,184
15.5138,188
15.5509,147
15.5881,170
15.6252,174
15.6624,150
15.6995,174
15.7367,176
15.7738,175
15.8110,166
15.8482,174
15.8853,123
15.9225,175
15.9596,186
15.9968,182
16.0339,156
16.0711,163
16.1082,156
16.1454,177
16.1825,151
16.2197,161
16.2568,179
16.2940,186
16.3311,141
16.3683,170
16.4054,154
16.4426,184
16.4797,166
16.5169,155
16.5540,176
16.5912,164
16.6283,181
16.6655,174
16.7026,157
16.7398,188
16.7769,162
16.8141,157
16.8512,161
16.8884,164
16.9255,168
16.9627,163
16.9998,146
17.0370,172
17.0741,143
17.1113,187
17.1484,175
17.1856,175
17.2227,162
17.2599,194
17.2970,153
17.3342,161
17.3713,168
17.4085,151
17.4457,147
17.4828,162
17.5200,146
17.5571,170
17.5943,134
17.6314,149
17.6686,154
17.7057,163
17.7429,154
17.7800,143
17.8172,156
17.8543,176
17.8915,158
17.9286,155
17.9658,152
18.0029,154
18.0401,173
18.0772,179
18.1144,186
18.1515,170
18.1887,159
18.2258,167
18.2630,170
18.3001,167
18.3373,167
18.3744,170
18.4116,155
18.4487,145
18.4859,169
18.5230,164
18.5602,172
18.5973,133
18.6345,192
18.6716,170
18.7088,165
18.7459,180
18.7831,180
18.8202,177
18.8574,179
18.8945,166
18.9317,168
18.9689,209
19.0060,173
19.0432,176
19.0803,172
19.1175,175
19.1546,174
19.1918,187
19.2289,168
19.2661,171
19.3032,173
19.3404,170
19.3775,179
19.4147,165
19.4518,186
19.4890,157
19.5261,178
19.5633,167
19.6004,165
19.6376,182
19.6747,183
19.7119,177
19.7490,170
19.7862,168
19.8233,178
19.8605,191
19.8976,181
19.9348,180
19.9719,173
20.0091,187
20.0462,198
20.0834,199
20.1205,156
20.1577,186
20.1948,182
20.2320,211
20.2691,174
20.3063,157
20.3434,156
20.3806,191
20.4177,180
20.4549,161
20.4921,202
20.5292,180
20.5664,182
20.6035,211
20.6407,198
20.6778,196
20.7150,183
20.7521,199
20.7893,176
20.8264,191
20.8636,204
20.9007,206
20.9379,176
20.9750,196
21.0122,187
21.0493,187
21.0865,188
21.1236,202
21.1608,238
21.1979,286
21.2351,305
21.2722,297
21.3094,322
21.3465,516
21.3837,420
21.4208,340
21.4580,252
21.4951,219
21.5323,201
21.5694,194
21.6066,213
21.6437,213
21.6809,194
21.7180,167
21.7552,193
21.7923,222
21.8295,202
21.8666,202
21.9038,194
21.9409,219
21.9781,196
22.0152,195
22.0524,191
22.0896,209
22.1267,214
22.1639,188
22.2010,211
22.2382,189
22.2753,167
22.3125,219
22.3496,185
22.3868,193
22.4239,197
22.4611,170
22.4982,201
22.5354,192
22.5725,207
22.6097,212
22.6468,192
22.6840,196
22.7211,202
22.7583,217
22.7954,171
22.8326,175
22.8697,191
22.9069,187
22.9440,178
22.9812,203
23.0183,197
23.0555,216
23.0926,186
23.1298,188
23.1669,187
23.2041,207
23.2412,210
23.2784,194
23.3155,206
23.3527,191
23.3898,200
23.4270,207
23.4641,199
23.5013,196
23.5384,211
23.5756,185
23.6128,165
23.6499,217
23.6871,197
23.7242,198
23.7614,195
23.7985,190
23.8357,198
23.8728,193
23.9100,220
23.9471,215
23.9843,185
24.0214,217
24.0586,199
24.0957,213
24.1329,195
24.1700,202
24.2072,200
24.2443,222
24.2815,213
24.3186,250
24.3558,233
24.3929,204
24.4301,222
24.4672,188
24.5044,221
24.5415,208
24.5787,180
24.6158,204
24.6530,214
24.6901,209
24.7273,240
24.7644,201
24.8016,187
24.8387,218
24.8759,176
24.9130,217
24.9502,187
24.9873,212
25.0245,198
25.0616,205
25.0988,173
25.1360,180
25.1731,200
25.2103,206
25.2474,188
25.2846,208
25.3217,198
25.3589,211
25.3960,226
25.4332,193
25.4703,179
25.5075,206
25.5446,192
25.5818,188
25.6189,206
25.6561,198
25.6932,213
25.7304,191
25.7675,185
25.8047,197
25.8418,204
25.8790,190
25.9161,193
25.9533,188
25.9904,187
26.0276,193
26.0647,198
26.1019,186
26.1390,178
26.1762,228
26.2133,182
26.2505,191
26.2876,210
26.3248,177
26.3619,194
26.3991,177
26.4362,191
26.4734,208
26.5105,181
26.5477,178
26.5848,208
26.6220,201
26.6591,192
26.6963,194
26.7335,181
26.7706,223
26.8078,187
26.8449,175
26.8821,192
26.9192,176
26.9564,193
26.9935,181
27.0307,197
27.0678,188
27.1050,208
27.1421,188
27.1793,224
27.2164,266
27.2536,213
27.2907,223
27.3279,212
27.3650,204
27.4022,179
27.4393,182
27.4765,170
27.5136,193
27.5508,179
27.5879,180
27.6251,174
27.6622,187
27.6994,166
27.7365,206
27.7737,179
27.8108,170
27.8480,187
27.8851,178
27.9223,188
27.9594,166
27.9966,177
28.0337,163
28.0709,180
28.1080,180
28.1452,183
28.1823,171
28.2195,158
28.2567,185
28.2938,172
28.3310,171
28.3681,164
28.4053,163
28.4424,174
28.4796,182
28.5167,168
28.5539,163
28.5910,180
28.6282,185
28.6653,168
28.7025,147
28.7396,205
28.7768,181
28.8139,146
28.8511,156
28.8882,163
28.9254,172
28.9625,150
28.9997,175
29.0368,179
29.0740,153
29.1111,158
29.1483,161
29.1854,164
29.2226,157
29.2597,152
29.2969,194
29.3340,148
29.3712,157
29.4083,143
29.4455,147
29.4826,163
29.5198,168
29.5569,134
29.5941,161
29.6312,155
29.6684,174
29.7055,173
29.7427,164
29.7799,159
29.8170,156
29.8542,170
29.8913,150
29.9285,157
29.9656,163
30.0028,154
30.0399,162
30.0771,168
30.1142,138
30.1514,161
30.1885,145
30.2257,168
30.2628,164
30.3000,174
30.3371,205
30.3743,360
30.4114,276
30.4486,255
30.4857,242
30.5229,172
30.5600,167
30.5972,174
30.6343,154
30.6715,150
30.7086,161
30.7458,154
30.7829,165
30.8201,158
30.8572,144
30.8944,135
30.9315,146
30.9687,160
31.0058,125
31.0430,140
31.0801,156
31.1173,130
31.1544,143
31.1916,153
31.2287,147
31.2659,126
31.3030,131
31.3402,151
31.3774,143
31.4145,133
31.4517,145
31.4888,135
31.5260,128
31.5631,141
31.6003,150
31.6374,168
31.6746,130
31.7117,135
31.7489,136
31.7860,122
31.8232,136
31.8603,135
31.8975,140
31.9346,130
31.9718,144
32.0089,128
32.0461,141
32.0832,138
32.1204,150
32.1575,132
32.1947,123
32.2318,139
32.2690,136
32.3061,155
32.3433,154
32.3804,167
32.4176,152
32.4547,155
32.4919,168
32.5290,145
32.5662,147
32.6033,118
32.6405,126
32.6776,131
32.7148,108
32.7519,149
32.7891,160
32.8262,128
32.8634,117
32.9006,126
32.9377,113
32.9749,146
33.0120,117
33.0492,122
33.0863,95
33.1235,132
33.1606,106
33.1978,122
33.2349,116
33.2721,128
33.3092,114
33.3464,111
33.3835,127
33.4207,119
33.4578,123
33.4950,134
33.5321,106
33.5693,114
33.6064,108
33.6436,123
33.6807,115
33.7179,112
33.7550,119
33.7922,124
33.8293,114
33.8665,113
33.9036,107
33.9408,136
33.9779,124
34.0151,108
34.0522,126
34.0894,103
34.1265,109
34.1637,104
34.2008,133
34.2380,112
34.2751,115
34.3123,123
34.3494,111
34.3866,147
34.4238,107
34.4609,127
34.4981,136
34.5352,123
34.5724,125
34.6095,133
34.6467,124
34.6838,118
34.7210,149
34.7581,153
34.7953,136
34.8324,141
34.8696,158
34.9067,133
34.9439,130
34.9810,110
35.0182,112
35.0553,93
35.0925,104
35.1296,107
35.1668,99
35.2039,91
35.2411,118
35.2782,112
35.3154,98
35.3525,97
35.3897,126
35.4268,104
35.4640,128
35.5011,98
35.5383,104
35.5754,118
35.6126,118
35.6497,104
35.6869,117
35.7240,100
35.7612,104
35.7983,100
35.8355,109
35.8726,108
35.9098,91
35.9469,115
35.9841,112
36.0213,91
36.0584,112
36.0956,67
36.1327,104
36.1699,99
36.2070,98
36.2442,91
36.2813,94
36.3185,113
36.3556,91
36.3928,94
36.4299,87
36.4671,95
36.5042,87
36.5414,106
36.5785,93
36.6157,86
36.6528,94
36.6900,85
36.7271,97
36.7643,110
36.8014,91
36.8386,88
36.8757,101
36.9129,96
36.9500,94
36.9872,97
37.0243,102
37.0615,108
37.0986,88
37.1358,76
37.1729,89
37.2101,113
37.2472,102
37.2844,81
37.3215,96
37.3587,93
37.3958,100
37.4330,162
37.4701,136
37.5073,126
37.5445,136
37.5816,83
37.6188,97
37.6559,95
37.6931,98
37.7302,79
37.7674,76
37.8045,91
37.8417,93
37.8788,93
37.9160,84
37.9531,84
37.9903,99
38.0274,68
38.0646,88
38.1017,90
38.1389,98
38.1760,76
38.2132,108
38.2503,86
38.2875,71
38.3246,78
38.3618,109
38.3989,89
38.4361,100
38.4732,81
38.5104,88
38.5475,93
38.5847,72
38.6218,77
38.6590,82
38.6961,93
38.7333,88
38.7704,92
38.8076,99
38.8447,87
38.8819,95
38.9190,70
38.9562,88
38.9933,107
39.0305,82
39.0677,89
39.1048,84
39.1420,89
39.1791,83
39.2163,76
39.2534,106
39.2906,93
39.3277,97
39.3649,89
39.4020,83
39.4392,84
39.4763,81
39.5135,75
39.5506,86
39.5878,86
39.6249,86
39.6621,88
39.6992,96
39.7364,93
39.7735,93
39.8107,96
39.8478,86
39.8850,75
39.9221,82
39.9593,70
39.9964,73
40.0336,69
40.0707,94
40.1079,94
40.1450,83
40.1822,86
40.2193,70
40.2565,73
40.2936,68
40.3308,77
40.3679,82
40.4051,79
40.4422,62
40.4794,84
40.5165,81
40.5537,62
40.5908,77
40.6280,83
40.6652,83
40.7023,94
40.7395,86
40.7766,79
40.8138,88
40.8509,73
40.8881,79
40.9252,77
40.9624,80
40.9995,87
41.0367,82
41.0738,78
41.1110,89
41.1481,80
41.1853,85
41.2224,52
41.2596,79
41.2967,87
41.3339,86
41.3710,67
41.4082,83
41.4453,87
41.4825,75
41.5196,87
41.5568,89
41.5939,79
41.6311,79
41.6682,66
41.7054,69
41.7425,65
41.7797,73
41.8168,60
41.8540,63
41.8911,77
41.9283,64
41.9654,89
42.0026,68
42.0397,67
42.0769,81
42.1140,99
42.1512,76
42.1884,66
42.2255,67
42.2627,73
42.2998,80
42.3370,75
42.3741,70
42.4113,83
42.4484,66
42.4856,66
42.5227,75
42.5599,75
42.5970,77
42.6342,82
42.6713,87
42.7085,90
42.7456,87
42.7828,77
42.8199,78
42.8571,63
42.8942,79
42.9314,75
42.9685,59
43.0057,69
43.0428,66
43.0800,67
43.1171,80
43.1543,80
43.1914,87
43.2286,107
43.2657,86
43.3029,88
43.3400,69
43.3772,93
43.4143,85
43.4515,85
43.4886,119
43.5258,126
43.5629,93
43.6001,102
43.6372,114
43.6744,80
43.7116,89
43.7487,66
43.7859,98
43.8230,66
43.8602,86
43.8973,80
43.9345,76
43.9716,74
44.0088,72
44.0459,81
44.0831,67
44.1202,72
44.1574,84
44.1945,77
44.2317,51
44.2688,87
44.3060,64
44.3431,73
44.3803,77
44.4174,72
44.4546,68
44.4917,75
44.5289,91
44.5660,80
44.6032,71
44.6403,74
44.6775,72
44.7146,66
44.7518,82
44.7889,73
44.8261,85
44.8632,58
44.9004,77
44.9375,73
44.9747,71
45.0118,91
45.0490,82
45.0861,69
45.1233,62
45.1604,69
45.1976,79
45.2347,77
45.2719,54
45.3091,78
45.3462,78
45.3834,69
45.4205,64
45.4577,70
45.4948,70
45.5320,72
45.5691,70
45.6063,69
45.6434,65
45.6806,67
45.7177,72
45.7549,76
45.7920,85
45.8292,78
45.8663,72
45.9035,72
45.9406,66
45.9778,66
46.0149,78
46.0521,63
46.0892,71
46.1264,60
46.1635,65
46.2007,59
46.2378,54
46.2750,65
46.3121,63
46.3493,68
46.3864,67
46.4236,64
46.4607,65
46.4979,76
46.5350,67
46.5722,84
46.6093,75
46.6465,69
46.6836,63
46.7208,54
46.7579,73
46.7951,75
46.8323,55
46.8694,61
46.9066,57
46.9437,69
46.9809,71
47.0180,67
47.0552,63
47.0923,65
47.1295,75
47.1666,71
47.2038,67
47.2409,65
47.2781,59
47.3152,56
47.3524,71
47.3895,64
47.4267,51
47.4638,64
47.5010,68
47.5381,64
47.5753,63
47.6124,69
47.6496,76
47.6867,82
47.7239,67
47.7610,59
47.7982,65
47.8353,71
47.8725,54
47.9096,47
47.9468,70
47.9839,68
48.0211,84
48.0582,63
48.0954,60
48.1325,59
48.1697,49
48.2068,59
48.2440,66
48.2811,64
48.3183,71
48.3555,64
48.3926,48
48.4298,71
48.4669,73
48.5041,64
48.5412,60
48.5784,67
48.6155,74
48.6527,53
48.6898,63
48.7270,67
48.7641,53
48.8013,61
48.8384,72
48.8756,68
48.9127,75
48.9499,113
48.9870,93
49.0242,78
49.0613,85
49.0985,94
49.1356,83
49.1728,91
49.2099,75
49.2471,69
49.2842,62
49.3214,59
49.3585,69
49.3957,46
49.4328,63
49.4700,54
49.5071,65
49.5443,53
49.5814,65
49.6186,55
49.6557,47
49.6929,61
49.7300,54
49.7672,70
49.8043,56
49.8415,59
49.8786,65
49.9158,47
49.9530,65
49.9901,51
50.0273,66
50.0644,60
50.1016,69
50.1387,45
50.1759,65
50.2130,56
50.2502,74
50.2873,57
50.3245,50
50.3616,44
50.3988,71
50.4359,56
50.4731,67
50.5102,59
50.5474,59
50.5845,61
50.6217,71
50.6588,59
50.6960,52
50.7331,61
50.7703,54
50.8074,66
50.8446,59
50.8817,62
50.9189,65
50.9560,62
50.9932,52
51.0303,55
51.0675,69
51.1046,68
51.1418,63
51.1789,58
51.2161,49
51.2532,59
51.2904,52
51.3275,59
51.3647,59
51.4018,65
51.4390,88
51.4762,57
51.5133,76
51.5505,67
51.5876,70
51.6248,67
51.6619,64
51.6991,39
51.7362,57
51.7734,76
51.8105,55
51.8477,70
51.8848,71
51.9220,58
51.9591,74
51.9963,68
52.0334,54
52.0706,71
52.1077,61
52.1449,63
52.1820,52
52.2192,58
52.2563,75
52.2935,62
52.3306,60
52.3678,68
52.4049,66
52.4421,58
52.4792,56
52.5164,59
52.5535,57
52.5907,64
52.6278,62
52.6650,50
52.7021,66
52.7393,53
52.7764,48
52.8136,55
52.8507,66
52.8879,65
52.9250,53
52.9622,56
52.9994,59
53.0365,65
53.0737,50
53.1108,34
53.1480,65
53.1851,44
53.2223,72
53.2594,54
53.2966,63
53.3337,68
53.3709,66
53.4080,49
53.4452,74
53.4823,68
53.5195,53
53.5566,58
53.5938,49
53.6309,64
53.6681,51
53.7052,45
53.7424,56
53.7795,69
53.8167,65
53.8538,55
53.8910,60
53.9281,58
53.9653,76
54.0024,86
54.0396,61
54.0767,51
54.1139,66
54.1510,73
54.1882,74
54.2253,56
54.2625,76
54.2996,63
54.3368,62
54.3739,59
54.4111,55
54.4482,53
54.4854,56
54.5225,62
54.5597,62
54.5969,62
54.6340,49
54.6712,63
54.7083,58
54.7455,55
54.7826,54
54.8198,67
54.8569,53
54.8941,65
54.9312,61
54.9684,57
55.0055,61
55.0427,69
55.0798,47
55.1170,49
55.1541,46
55.1913,57
55.2284,62
55.2656,64
55.3027,48
55.3399,52
55.3770,62
55.4142,53
55.4513,56
55.4885,47
55.5256,54
55.5628,68
55.5999,61
55.6371,54
55.6742,55
55.7114,54
55.7485,61
55.7857,48
55.8228,55
55.8600,63
55.8971,57
55.9343,51
55.9714,58
56.0086,52
56.0457,52
56.0829,55
56.1201,49
56.1572,69
56.1944,57
56.2315,61
56.2687,70
56.3058,51
56.3430,67
56.3801,51
56.4173,65
56.4544,52
56.4916,64
56.5287,55
56.5659,61
56.6030,62
56.6402,50
56.6773,59
56.7145,57
56.7516,49
56.7888,58
56.8259,53
56.8631,52
56.9002,52
56.9374,52
56.9745,65
57.0117,42
57.0488,71
57.0860,52
57.1231,47
57.1603,53
57.1974,50
57.2346,51
57.2717,70
57.3089,45
57.3460,63
57.3832,61
57.4203,62
57.4575,57
57.4946,60
57.5318,56
57.5689,59
57.6061,51
57.6433,67
57.6804,61
57.7176,59
57.7547,61
57.7919,63
57.8290,61
57.8662,56
57.9033,53
57.9405,51
57.9776,46
58.0148,60
58.0519,65
58.0891,57
58.1262,61
58.1634,55
58.2005,52
58.2377,66
58.2748,58
58.3120,60
58.3491,58
58.3863,70
58.4234,72
58.4606,54
58.4977,53
58.5349,69
58.5720,68
58.6092,66
58.6463,58
58.6835,52
58.7206,49
58.7578,61
58.7949,71
58.8321,52
58.8692,61
58.9064,63
58.9435,58
58.9807,45
59.0178,57
59.0550,65
59.0921,62
59.1293,51
59.1664,62
59.2036,57
59.2408,47
59.2779,63
59.3151,46
59.3522,50
59.3894,72
59.4265,51
59.4637,49
59.5008,58
59.5380,45
59.5751,43
59.6123,61
59.6494,61
59.6866,48
59.7237,49
59.7609,61
59.7980,48
59.8352,35
59.8723,56
59.9095,56
59.9466,72
59.9838,51
60.0024,49