File: notebooks/data/xrd_data/ML_20220721_28_SJD_4_LaB6-4min.csv
;,2THETA,
5.0000,257
5.0372,283
5.0743,255
5.1115,313
5.1486,266
5.1858,270
5.2229,232
5.2601,240
5.2972,234
5.3344,258
5.3715,246
5.4087,238
5.4458,247
5.4830,246
5.5201,240
5.5573,197
5.5944,218
5.6316,234
5.6687,218
5.7059,211
5.7430,198
5.7802,193
5.8173,204
5.8545,211
5.8916,213
5.9288,203
5.9659,228
6.0031,221
6.0402,194
6.0774,185
6.1145,208
6.1517,207
6.1888,187
6.2260,220
6.2631,182
6.3003,188
6.3374,175
6.3746,183
6.4117,180
6.4489,196
6.4860,171
6.5232,195
6.5604,187
6.5975,159
6.6347,178
6.6718,175
6.7090,153
6.7461,181
6.7833,143
6.8204,161
6.8576,203
6.8947,137
6.9319,175
6.9690,155
7.0062,163
7.0433,150
7.0805,185
7.1176,168
7.1548,161
7.1919,155
7.2291,172
7.2662,145
7.3034,154
7.3405,168
7.3777,158
7.4148,147
7.4520,151
7.4891,157
7.5263,157
7.5634,164
7.6006,198
7.6377,159
7.6749,197
7.7120,176
7.7492,159
7.7863,192
7.8235,194
7.8606,166
7.8978,188
7.9349,187
7.9721,198
8.0092,214
8.0464,207
8.0835,187
8.1207,208
8.1579,174
8.1950,199
8.2322,180
8.2693,219
8.3065,213
8.3436,176
8.3808,189
8.4179,178
8.4551,218
8.4922,197
8.5294,215
8.5665,197
8.6037,221
8.6408,207
8.6780,204
8.7151,219
8.7523,211
8.7894,212
8.8266,216
8.8637,204
8.9009,195
8.9380,232
8.9752,218
9.0123,226
9.0495,210
9.0866,204
9.1238,215
9.1609,214
9.1981,212
9.2352,217
9.2724,226
9.3095,227
9.3467,222
9.3838,216
9.4210,238
9.4581,216
9.4953,230
9.5324,237
9.5696,203
9.6067,221
9.6439,215
9.6811,201
9.7182,233
9.7554,217
9.7925,247
9.8297,232
9.8668,233
9.9040,243
9.9411,257
9.9783,225
10.0154,236
10.0526,246
10.0897,247
10.1269,238
10.1640,233
10.2012,257
10.2383,247
10.2755,263
10.3126,243
10.3498,241
10.3869,238
10.4241,266
10.4612,255
10.4984,268
10.5355,241
10.5727,233
10.6098,222
10.6470,207
10.6841,246
10.7213,241
10.7584,253
10.7956,215
10.8327,270
10.8699,262
10.9070,201
10.9442,233
10.9813,227
11.0185,248
11.0556,226
11.0928,247
11.1299,215
11.1671,242
11.2043,231
11.2414,214
11.2786,241
11.3157,209
11.3529,232
11.3900,271
11.4272,235
11.4643,236
11.5015,202
11.5386,236
11.5758,251
11.6129,216
11.6501,241
11.6872,223
11.7244,223
11.7615,202
11.7987,248
11.8358,207
11.8730,225
11.9101,252
11.9473,243
11.9844,233
12.0216,234
12.0587,214
12.0959,237
12.1330,226
12.1702,267
12.2073,215
12.2445,217
12.2816,233
12.3188,219
12.3559,230
12.3931,243
12.4302,231
12.4674,251
12.5045,204
12.5417,203
12.5788,191
12.6160,199
12.6531,228
12.6903,223
12.7274,190
12.7646,216
12.8018,225
12.8389,234
12.8761,215
12.9132,192
12.9504,212
12.9875,203
13.0247,210
13.0618,179
13.0990,213
13.1361,205
13.1733,201
13.2104,196
13.2476,181
13.2847,213
13.3219,197
13.3590,186
13.3962,177
13.4333,211
13.4705,177
13.5076,197
13.5448,188
13.5819,168
13.6191,198
13.6562,190
13.6934,188
13.7305,165
13.7677,201
13.8048,186
13.8420,191
13.8791,172
13.9163,192
13.9534,207
13.9906,172
14.0277,206
14.0649,184
14.1020,193
14.1392,191
14.1763,191
14.2135,190
14.2506,162
14.2878,156
14.3250,183
14.3621,172
14.3993,186
14.4364,182
14.4736,181
14.5107,176
14.5479,170
14.5850,160
14.6222,156
14.6593,169
14.6965,179
14.7336,168
14.7708,188
14.8079,170
14.8451,182
14.8822,157
14.9194,176
14.9565,164
14.9937,160
15.0308,209
15.0680,163
15.1051,161
15.1423,161
15.1794,193
15.2166,158
15.2537,174
15.2909,162
15.3280,170
15.3652,160
15.4023,175
15.4395,173
15.4766,166
15.5138,173
15.5509,154
15.5881,147
15.6252,153
15.6624,157
15.6995,151
15.7367,172
15.7738,158
15.8110,179
15.8482,161
15.8853,184
15.9225,133
15.9596,175
15.9968,170
16.0339,165
16.0711,161
16.1082,159
16.1454,149
16.1825,178
16.2197,169
16.2568,158
16.2940,173
16.3311,150
16.3683,168
16.4054,159
16.4426,174
16.4797,136
16.5169,150
16.5540,160
16.5912,159
16.6283,172
16.6655,184
16.7026,183
16.7398,154
16.7769,154
16.8141,175
16.8512,159
16.8884,183
16.9255,179
16.9627,144
16.9998,138
17.0370,179
17.0741,150
17.1113,185
17.1484,163
17.1856,181
17.2227,149
17.2599,152
17.2970,169
17.3342,157
17.3713,156
17.4085,156
17.4457,157
17.4828,163
17.5200,175
17.5571,153
17.5943,176
17.6314,164
17.6686,156
17.7057,165
17.7429,172
17.7800,166
17.8172,166
17.8543,172
17.8915,162
17.9286,170
17.9658,169
18.0029,156
18.0401,146
18.0772,176
18.1144,192
18.1515,170
18.1887,178
18.2258,189
18.2630,181
18.3001,169
18.3373,175
18.3744,164
18.4116,165
18.4487,165
18.4859,173
18.5230,163
18.5602,174
18.5973,171
18.6345,170
18.6716,156
18.7088,175
18.7459,175
18.7831,172
18.8202,177
18.8574,177
18.8945,171
18.9317,160
18.9689,159
19.0060,205
19.0432,157
19.0803,164
19.1175,158
19.1546,190
19.1918,168
19.2289,187
19.2661,175
19.3032,173
19.3404,159
19.3775,178
19.4147,164
19.4518,174
19.4890,166
19.5261,181
19.5633,174
19.6004,191
19.6376,179
19.6747,182
19.7119,178
19.7490,168
19.7862,186
19.8233,188
19.8605,180
19.8976,159
19.9348,175
19.9719,175
20.0091,209
20.0462,174
20.0834,198
20.1205,187
20.1577,201
20.1948,187
20.2320,183
20.2691,189
20.3063,184
20.3434,181
20.3806,185
20.4177,191
20.4549,190
20.4921,182
20.5292,175
20.5664,183
20.6035,177
20.6407,181
20.6778,174
20.7150,186
20.7521,185
20.7893,197
20.8264,194
20.8636,186
20.9007,188
20.9379,212
20.9750,184
21.0122,187
21.0493,198
21.0865,206
21.1236,215
21.1608,254
21.1979,259
21.2351,325
21.2722,324
21.3094,324
21.3465,496
21.3837,413
21.4208,380
21.4580,254
21.4951,197
21.5323,227
21.5694,236
21.6066,198
21.6437,188
21.6809,208
21.7180,206
21.7552,204
21.7923,209
21.8295,207
21.8666,205
21.9038,190
21.9409,197
21.9781,193
22.0152,192
22.0524,166
22.0896,208
22.1267,196
22.1639,223
22.2010,186
22.2382,212
22.2753,213
22.3125,185
22.3496,221
22.3868,202
22.4239,198
22.4611,204
22.4982,225
22.5354,217
22.5725,224
22.6097,183
22.6468,198
22.6840,204
22.7211,205
22.7583,179
22.7954,198
22.8326,190
22.8697,196
22.9069,207
22.9440,186
22.9812,195
23.0183,187
23.0555,194
23.0926,210
23.1298,193
23.1669,213
23.2041,182
23.2412,203
23.2784,193
23.3155,196
23.3527,166
23.3898,203
23.4270,197
23.4641,188
23.5013,183
23.5384,179
23.5756,165
23.6128,199
23.6499,221
23.6871,196
23.7242,198
23.7614,207
23.7985,226
23.8357,182
23.8728,204
23.9100,212
23.9471,196
23.9843,196
24.0214,197
24.0586,194
24.0957,197
24.1329,212
24.1700,223
24.2072,206
24.2443,221
24.2815,246
24.3186,236
24.3558,251
24.3929,202
24.4301,202
24.4672,238
24.5044,197
24.5415,207
24.5787,186
24.6158,189
24.6530,213
24.6901,212
24.7273,207
24.7644,209
24.8016,177
24.8387,199
24.8759,195
24.9130,217
24.9502,221
24.9873,175
25.0245,207
25.0616,219
25.0988,209
25.1360,219
25.1731,198
25.2103,193
25.2474,208
25.2846,173
25.3217,195
25.3589,196
25.3960,204
25.4332,175
25.4703,193
25.5075,226
25.5446,201
25.5818,197
25.6189,196
25.6561,194
25.6932,207
25.7304,179
25.7675,202
25.8047,189
25.8418,186
25.8790,193
25.9161,195
25.9533,208
25.9904,201
26.0276,198
26.0647,194
26.1019,185
26.1390,186
26.1762,188
26.2133,224
26.2505,202
26.2876,198
26.3248,204
26.3619,184
26.3991,193
26.4362,212
26.4734,173
26.5105,177
26.5477,171
26.5848,180
26.6220,184
26.6591,203
26.6963,178
26.7335,180
26.7706,178
26.8078,199
26.8449,209
26.8821,189
26.9192,186
26.9564,182
26.9935,198
27.0307,201
27.0678,214
27.1050,181
27.1421,225
27.1793,243
27.2164,244
27.2536,214
27.2907,200
27.3279,197
27.3650,201
27.4022,208
27.4393,162
27.4765,202
27.5136,183
27.5508,206
27.5879,196
27.6251,182
27.6622,181
27.6994,170
27.7365,174
27.7737,189
27.8108,150
27.8480,184
27.8851,186
27.9223,180
27.9594,192
27.9966,197
28.0337,174
28.0709,210
28.1080,178
28.1452,204
28.1823,178
28.2195,164
28.2567,156
28.2938,176
28.3310,166
28.3681,183
28.4053,183
28.4424,167
28.4796,174
28.5167,164
28.5539,164
28.5910,177
28.6282,168
28.6653,158
28.7025,180
28.7396,152
28.7768,161
28.8139,145
28.8511,171
28.8882,185
28.9254,150
28.9625,179
28.9997,164
29.0368,159
29.0740,156
29.1111,152
29.1483,158
29.1854,176
29.2226,162
29.2597,159
29.2969,161
29.3340,166
29.3712,146
29.4083,167
29.4455,155
29.4826,169
29.5198,151
29.5569,163
29.5941,176
29.6312,150
29.6684,170
29.7055,141
29.7427,155
29.7799,134
29.8170,139
29.8542,158
29.8913,166
29.9285,136
29.9656,155
30.0028,156
30.0399,174
30.0771,159
30.1142,159
30.1514,152
30.1885,162
30.2257,141
30.2628,157
30.3000,161
30.3371,218
30.3743,312
30.4114,272
30.4486,269
30.4857,235
30.5229,173
30.5600,146
30.5972,149
30.6343,172
30.6715,140
30.7086,167
30.7458,155
30.7829,144
30.8201,152
30.8572,154
30.8944,143
30.9315,158
30.9687,119
31.0058,135
31.0430,145
31.0801,153
31.1173,146
31.1544,144
31.1916,143
31.2287,139
31.2659,122
31.3030,133
31.3402,141
31.3774,145
31.4145,134
31.4517,145
31.4888,143
31.5260,135
31.5631,117
31.6003,140
31.6374,147
31.6746,158
31.7117,150
31.7489,136
31.7860,144
31.8232,132
31.8603,129
31.8975,153
31.9346,137
31.9718,127
32.0089,124
32.0461,133
32.0832,128
32.1204,143
32.1575,118
32.1947,133
32.2318,140
32.2690,129
32.3061,122
32.3433,115
32.3804,150
32.4176,157
32.4547,147
32.4919,160
32.5290,127
32.5662,132
32.6033,144
32.6405,123
32.6776,118
32.7148,128
32.7519,165
32.7891,110
32.8262,111
32.8634,89
32.9006,144
32.9377,140
32.9749,123
33.0120,128
33.0492,98
33.0863,117
33.1235,128
33.1606,111
33.1978,127
33.2349,117
33.2721,118
33.3092,132
33.3464,132
33.3835,116
33.4207,113
33.4578,115
33.4950,118
33.5321,112
33.5693,127
33.6064,122
33.6436,116
33.6807,119
33.7179,123
33.7550,118
33.7922,122
33.8293,106
33.8665,125
33.9036,101
33.9408,113
33.9779,120
34.0151,147
34.0522,113
34.0894,110
34.1265,107
34.1637,122
34.2008,101
34.2380,131
34.2751,134
34.3123,130
34.3494,104
34.3866,109
34.4238,124
34.4609,122
34.4981,111
34.5352,110
34.5724,101
34.6095,103
34.6467,138
34.6838,136
34.7210,143
34.7581,139
34.7953,137
34.8324,140
34.8696,144
34.9067,143
34.9439,108
34.9810,130
35.0182,114
35.0553,115
35.0925,110
35.1296,96
35.1668,102
35.2039,101
35.2411,94
35.2782,103
35.3154,123
35.3525,94
35.3897,105
35.4268,101
35.4640,97
35.5011,97
35.5383,120
35.5754,79
35.6126,97
35.6497,91
35.6869,108
35.7240,102
35.7612,108
35.7983,97
35.8355,100
35.8726,106
35.9098,112
35.9469,110
35.9841,99
36.0213,96
36.0584,121
36.0956,83
36.1327,102
36.1699,85
36.2070,102
36.2442,101
36.2813,105
36.3185,118
36.3556,113
36.3928,86
36.4299,99
36.4671,94
36.5042,91
36.5414,91
36.5785,89
36.6157,92
36.6528,86
36.6900,88
36.7271,101
36.7643,101
36.8014,98
36.8386,91
36.8757,79
36.9129,77
36.9500,92
36.9872,102
37.0243,98
37.0615,93
37.0986,89
37.1358,97
37.1729,95
37.2101,86
37.2472,110
37.2844,107
37.3215,84
37.3587,104
37.3958,105
37.4330,148
37.4701,134
37.5073,118
37.5445,114
37.5816,96
37.6188,95
37.6559,104
37.6931,79
37.7302,99
37.7674,99
37.8045,93
37.8417,90
37.8788,78
37.9160,89
37.9531,75
37.9903,82
38.0274,90
38.0646,89
38.1017,88
38.1389,72
38.1760,74
38.2132,91
38.2503,73
38.2875,94
38.3246,85
38.3618,101
38.3989,83
38.4361,88
38.4732,82
38.5104,85
38.5475,92
38.5847,89
38.6218,88
38.6590,84
38.6961,86
38.7333,82
38.7704,82
38.8076,92
38.8447,74
38.8819,77
38.9190,98
38.9562,83
38.9933,100
39.0305,99
39.0677,97
39.1048,89
39.1420,91
39.1791,69
39.2163,87
39.2534,99
39.2906,99
39.3277,81
39.3649,73
39.4020,69
39.4392,76
39.4763,92
39.5135,80
39.5506,83
39.5878,90
39.6249,72
39.6621,79
39.6992,83
39.7364,82
39.7735,86
39.8107,73
39.8478,76
39.8850,90
39.9221,70
39.9593,82
39.9964,70
40.0336,71
40.0707,79
40.1079,77
40.1450,70
40.1822,87
40.2193,75
40.2565,77
40.2936,87
40.3308,80
40.3679,76
40.4051,77
40.4422,83
40.4794,82
40.5165,76
40.5537,84
40.5908,72
40.6280,80
40.6652,88
40.7023,81
40.7395,70
40.7766,77
40.8138,71
40.8509,71
40.8881,79
40.9252,70
40.9624,90
40.9995,76
41.0367,88
41.0738,90
41.1110,74
41.1481,84
41.1853,77
41.2224,63
41.2596,76
41.2967,69
41.3339,70
41.3710,82
41.4082,74
41.4453,87
41.4825,69
41.5196,76
41.5568,82
41.5939,69
41.6311,66
41.6682,86
41.7054,78
41.7425,84
41.7797,89
41.8168,70
41.8540,88
41.8911,67
41.9283,75
41.9654,76
42.0026,70
42.0397,71
42.0769,80
42.1140,85
42.1512,79
42.1884,69
42.2255,89
42.2627,67
42.2998,83
42.3370,81
42.3741,89
42.4113,72
42.4484,81
42.4856,77
42.5227,61
42.5599,95
42.5970,78
42.6342,75
42.6713,65
42.7085,90
42.7456,63
42.7828,64
42.8199,86
42.8571,97
42.8942,62
42.9314,74
42.9685,73
43.0057,76
43.0428,81
43.0800,77
43.1171,92
43.1543,84
43.1914,86
43.2286,98
43.2657,79
43.3029,81
43.3400,90
43.3772,86
43.4143,87
43.4515,89
43.4886,125
43.5258,115
43.5629,92
43.6001,96
43.6372,104
43.6744,79
43.7116,82
43.7487,85
43.7859,71
43.8230,74
43.8602,87
43.8973,66
43.9345,80
43.9716,53
44.0088,62
44.0459,72
44.0831,86
44.1202,81
44.1574,65
44.1945,70
44.2317,70
44.2688,79
44.3060,68
44.3431,60
44.3803,74
44.4174,87
44.4546,80
44.4917,85
44.5289,83
44.5660,101
44.6032,88
44.6403,82
44.6775,77
44.7146,80
44.7518,67
44.7889,72
44.8261,84
44.8632,87
44.9004,67
44.9375,77
44.9747,73
45.0118,73
45.0490,75
45.0861,66
45.1233,65
45.1604,66
45.1976,63
45.2347,67
45.2719,73
45.3091,71
45.3462,94
45.3834,76
45.4205,66
45.4577,64
45.4948,60
45.5320,64
45.5691,62
45.6063,70
45.6434,58
45.6806,72
45.7177,70
45.7549,71
45.7920,77
45.8292,60
45.8663,78
45.9035,77
45.9406,65
45.9778,77
46.0149,77
46.0521,62
46.0892,67
46.1264,57
46.1635,55
46.2007,67
46.2378,71
46.2750,69
46.3121,71
46.3493,59
46.3864,63
46.4236,63
46.4607,63
46.4979,71
46.5350,47
46.5722,59
46.6093,60
46.6465,76
46.6836,68
46.7208,71
46.7579,60
46.7951,65
46.8323,93
46.8694,57
46.9066,69
46.9437,55
46.9809,67
47.0180,78
47.0552,57
47.0923,52
47.1295,81
47.1666,69
47.2038,56
47.2409,68
47.2781,54
47.3152,72
47.3524,74
47.3895,77
47.4267,69
47.4638,64
47.5010,67
47.5381,49
47.5753,55
47.6124,61
47.6496,66
47.6867,78
47.7239,69
47.7610,70
47.7982,60
47.8353,73
47.8725,70
47.9096,53
47.9468,57
47.9839,53
48.0211,66
48.0582,78
48.0954,72
48.1325,67
48.1697,81
48.2068,61
48.2440,77
48.2811,71
48.3183,72
48.3555,64
48.3926,71
48.4298,76
48.4669,59
48.5041,75
48.5412,64
48.5784,70
48.6155,58
48.6527,69
48.6898,57
48.7270,67
48.7641,66
48.8013,75
48.8384,67
48.8756,81
48.9127,80
48.9499,126
48.9870,107
49.0242,71
49.0613,90
49.0985,89
49.1356,69
49.1728,56
49.2099,59
49.2471,55
49.2842,67
49.3214,45
49.3585,60
49.3957,55
49.4328,66
49.4700,59
49.5071,85
49.5443,71
49.5814,59
49.6186,69
49.6557,58
49.6929,63
49.7300,56
49.7672,68
49.8043,53
49.8415,75
49.8786,66
49.9158,62
49.9530,57
49.9901,53
50.0273,61
50.0644,61
50.1016,56
50.1387,64
50.1759,60
50.2130,65
50.2502,60
50.2873,74
50.3245,73
50.3616,75
50.3988,66
50.4359,71
50.4731,59
50.5102,62
50.5474,58
50.5845,65
50.6217,63
50.6588,66
50.6960,64
50.7331,60
50.7703,58
50.8074,60
50.8446,50
50.8817,62
50.9189,58
50.9560,60
50.9932,66
51.0303,65
51.0675,57
51.1046,70
51.1418,67
51.1789,71
51.2161,57
51.2532,65
51.2904,56
51.3275,62
51.3647,82
51.4018,65
51.4390,73
51.4762,69
51.5133,70
51.5505,66
51.5876,67
51.6248,62
51.6619,49
51.6991,62
51.7362,53
51.7734,70
51.8105,67
51.8477,65
51.8848,66
51.9220,53
51.9591,63
51.9963,67
52.0334,73
52.0706,65
52.1077,56
52.1449,72
52.1820,62
52.2192,54
52.2563,80
52.2935,77
52.3306,74
52.3678,51
52.4049,57
52.4421,63
52.4792,56
52.5164,60
52.5535,50
52.5907,47
52.6278,54
52.6650,59
52.7021,48
52.7393,62
52.7764,54
52.8136,77
52.8507,59
52.8879,68
52.9250,61
52.9622,73
52.9994,65
53.0365,79
53.0737,63
53.1108,65
53.1480,52
53.1851,57
53.2223,66
53.2594,50
53.2966,52
53.3337,55
53.3709,67
53.4080,63
53.4452,59
53.4823,65
53.5195,60
53.5566,58
53.5938,56
53.6309,79
53.6681,64
53.7052,41
53.7424,55
53.7795,53
53.8167,56
53.8538,53
53.8910,48
53.9281,70
53.9653,84
54.0024,86
54.0396,63
54.0767,74
54.1139,68
54.1510,68
54.1882,53
54.2253,76
54.2625,55
54.2996,63
54.3368,58
54.3739,55
54.4111,51
54.4482,59
54.4854,60
54.5225,53
54.5597,58
54.5969,56
54.6340,59
54.6712,48
54.7083,63
54.7455,62
54.7826,65
54.8198,47
54.8569,56
54.8941,51
54.9312,63
54.9684,56
55.0055,56
55.0427,70
55.0798,55
55.1170,58
55.1541,54
55.1913,52
55.2284,58
55.2656,59
55.3027,68
55.3399,71
55.3770,50
55.4142,60
55.4513,49
55.4885,54
55.5256,51
55.5628,63
55.5999,51
55.6371,57
55.6742,53
55.7114,57
55.7485,51
55.7857,54
55.8228,51
55.8600,73
55.8971,45
55.9343,64
55.9714,52
56.0086,70
56.0457,44
56.0829,50
56.1201,61
56.1572,36
56.1944,60
56.2315,52
56.2687,63
56.3058,60
56.3430,69
56.3801,70
56.4173,54
56.4544,60
56.4916,73
56.5287,51
56.5659,58
56.6030,57
56.6402,44
56.6773,56
56.7145,44
56.7516,58
56.7888,60
56.8259,52
56.8631,60
56.9002,66
56.9374,62
56.9745,50
57.0117,57
57.0488,54
57.0860,60
57.1231,45
57.1603,58
57.1974,56
57.2346,53
57.2717,54
57.3089,54
57.3460,57
57.3832,48
57.4203,63
57.4575,51
57.4946,47
57.5318,46
57.5689,64
57.6061,60
57.6433,57
57.6804,55
57.7176,58
57.7547,46
57.7919,59
57.8290,56
57.8662,67
57.9033,58
57.9405,64
57.9776,59
58.0148,57
58.0519,53
58.0891,47
58.1262,67
58.1634,56
58.2005,61
58.2377,63
58.2748,54
58.3120,62
58.3491,56
58.3863,57
58.4234,54
58.4606,60
58.4977,56
58.5349,57
58.5720,51
58.6092,53
58.6463,56
58.6835,58
58.7206,62
58.7578,59
58.7949,56
58.8321,61
58.8692,66
58.9064,67
58.9435,42
58.9807,54
59.0178,56
59.0550,62
59.0921,58
59.1293,65
59.1664,60
59.2036,60
59.2408,43
59.2779,52
59.3151,56
59.3522,52
59.3894,55
59.4265,46
59.4637,64
59.5008,47
59.5380,59
59.5751,53
59.6123,54
59.6494,62
59.6866,48
59.7237,61
59.7609,51
59.7980,56
59.8352,45
59.8723,57
59.9095,58
59.9466,55
59.9838,49
60.0024,63