File: notebooks/data/xrd_data/ML_20220720_1_SJD_4_LaB6-4min.uxd
; (content of file Y:\Sam\Apurva-07-20-2022\puck4\ML_20220718_1_SJD_0_LaB6-4min.raw)
_FILEVERSION = 3
_SAMPLE = ML_20220718_1_SJD_0_LaB6-4mi
_+SAMPLE =
_SITE = USA
_USER = Administrator
_GONIOMETER_CODE = 20
; Goniometer : D8 theta/2theta, stage : Unknown
_ATTACHMENTS_CODE = 0
_GONIOMETER_RADIUS = 200.5
_FIXED_DIVSLIT = 0.6
_FIXED_SAMPLESLIT = 0
_SOLLER_SLITS = 2
_FIXED_DETSLIT = 9.55
_MONOCHROMATOR = 0
; Incident beam monochromator : None
_SOLLER_SLITS_2 = N
_THIN_FILM = N
_BETA_FILTER = Y
_FIXED_ANTISLIT = 5.89
_ANALYZER_CODE = 0
; Received beam analyzer : None
_DATEMEASURED = "21-Jul-2022 02:42:14"
_WL_UNIT = A
_WL1 = 1.5406
_WL2 = 1.54439
_WL3 = 1.39222
_WLRATIO = 0.5
_ANODE = Cu
_V4_INF_CREATOR = XRDWizard
_V4_INF_CREATOR_VERSION = V2.9.0.22
_V4_INF_WIZARD_VERSION = V2.9.0.22
_V4_INF_WIZARD_ADDINS = V2.9.0.22
_V4_INF_WIZARD_DOCTYPE = XRD
_V4_INF_OSUSER = McQueenLab
_V4_INF_USER = Administrator
_V4_INF_SITE = USA
_V4_INF_SAMPLEID = ML_20220718_1_SJD_0_LaB6-4mi

; Data for range 1
_DRIVE = COUPLED
_STEPTIME = 11.28
_STEPSIZE = 0.0185756
_STEPMODE = C
_START = 5
_THETA = 2.5
_2THETA = 5
_KHI = 0
_PHI = 0
_X = 0
_Y = 0
_Z = 0
_DETECTOR = 5
; Detector type : Unknown
_DETECTORSLIT = unkn
_AUX1 = 0
_AUX2 = 0
_AUX3 = 0
_TIMESTARTED = 15
_TEMP_RATE = -1
_TEMP_DELAY = -1
_KV = 40
_MA = 40
_RANGE_WL = 1.5406
_3DPLANE = 0
_V4_ADDITIONALDETECTOR = 257
_V4_PSD2THETA = 3.3878
_V4_PSDCHANNEL1 = 0
_V4_PSDAPERTURE = 12.68
_V4_PSDTYPE = 5
_V4_PSDFIXED = 0
_V4_COUNTERS_MASK = 4096
_V4_DRIVES_MASK = 0
_V4_ENCODERS_MASK = 0
_2THETACOUNTS = 1
; 2THETA  PSD
   5.0000        276
   5.0372        257
   5.0743        245
   5.1115        257
   5.1486        243
   5.1858        241
   5.2229        251
   5.2601        234
   5.2972        250
   5.3344        196
   5.3715        217
   5.4087        221
   5.4458        217
   5.4830        225
   5.5201        260
   5.5573        215
   5.5944        236
   5.6316        204
   5.6687        223
   5.7059        210
   5.7430        242
   5.7802        226
   5.8173        221
   5.8545        192
   5.8916        194
   5.9288        178
   5.9659        201
   6.0031        208
   6.0402        178
   6.0774        203
   6.1145        201
   6.1517        196
   6.1888        194
   6.2260        200
   6.2631        203
   6.3003        200
   6.3374        191
   6.3746        199
   6.4117        184
   6.4489        197
   6.4860        155
   6.5232        173
   6.5604        184
   6.5975        163
   6.6347        151
   6.6718        167
   6.7090        165
   6.7461        176
   6.7833        152
   6.8204        174
   6.8576        165
   6.8947        167
   6.9319        147
   6.9690        162
   7.0062        177
   7.0433        173
   7.0805        157
   7.1176        172
   7.1548        152
   7.1919        151
   7.2291        176
   7.2662        167
   7.3034        177
   7.3405        148
   7.3777        143
   7.4148        184
   7.4520        159
   7.4891        184
   7.5263        168
   7.5634        163
   7.6006        195
   7.6377        152
   7.6749        184
   7.7120        164
   7.7492        194
   7.7863        188
   7.8235        168
   7.8606        159
   7.8978        184
   7.9349        170
   7.9721        198
   8.0092        188
   8.0464        173
   8.0835        199
   8.1207        177
   8.1579        175
   8.1950        183
   8.2322        190
   8.2693        170
   8.3065        200
   8.3436        172
   8.3808        200
   8.4179        161
   8.4551        170
   8.4922        185
   8.5294        173
   8.5665        192
   8.6037        184
   8.6408        175
   8.6780        197
   8.7151        214
   8.7523        212
   8.7894        209
   8.8266        189
   8.8637        197
   8.9009        192
   8.9380        187
   8.9752        219
   9.0123        188
   9.0495        224
   9.0866        193
   9.1238        218
   9.1609        202
   9.1981        218
   9.2352        218
   9.2724        206
   9.3095        225
   9.3467        239
   9.3838        220
   9.4210        203
   9.4581        209
   9.4953        229
   9.5324        229
   9.5696        211
   9.6067        194
   9.6439        215
   9.6811        215
   9.7182        245
   9.7554        207
   9.7925        221
   9.8297        234
   9.8668        216
   9.9040        237
   9.9411        261
   9.9783        236
  10.0154        220
  10.0526        247
  10.0897        246
  10.1269        235
  10.1640        240
  10.2012        223
  10.2383        205
  10.2755        236
  10.3126        257
  10.3498        255
  10.3869        247
  10.4241        222
  10.4612        206
  10.4984        246
  10.5355        198
  10.5727        230
  10.6098        218
  10.6470        260
  10.6841        234
  10.7213        253
  10.7584        238
  10.7956        226
  10.8327        222
  10.8699        251
  10.9070        260
  10.9442        229
  10.9813        232
  11.0185        236
  11.0556        223
  11.0928        228
  11.1299        234
  11.1671        246
  11.2043        213
  11.2414        240
  11.2786        222
  11.3157        218
  11.3529        219
  11.3900        252
  11.4272        208
  11.4643        240
  11.5015        258
  11.5386        233
  11.5758        238
  11.6129        244
  11.6501        257
  11.6872        229
  11.7244        232
  11.7615        224
  11.7987        199
  11.8358        223
  11.8730        230
  11.9101        207
  11.9473        206
  11.9844        234
  12.0216        240
  12.0587        227
  12.0959        205
  12.1330        232
  12.1702        219
  12.2073        217
  12.2445        202
  12.2816        212
  12.3188        227
  12.3559        217
  12.3931        222
  12.4302        222
  12.4674        227
  12.5045        206
  12.5417        212
  12.5788        230
  12.6160        190
  12.6531        217
  12.6903        224
  12.7274        208
  12.7646        200
  12.8018        222
  12.8389        193
  12.8761        194
  12.9132        183
  12.9504        206
  12.9875        204
  13.0247        188
  13.0618        203
  13.0990        206
  13.1361        188
  13.1733        198
  13.2104        178
  13.2476        200
  13.2847        187
  13.3219        189
  13.3590        197
  13.3962        164
  13.4333        179
  13.4705        221
  13.5076        200
  13.5448        171
  13.5819        199
  13.6191        164
  13.6562        183
  13.6934        173
  13.7305        182
  13.7677        186
  13.8048        201
  13.8420        177
  13.8791        192
  13.9163        180
  13.9534        189
  13.9906        193
  14.0277        175
  14.0649        166
  14.1020        180
  14.1392        165
  14.1763        174
  14.2135        188
  14.2506        175
  14.2878        168
  14.3250        180
  14.3621        178
  14.3993        143
  14.4364        174
  14.4736        163
  14.5107        173
  14.5479        142
  14.5850        173
  14.6222        202
  14.6593        168
  14.6965        180
  14.7336        175
  14.7708        178
  14.8079        164
  14.8451        156
  14.8822        173
  14.9194        170
  14.9565        182
  14.9937        157
  15.0308        157
  15.0680        162
  15.1051        181
  15.1423        180
  15.1794        176
  15.2166        132
  15.2537        152
  15.2909        193
  15.3280        184
  15.3652        160
  15.4023        166
  15.4395        178
  15.4766        141
  15.5138        155
  15.5509        173
  15.5881        159
  15.6252        199
  15.6624        143
  15.6995        153
  15.7367        144
  15.7738        158
  15.8110        173
  15.8482        166
  15.8853        175
  15.9225        166
  15.9596        155
  15.9968        135
  16.0339        173
  16.0711        176
  16.1082        138
  16.1454        138
  16.1825        133
  16.2197        175
  16.2568        145
  16.2940        169
  16.3311        126
  16.3683        161
  16.4054        182
  16.4426        155
  16.4797        154
  16.5169        140
  16.5540        161
  16.5912        147
  16.6283        120
  16.6655        147
  16.7026        147
  16.7398        169
  16.7769        161
  16.8141        167
  16.8512        183
  16.8884        158
  16.9255        174
  16.9627        171
  16.9998        157
  17.0370        171
  17.0741        157
  17.1113        170
  17.1484        158
  17.1856        151
  17.2227        135
  17.2599        151
  17.2970        178
  17.3342        154
  17.3713        177
  17.4085        185
  17.4457        154
  17.4828        176
  17.5200        164
  17.5571        144
  17.5943        149
  17.6314        159
  17.6686        180
  17.7057        164
  17.7429        159
  17.7800        155
  17.8172        173
  17.8543        163
  17.8915        154
  17.9286        160
  17.9658        158
  18.0029        173
  18.0401        165
  18.0772        133
  18.1144        157
  18.1515        156
  18.1887        180
  18.2258        186
  18.2630        155
  18.3001        157
  18.3373        155
  18.3744        166
  18.4116        174
  18.4487        182
  18.4859        155
  18.5230        158
  18.5602        153
  18.5973        149
  18.6345        152
  18.6716        162
  18.7088        166
  18.7459        178
  18.7831        179
  18.8202        160
  18.8574        168
  18.8945        177
  18.9317        171
  18.9689        162
  19.0060        174
  19.0432        194
  19.0803        185
  19.1175        187
  19.1546        185
  19.1918        184
  19.2289        171
  19.2661        153
  19.3032        176
  19.3404        182
  19.3775        170
  19.4147        151
  19.4518        177
  19.4890        178
  19.5261        169
  19.5633        168
  19.6004        175
  19.6376        176
  19.6747        167
  19.7119        176
  19.7490        165
  19.7862        188
  19.8233        164
  19.8605        169
  19.8976        165
  19.9348        160
  19.9719        196
  20.0091        167
  20.0462        188
  20.0834        187
  20.1205        170
  20.1577        175
  20.1948        157
  20.2320        171
  20.2691        188
  20.3063        183
  20.3434        177
  20.3806        189
  20.4177        175
  20.4549        161
  20.4921        160
  20.5292        168
  20.5664        161
  20.6035        196
  20.6407        169
  20.6778        168
  20.7150        200
  20.7521        165
  20.7893        181
  20.8264        192
  20.8636        208
  20.9007        194
  20.9379        178
  20.9750        186
  21.0122        194
  21.0493        191
  21.0865        206
  21.1236        247
  21.1608        265
  21.1979        341
  21.2351        282
  21.2722        286
  21.3094        342
  21.3465        498
  21.3837        377
  21.4208        265
  21.4580        215
  21.4951        219
  21.5323        170
  21.5694        194
  21.6066        195
  21.6437        182
  21.6809        194
  21.7180        195
  21.7552        192
  21.7923        183
  21.8295        178
  21.8666        196
  21.9038        179
  21.9409        186
  21.9781        206
  22.0152        185
  22.0524        204
  22.0896        218
  22.1267        210
  22.1639        202
  22.2010        206
  22.2382        181
  22.2753        188
  22.3125        216
  22.3496        210
  22.3868        218
  22.4239        213
  22.4611        186
  22.4982        210
  22.5354        174
  22.5725        203
  22.6097        205
  22.6468        200
  22.6840        181
  22.7211        218
  22.7583        201
  22.7954        182
  22.8326        197
  22.8697        198
  22.9069        175
  22.9440        207
  22.9812        239
  23.0183        201
  23.0555        179
  23.0926        200
  23.1298        201
  23.1669        209
  23.2041        197
  23.2412        201
  23.2784        223
  23.3155        200
  23.3527        195
  23.3898        184
  23.4270        186
  23.4641        174
  23.5013        177
  23.5384        194
  23.5756        221
  23.6128        202
  23.6499        220
  23.6871        192
  23.7242        189
  23.7614        201
  23.7985        206
  23.8357        204
  23.8728        207
  23.9100        215
  23.9471        194
  23.9843        218
  24.0214        202
  24.0586        203
  24.0957        210
  24.1329        203
  24.1700        191
  24.2072        206
  24.2443        210
  24.2815        194
  24.3186        239
  24.3558        210
  24.3929        193
  24.4301        199
  24.4672        217
  24.5044        225
  24.5415        202
  24.5787        184
  24.6158        189
  24.6530        204
  24.6901        209
  24.7273        209
  24.7644        211
  24.8016        201
  24.8387        190
  24.8759        206
  24.9130        198
  24.9502        184
  24.9873        192
  25.0245        181
  25.0616        174
  25.0988        196
  25.1360        165
  25.1731        182
  25.2103        209
  25.2474        195
  25.2846        189
  25.3217        190
  25.3589        208
  25.3960        226
  25.4332        189
  25.4703        198
  25.5075        188
  25.5446        196
  25.5818        204
  25.6189        205
  25.6561        210
  25.6932        211
  25.7304        174
  25.7675        199
  25.8047        186
  25.8418        221
  25.8790        193
  25.9161        191
  25.9533        189
  25.9904        185
  26.0276        201
  26.0647        164
  26.1019        179
  26.1390        182
  26.1762        171
  26.2133        172
  26.2505        203
  26.2876        200
  26.3248        182
  26.3619        158
  26.3991        185
  26.4362        181
  26.4734        207
  26.5105        189
  26.5477        177
  26.5848        185
  26.6220        179
  26.6591        188
  26.6963        171
  26.7335        174
  26.7706        187
  26.8078        191
  26.8449        211
  26.8821        179
  26.9192        163
  26.9564        191
  26.9935        208
  27.0307        200
  27.0678        176
  27.1050        215
  27.1421        194
  27.1793        239
  27.2164        221
  27.2536        211
  27.2907        189
  27.3279        187
  27.3650        209
  27.4022        173
  27.4393        195
  27.4765        192
  27.5136        179
  27.5508        158
  27.5879        192
  27.6251        173
  27.6622        184
  27.6994        199
  27.7365        210
  27.7737        183
  27.8108        166
  27.8480        171
  27.8851        154
  27.9223        160
  27.9594        169
  27.9966        166
  28.0337        175
  28.0709        145
  28.1080        191
  28.1452        153
  28.1823        153
  28.2195        158
  28.2567        163
  28.2938        166
  28.3310        189
  28.3681        158
  28.4053        176
  28.4424        174
  28.4796        165
  28.5167        156
  28.5539        165
  28.5910        162
  28.6282        164
  28.6653        161
  28.7025        166
  28.7396        147
  28.7768        163
  28.8139        155
  28.8511        142
  28.8882        189
  28.9254        152
  28.9625        133
  28.9997        169
  29.0368        145
  29.0740        160
  29.1111        162
  29.1483        173
  29.1854        153
  29.2226        164
  29.2597        159
  29.2969        152
  29.3340        158
  29.3712        169
  29.4083        182
  29.4455        172
  29.4826        173
  29.5198        142
  29.5569        151
  29.5941        149
  29.6312        171
  29.6684        141
  29.7055        170
  29.7427        143
  29.7799        157
  29.8170        143
  29.8542        174
  29.8913        140
  29.9285        145
  29.9656        158
  30.0028        185
  30.0399        146
  30.0771        160
  30.1142        161
  30.1514        142
  30.1885        168
  30.2257        159
  30.2628        176
  30.3000        179
  30.3371        228
  30.3743        346
  30.4114        222
  30.4486        252
  30.4857        179
  30.5229        144
  30.5600        169
  30.5972        150
  30.6343        155
  30.6715        176
  30.7086        158
  30.7458        137
  30.7829        140
  30.8201        135
  30.8572        130
  30.8944        135
  30.9315        156
  30.9687        141
  31.0058        145
  31.0430        152
  31.0801        139
  31.1173        166
  31.1544        134
  31.1916        139
  31.2287        135
  31.2659        138
  31.3030        126
  31.3402        154
  31.3774        133
  31.4145        138
  31.4517        123
  31.4888        133
  31.5260        135
  31.5631        154
  31.6003        137
  31.6374        123
  31.6746        127
  31.7117        155
  31.7489        137
  31.7860        156
  31.8232        125
  31.8603        125
  31.8975        137
  31.9346        146
  31.9718        110
  32.0089        131
  32.0461        143
  32.0832        122
  32.1204        120
  32.1575        139
  32.1947        131
  32.2318        133
  32.2690        155
  32.3061        141
  32.3433        124
  32.3804        133
  32.4176        141
  32.4547        169
  32.4919        145
  32.5290        139
  32.5662        127
  32.6033        139
  32.6405        131
  32.6776        131
  32.7148        141
  32.7519        147
  32.7891        125
  32.8262        135
  32.8634        120
  32.9006        113
  32.9377        137
  32.9749        115
  33.0120        122
  33.0492        135
  33.0863        126
  33.1235        130
  33.1606        116
  33.1978        120
  33.2349        113
  33.2721        118
  33.3092        120
  33.3464        114
  33.3835        124
  33.4207        121
  33.4578        116
  33.4950        123
  33.5321        119
  33.5693        113
  33.6064        102
  33.6436        102
  33.6807        103
  33.7179         95
  33.7550        107
  33.7922         98
  33.8293        110
  33.8665        113
  33.9036        112
  33.9408        120
  33.9779        121
  34.0151        122
  34.0522        134
  34.0894        103
  34.1265        120
  34.1637        111
  34.2008         98
  34.2380        103
  34.2751        138
  34.3123        132
  34.3494        121
  34.3866        118
  34.4238        115
  34.4609        111
  34.4981        113
  34.5352        113
  34.5724        119
  34.6095        128
  34.6467        149
  34.6838        132
  34.7210        163
  34.7581        161
  34.7953        124
  34.8324        140
  34.8696        124
  34.9067         98
  34.9439        114
  34.9810        113
  35.0182        109
  35.0553        120
  35.0925        109
  35.1296         94
  35.1668        101
  35.2039         95
  35.2411        112
  35.2782         93
  35.3154         88
  35.3525        111
  35.3897        119
  35.4268        101
  35.4640        104
  35.5011        121
  35.5383        116
  35.5754        100
  35.6126        102
  35.6497        101
  35.6869         99
  35.7240        106
  35.7612         89
  35.7983        101
  35.8355        125
  35.8726        106
  35.9098         87
  35.9469         90
  35.9841         72
  36.0213        116
  36.0584         94
  36.0956        106
  36.1327        104
  36.1699        104
  36.2070         92
  36.2442         87
  36.2813        100
  36.3185         99
  36.3556         89
  36.3928         91
  36.4299         89
  36.4671         94
  36.5042         84
  36.5414         73
  36.5785        112
  36.6157         87
  36.6528         98
  36.6900         81
  36.7271         90
  36.7643         84
  36.8014         99
  36.8386        100
  36.8757         82
  36.9129        102
  36.9500        102
  36.9872         94
  37.0243         86
  37.0615         97
  37.0986         90
  37.1358         98
  37.1729         75
  37.2101        101
  37.2472         99
  37.2844         98
  37.3215         81
  37.3587         96
  37.3958        126
  37.4330        159
  37.4701         90
  37.5073        136
  37.5445        125
  37.5816        107
  37.6188        107
  37.6559         96
  37.6931        101
  37.7302        100
  37.7674         77
  37.8045         85
  37.8417         68
  37.8788         78
  37.9160         90
  37.9531         75
  37.9903         94
  38.0274         75
  38.0646         83
  38.1017         73
  38.1389         90
  38.1760         93
  38.2132         83
  38.2503         84
  38.2875         80
  38.3246         78
  38.3618         78
  38.3989         84
  38.4361         85
  38.4732         77
  38.5104         84
  38.5475         75
  38.5847         86
  38.6218         79
  38.6590         91
  38.6961         89
  38.7333         83
  38.7704         88
  38.8076         86
  38.8447         91
  38.8819        101
  38.9190         69
  38.9562         79
  38.9933         78
  39.0305         96
  39.0677         81
  39.1048         81
  39.1420         86
  39.1791        103
  39.2163         69
  39.2534         75
  39.2906         78
  39.3277         72
  39.3649         79
  39.4020         66
  39.4392         88
  39.4763         65
  39.5135         74
  39.5506         79
  39.5878         78
  39.6249         81
  39.6621         69
  39.6992         87
  39.7364         64
  39.7735         76
  39.8107         73
  39.8478         88
  39.8850         74
  39.9221         66
  39.9593         94
  39.9964         82
  40.0336         69
  40.0707         89
  40.1079         79
  40.1450         84
  40.1822         74
  40.2193         92
  40.2565         76
  40.2936         83
  40.3308         67
  40.3679         66
  40.4051         79
  40.4422         77
  40.4794         71
  40.5165         69
  40.5537         93
  40.5908         86
  40.6280         88
  40.6652         77
  40.7023        101
  40.7395         87
  40.7766         78
  40.8138         88
  40.8509         71
  40.8881         62
  40.9252         65
  40.9624         75
  40.9995         79
  41.0367         72
  41.0738         69
  41.1110         88
  41.1481         82
  41.1853         66
  41.2224         86
  41.2596         80
  41.2967         82
  41.3339         81
  41.3710         79
  41.4082         76
  41.4453         94
  41.4825         93
  41.5196         85
  41.5568         93
  41.5939         71
  41.6311         70
  41.6682         76
  41.7054         68
  41.7425         86
  41.7797         61
  41.8168         62
  41.8540         77
  41.8911         67
  41.9283         72
  41.9654         71
  42.0026         78
  42.0397         71
  42.0769         74
  42.1140         86
  42.1512         81
  42.1884         71
  42.2255         66
  42.2627         71
  42.2998         88
  42.3370         87
  42.3741         84
  42.4113         78
  42.4484         79
  42.4856         80
  42.5227         87
  42.5599         82
  42.5970         59
  42.6342         76
  42.6713         78
  42.7085         59
  42.7456         68
  42.7828         84
  42.8199         73
  42.8571         59
  42.8942         78
  42.9314         72
  42.9685         78
  43.0057         65
  43.0428         81
  43.0800         76
  43.1171        100
  43.1543         90
  43.1914         74
  43.2286         91
  43.2657         91
  43.3029         89
  43.3400         80
  43.3772         72
  43.4143         87
  43.4515         96
  43.4886        163
  43.5258         88
  43.5629        101
  43.6001        111
  43.6372         94
  43.6744         80
  43.7116         88
  43.7487         82
  43.7859         80
  43.8230         62
  43.8602         82
  43.8973         59
  43.9345         77
  43.9716         92
  44.0088         63
  44.0459         60
  44.0831         78
  44.1202         70
  44.1574         67
  44.1945         74
  44.2317         62
  44.2688         83
  44.3060         72
  44.3431         85
  44.3803         76
  44.4174         68
  44.4546         76
  44.4917         98
  44.5289         80
  44.5660         85
  44.6032         81
  44.6403         85
  44.6775         81
  44.7146         66
  44.7518         79
  44.7889         69
  44.8261         68
  44.8632         75
  44.9004         80
  44.9375         80
  44.9747         75
  45.0118         68
  45.0490         65
  45.0861         78
  45.1233         64
  45.1604         58
  45.1976         89
  45.2347         73
  45.2719         79
  45.3091         82
  45.3462         62
  45.3834         73
  45.4205         61
  45.4577         69
  45.4948         65
  45.5320         69
  45.5691         61
  45.6063         81
  45.6434         63
  45.6806         79
  45.7177         65
  45.7549         78
  45.7920         75
  45.8292         55
  45.8663         70
  45.9035         72
  45.9406         67
  45.9778         69
  46.0149         67
  46.0521         73
  46.0892         67
  46.1264         68
  46.1635         61
  46.2007         72
  46.2378         66
  46.2750         86
  46.3121         65
  46.3493         73
  46.3864         66
  46.4236         71
  46.4607         60
  46.4979         83
  46.5350         65
  46.5722         71
  46.6093         68
  46.6465         63
  46.6836         70
  46.7208         63
  46.7579         62
  46.7951         51
  46.8323         60
  46.8694         69
  46.9066         48
  46.9437         67
  46.9809         68
  47.0180         60
  47.0552         75
  47.0923         63
  47.1295         62
  47.1666         40
  47.2038         61
  47.2409         66
  47.2781         65
  47.3152         54
  47.3524         61
  47.3895         75
  47.4267         73
  47.4638         80
  47.5010         59
  47.5381         76
  47.5753         58
  47.6124         70
  47.6496         75
  47.6867         67
  47.7239         64
  47.7610         65
  47.7982         68
  47.8353         68
  47.8725         50
  47.9096         68
  47.9468         62
  47.9839         64
  48.0211         70
  48.0582         78
  48.0954         77
  48.1325         73
  48.1697         60
  48.2068         62
  48.2440         62
  48.2811         53
  48.3183         64
  48.3555         57
  48.3926         64
  48.4298         81
  48.4669         49
  48.5041         62
  48.5412         76
  48.5784         69
  48.6155         65
  48.6527         66
  48.6898         49
  48.7270         63
  48.7641         80
  48.8013         75
  48.8384         67
  48.8756         61
  48.9127        102
  48.9499        137
  48.9870         92
  49.0242         80
  49.0613        112
  49.0985         86
  49.1356         81
  49.1728         74
  49.2099         73
  49.2471         71
  49.2842         55
  49.3214         69
  49.3585         72
  49.3957         53
  49.4328         60
  49.4700         59
  49.5071         68
  49.5443         44
  49.5814         69
  49.6186         56
  49.6557         63
  49.6929         58
  49.7300         65
  49.7672         71
  49.8043         57
  49.8415         61
  49.8786         57
  49.9158         63
  49.9530         65
  49.9901         49
  50.0273         69
  50.0644         55
  50.1016         49
  50.1387         61
  50.1759         64
  50.2130         79
  50.2502         71
  50.2873         52
  50.3245         64
  50.3616         54
  50.3988         79
  50.4359         49
  50.4731         58
  50.5102         53
  50.5474         58
  50.5845         65
  50.6217         69
  50.6588         63
  50.6960         53
  50.7331         64
  50.7703         39
  50.8074         64
  50.8446         59
  50.8817         53
  50.9189         75
  50.9560         73
  50.9932         65
  51.0303         61
  51.0675         66
  51.1046         63
  51.1418         64
  51.1789         63
  51.2161         58
  51.2532         63
  51.2904         68
  51.3275         54
  51.3647         58
  51.4018         68
  51.4390         71
  51.4762         65
  51.5133         71
  51.5505         67
  51.5876         58
  51.6248         71
  51.6619         80
  51.6991         73
  51.7362         52
  51.7734         63
  51.8105         77
  51.8477         60
  51.8848         66
  51.9220         73
  51.9591         66
  51.9963         63
  52.0334         54
  52.0706         69
  52.1077         81
  52.1449         55
  52.1820         53
  52.2192         56
  52.2563         64
  52.2935         63
  52.3306         60
  52.3678         54
  52.4049         71
  52.4421         53
  52.4792         58
  52.5164         62
  52.5535         70
  52.5907         55
  52.6278         47
  52.6650         53
  52.7021         48
  52.7393         63
  52.7764         56
  52.8136         53
  52.8507         57
  52.8879         64
  52.9250         42
  52.9622         47
  52.9994         60
  53.0365         55
  53.0737         64
  53.1108         55
  53.1480         77
  53.1851         67
  53.2223         54
  53.2594         64
  53.2966         54
  53.3337         64
  53.3709         47
  53.4080         65
  53.4452         63
  53.4823         57
  53.5195         55
  53.5566         46
  53.5938         61
  53.6309         71
  53.6681         61
  53.7052         59
  53.7424         70
  53.7795         60
  53.8167         59
  53.8538         61
  53.8910         54
  53.9281         66
  53.9653         84
  54.0024         76
  54.0396         58
  54.0767         65
  54.1139         50
  54.1510         76
  54.1882         63
  54.2253         59
  54.2625         62
  54.2996         62
  54.3368         57
  54.3739         54
  54.4111         61
  54.4482         57
  54.4854         54
  54.5225         56
  54.5597         56
  54.5969         64
  54.6340         46
  54.6712         72
  54.7083         42
  54.7455         60
  54.7826         60
  54.8198         60
  54.8569         64
  54.8941         63
  54.9312         56
  54.9684         59
  55.0055         49
  55.0427         74
  55.0798         73
  55.1170         49
  55.1541         53
  55.1913         61
  55.2284         55
  55.2656         49
  55.3027         49
  55.3399         47
  55.3770         53
  55.4142         57
  55.4513         54
  55.4885         45
  55.5256         64
  55.5628         55
  55.5999         65
  55.6371         53
  55.6742         66
  55.7114         65
  55.7485         63
  55.7857         51
  55.8228         57
  55.8600         58
  55.8971         63
  55.9343         52
  55.9714         53
  56.0086         58
  56.0457         53
  56.0829         75
  56.1201         53
  56.1572         57
  56.1944         61
  56.2315         67
  56.2687         59
  56.3058         74
  56.3430         60
  56.3801         65
  56.4173         79
  56.4544         64
  56.4916         46
  56.5287         51
  56.5659         59
  56.6030         47
  56.6402         57
  56.6773         55
  56.7145         47
  56.7516         63
  56.7888         64
  56.8259         38
  56.8631         46
  56.9002         51
  56.9374         58
  56.9745         55
  57.0117         55
  57.0488         55
  57.0860         56
  57.1231         51
  57.1603         50
  57.1974         57
  57.2346         53
  57.2717         52
  57.3089         50
  57.3460         53
  57.3832         58
  57.4203         60
  57.4575         67
  57.4946         61
  57.5318         60
  57.5689         55
  57.6061         60
  57.6433         56
  57.6804         50
  57.7176         64
  57.7547         41
  57.7919         42
  57.8290         65
  57.8662         56
  57.9033         59
  57.9405         59
  57.9776         69
  58.0148         54
  58.0519         58
  58.0891         54
  58.1262         54
  58.1634         55
  58.2005         50
  58.2377         45
  58.2748         59
  58.3120         50
  58.3491         53
  58.3863         48
  58.4234         76
  58.4606         44
  58.4977         58
  58.5349         53
  58.5720         64
  58.6092         64
  58.6463         50
  58.6835         40
  58.7206         56
  58.7578         64
  58.7949         52
  58.8321         49
  58.8692         64
  58.9064         54
  58.9435         51
  58.9807         63
  59.0178         38
  59.0550         68
  59.0921         50
  59.1293         54
  59.1664         52
  59.2036         62
  59.2408         49
  59.2779         52
  59.3151         62
  59.3522         66
  59.3894         52
  59.4265         77
  59.4637         48
  59.5008         47
  59.5380         62
  59.5751         46
  59.6123         54
  59.6494         45
  59.6866         57
  59.7237         46
  59.7609         54
  59.7980         58
  59.8352         50
  59.8723         51
  59.9095         69
  59.9466         58
  59.9838         42
  60.0024         43