File: notebooks/data/xrd_data/ML_20220718_45_SJD_4_LaB6-2min.uxd
; (content of file Y:\Sam\Apurva-07-20-2022\puck4\ML_20220718_45_SJD_4_LaB6-2min.raw)
_FILEVERSION = 3
_SAMPLE = ML_20220718_45_SJD_4_LaB6-2min
_+SAMPLE =
_SITE = USA
_USER = Administrator
_GONIOMETER_CODE = 20
; Goniometer : D8 theta/2theta, stage : Unknown
_ATTACHMENTS_CODE = 0
_GONIOMETER_RADIUS = 200.5
_FIXED_DIVSLIT = 0.6
_FIXED_SAMPLESLIT = 0
_SOLLER_SLITS = 2
_FIXED_DETSLIT = 9.55
_MONOCHROMATOR = 0
; Incident beam monochromator : None
_SOLLER_SLITS_2 = N
_THIN_FILM = N
_BETA_FILTER = Y
_FIXED_ANTISLIT = 5.89
_ANALYZER_CODE = 0
; Received beam analyzer : None
_DATEMEASURED = "26-Jul-2022 12:15:41"
_WL_UNIT = A
_WL1 = 1.5406
_WL2 = 1.54439
_WL3 = 1.39222
_WLRATIO = 0.5
_ANODE = Cu
_V4_INF_CREATOR = XRDWizard
_V4_INF_CREATOR_VERSION = V2.9.0.22
_V4_INF_WIZARD_VERSION = V2.9.0.22
_V4_INF_WIZARD_ADDINS = V2.9.0.22
_V4_INF_WIZARD_DOCTYPE = XRD
_V4_INF_OSUSER = McQueenLab
_V4_INF_USER = Administrator
_V4_INF_SITE = USA
_V4_INF_SAMPLEID = ML_20220718_45_SJD_4_LaB6-2min

; Data for range 1
_DRIVE = COUPLED
_STEPTIME = 5.64
_STEPSIZE = 0.0185756
_STEPMODE = C
_START = 5
_THETA = 2.5
_2THETA = 5
_KHI = 0
_PHI = 0
_X = 0
_Y = 0
_Z = 0
_DETECTOR = 5
; Detector type : Unknown
_DETECTORSLIT = unkn
_AUX1 = 0
_AUX2 = 0
_AUX3 = 0
_TIMESTARTED = 15
_TEMP_RATE = -1
_TEMP_DELAY = -1
_KV = 40
_MA = 40
_RANGE_WL = 1.5406
_3DPLANE = 0
_V4_ADDITIONALDETECTOR = 257
_V4_PSD2THETA = 3.4135
_V4_PSDCHANNEL1 = 0
_V4_PSDAPERTURE = 12.68
_V4_PSDTYPE = 5
_V4_PSDFIXED = 0
_V4_COUNTERS_MASK = 4096
_V4_DRIVES_MASK = 0
_V4_ENCODERS_MASK = 0
_2THETACOUNTS = 1
; 2THETA  PSD
   5.0000        133
   5.0372        143
   5.0743        122
   5.1115        121
   5.1486        110
   5.1858        135
   5.2229        125
   5.2601        133
   5.2972        112
   5.3344        117
   5.3715        118
   5.4087        100
   5.4458        114
   5.4830        126
   5.5201         90
   5.5573         91
   5.5944        121
   5.6316        102
   5.6687        101
   5.7059         92
   5.7430        107
   5.7802         96
   5.8173         96
   5.8545        101
   5.8916        104
   5.9288         98
   5.9659        104
   6.0031         87
   6.0402         80
   6.0774        109
   6.1145        110
   6.1517         92
   6.1888        111
   6.2260         72
   6.2631        100
   6.3003         92
   6.3374         81
   6.3746         85
   6.4117         80
   6.4489        107
   6.4860         80
   6.5232        103
   6.5604         72
   6.5975        100
   6.6347         79
   6.6718         84
   6.7090         86
   6.7461         69
   6.7833         73
   6.8204         74
   6.8576         78
   6.8947         86
   6.9319         67
   6.9690         97
   7.0062         81
   7.0433         88
   7.0805         80
   7.1176         75
   7.1548         98
   7.1919         83
   7.2291         87
   7.2662         71
   7.3034         69
   7.3405         80
   7.3777         84
   7.4148         58
   7.4520         76
   7.4891         78
   7.5263         76
   7.5634         68
   7.6006         66
   7.6377         92
   7.6749         92
   7.7120         91
   7.7492         76
   7.7863         82
   7.8235         92
   7.8606         92
   7.8978         79
   7.9349        100
   7.9721         90
   8.0092         95
   8.0464        100
   8.0835         92
   8.1207         79
   8.1579        106
   8.1950         80
   8.2322        102
   8.2693         89
   8.3065         97
   8.3436         92
   8.3808        101
   8.4179         93
   8.4551         96
   8.4922        105
   8.5294        110
   8.5665         92
   8.6037        110
   8.6408        112
   8.6780        104
   8.7151        107
   8.7523        114
   8.7894         93
   8.8266        116
   8.8637        115
   8.9009         98
   8.9380        101
   8.9752        120
   9.0123        113
   9.0495         95
   9.0866         92
   9.1238         94
   9.1609        120
   9.1981         87
   9.2352        114
   9.2724        105
   9.3095        135
   9.3467        108
   9.3838        106
   9.4210        126
   9.4581        149
   9.4953         95
   9.5324        121
   9.5696        102
   9.6067        101
   9.6439        105
   9.6811         98
   9.7182         93
   9.7554        112
   9.7925        110
   9.8297        123
   9.8668        123
   9.9040        119
   9.9411         96
   9.9783        125
  10.0154        121
  10.0526        111
  10.0897        116
  10.1269        113
  10.1640        120
  10.2012        109
  10.2383        118
  10.2755        127
  10.3126        105
  10.3498        108
  10.3869        117
  10.4241        127
  10.4612        133
  10.4984        121
  10.5355        123
  10.5727        120
  10.6098        112
  10.6470        113
  10.6841        121
  10.7213        126
  10.7584        137
  10.7956        127
  10.8327        134
  10.8699        127
  10.9070        122
  10.9442        134
  10.9813        107
  11.0185        104
  11.0556        122
  11.0928        105
  11.1299        126
  11.1671        112
  11.2043        124
  11.2414        141
  11.2786        102
  11.3157        124
  11.3529         88
  11.3900        128
  11.4272        133
  11.4643        142
  11.5015        123
  11.5386        114
  11.5758        118
  11.6129        118
  11.6501        122
  11.6872        126
  11.7244        110
  11.7615        117
  11.7987        109
  11.8358        107
  11.8730        111
  11.9101        110
  11.9473        141
  11.9844        118
  12.0216        121
  12.0587         96
  12.0959        126
  12.1330        126
  12.1702         96
  12.2073        119
  12.2445        101
  12.2816         99
  12.3188        109
  12.3559        106
  12.3931        108
  12.4302        115
  12.4674         99
  12.5045        107
  12.5417        114
  12.5788        107
  12.6160        107
  12.6531        107
  12.6903         95
  12.7274        111
  12.7646        115
  12.8018        111
  12.8389         99
  12.8761         95
  12.9132         97
  12.9504        103
  12.9875        104
  13.0247        100
  13.0618         96
  13.0990        102
  13.1361         87
  13.1733        106
  13.2104        105
  13.2476        113
  13.2847        105
  13.3219         98
  13.3590         92
  13.3962         98
  13.4333         91
  13.4705         93
  13.5076         94
  13.5448         93
  13.5819         97
  13.6191         95
  13.6562         88
  13.6934         87
  13.7305        102
  13.7677         92
  13.8048         85
  13.8420        106
  13.8791         73
  13.9163         81
  13.9534         96
  13.9906         89
  14.0277         89
  14.0649        104
  14.1020         86
  14.1392         98
  14.1763         73
  14.2135         84
  14.2506         89
  14.2878         84
  14.3250         75
  14.3621         86
  14.3993         87
  14.4364         78
  14.4736         89
  14.5107         97
  14.5479         89
  14.5850         67
  14.6222         96
  14.6593         86
  14.6965         78
  14.7336         79
  14.7708         86
  14.8079         78
  14.8451         79
  14.8822         75
  14.9194         98
  14.9565         83
  14.9937         70
  15.0308         84
  15.0680         91
  15.1051         98
  15.1423         80
  15.1794         73
  15.2166         86
  15.2537         88
  15.2909         93
  15.3280         78
  15.3652         84
  15.4023         66
  15.4395         84
  15.4766         70
  15.5138         81
  15.5509         83
  15.5881         89
  15.6252         81
  15.6624         84
  15.6995         95
  15.7367         80
  15.7738         73
  15.8110         63
  15.8482         76
  15.8853         93
  15.9225         86
  15.9596         80
  15.9968         98
  16.0339         95
  16.0711         82
  16.1082         67
  16.1454         61
  16.1825        101
  16.2197         80
  16.2568         71
  16.2940         94
  16.3311         75
  16.3683         78
  16.4054         80
  16.4426         80
  16.4797         92
  16.5169         95
  16.5540         80
  16.5912         87
  16.6283         67
  16.6655         84
  16.7026         78
  16.7398         85
  16.7769         89
  16.8141         85
  16.8512         72
  16.8884         80
  16.9255         83
  16.9627         76
  16.9998         95
  17.0370         68
  17.0741         62
  17.1113         79
  17.1484         98
  17.1856         63
  17.2227         89
  17.2599         94
  17.2970         76
  17.3342         81
  17.3713         78
  17.4085         76
  17.4457         60
  17.4828         75
  17.5200         75
  17.5571         96
  17.5943         73
  17.6314         74
  17.6686         82
  17.7057         72
  17.7429         85
  17.7800         81
  17.8172         70
  17.8543         74
  17.8915         79
  17.9286         84
  17.9658         65
  18.0029         79
  18.0401         80
  18.0772         98
  18.1144         82
  18.1515         85
  18.1887         90
  18.2258         75
  18.2630         99
  18.3001         71
  18.3373         69
  18.3744         77
  18.4116         83
  18.4487         80
  18.4859         93
  18.5230         62
  18.5602         84
  18.5973         69
  18.6345         87
  18.6716         86
  18.7088        100
  18.7459         90
  18.7831         82
  18.8202         78
  18.8574         93
  18.8945         81
  18.9317         70
  18.9689         93
  19.0060         81
  19.0432         80
  19.0803         81
  19.1175         69
  19.1546         72
  19.1918         91
  19.2289         90
  19.2661         78
  19.3032         85
  19.3404         82
  19.3775         83
  19.4147         90
  19.4518         86
  19.4890         75
  19.5261         89
  19.5633         88
  19.6004         75
  19.6376         78
  19.6747         80
  19.7119         98
  19.7490        101
  19.7862        109
  19.8233         92
  19.8605         86
  19.8976         80
  19.9348         83
  19.9719        100
  20.0091         79
  20.0462        105
  20.0834         93
  20.1205         92
  20.1577         91
  20.1948         89
  20.2320         86
  20.2691         85
  20.3063         85
  20.3434         97
  20.3806         97
  20.4177        102
  20.4549         69
  20.4921         91
  20.5292         67
  20.5664         90
  20.6035         84
  20.6407         82
  20.6778         97
  20.7150         88
  20.7521         95
  20.7893         94
  20.8264         98
  20.8636        120
  20.9007        101
  20.9379         95
  20.9750         97
  21.0122        102
  21.0493        107
  21.0865        104
  21.1236        120
  21.1608        103
  21.1979        132
  21.2351        170
  21.2722        171
  21.3094        140
  21.3465        261
  21.3837        203
  21.4208        184
  21.4580        110
  21.4951        103
  21.5323        105
  21.5694        103
  21.6066        104
  21.6437         89
  21.6809         88
  21.7180         92
  21.7552         98
  21.7923         84
  21.8295         86
  21.8666        103
  21.9038         84
  21.9409         98
  21.9781        100
  22.0152        114
  22.0524         81
  22.0896         87
  22.1267         98
  22.1639        100
  22.2010         86
  22.2382         94
  22.2753         95
  22.3125        105
  22.3496         87
  22.3868        100
  22.4239         88
  22.4611        112
  22.4982         95
  22.5354        110
  22.5725         85
  22.6097        107
  22.6468         83
  22.6840        102
  22.7211        102
  22.7583        104
  22.7954         96
  22.8326         85
  22.8697         95
  22.9069         91
  22.9440         80
  22.9812        104
  23.0183        101
  23.0555        105
  23.0926        121
  23.1298        105
  23.1669         88
  23.2041        110
  23.2412        111
  23.2784         92
  23.3155         95
  23.3527         86
  23.3898         88
  23.4270         97
  23.4641        118
  23.5013         78
  23.5384        100
  23.5756         93
  23.6128         99
  23.6499         98
  23.6871         96
  23.7242        110
  23.7614         80
  23.7985        103
  23.8357        120
  23.8728        113
  23.9100         95
  23.9471        117
  23.9843        100
  24.0214        109
  24.0586         91
  24.0957         98
  24.1329        110
  24.1700        127
  24.2072        108
  24.2443        117
  24.2815         98
  24.3186        104
  24.3558        109
  24.3929        117
  24.4301         92
  24.4672         94
  24.5044         99
  24.5415         99
  24.5787         98
  24.6158         96
  24.6530        112
  24.6901        100
  24.7273         95
  24.7644         87
  24.8016        115
  24.8387        106
  24.8759        107
  24.9130         85
  24.9502         73
  24.9873        112
  25.0245        101
  25.0616        102
  25.0988        106
  25.1360         98
  25.1731         93
  25.2103        106
  25.2474         92
  25.2846         91
  25.3217         96
  25.3589         87
  25.3960        109
  25.4332        111
  25.4703         89
  25.5075         98
  25.5446         97
  25.5818         89
  25.6189         97
  25.6561         84
  25.6932        102
  25.7304         96
  25.7675        110
  25.8047         94
  25.8418         90
  25.8790        103
  25.9161         86
  25.9533        100
  25.9904        104
  26.0276        118
  26.0647        101
  26.1019         94
  26.1390         90
  26.1762         93
  26.2133         89
  26.2505         85
  26.2876         90
  26.3248         81
  26.3619        100
  26.3991        107
  26.4362         96
  26.4734         80
  26.5105        110
  26.5477         86
  26.5848         83
  26.6220        112
  26.6591         90
  26.6963        102
  26.7335        106
  26.7706         86
  26.8078         80
  26.8449         76
  26.8821        109
  26.9192         94
  26.9564        103
  26.9935         83
  27.0307         88
  27.0678         88
  27.1050         91
  27.1421         95
  27.1793        121
  27.2164        108
  27.2536        105
  27.2907        111
  27.3279         88
  27.3650         89
  27.4022        101
  27.4393         91
  27.4765         85
  27.5136         94
  27.5508         80
  27.5879         71
  27.6251         82
  27.6622         80
  27.6994         97
  27.7365        107
  27.7737        100
  27.8108         83
  27.8480         76
  27.8851        101
  27.9223         93
  27.9594         95
  27.9966         89
  28.0337         74
  28.0709         77
  28.1080         92
  28.1452         95
  28.1823         95
  28.2195         76
  28.2567         78
  28.2938         83
  28.3310         97
  28.3681         91
  28.4053         73
  28.4424         89
  28.4796         81
  28.5167         74
  28.5539         69
  28.5910         78
  28.6282         89
  28.6653         75
  28.7025         87
  28.7396        105
  28.7768         76
  28.8139         72
  28.8511         78
  28.8882         67
  28.9254         76
  28.9625         87
  28.9997         67
  29.0368        103
  29.0740         84
  29.1111         77
  29.1483         74
  29.1854         69
  29.2226         78
  29.2597         79
  29.2969         67
  29.3340         86
  29.3712         80
  29.4083         81
  29.4455         93
  29.4826         66
  29.5198         81
  29.5569         77
  29.5941         76
  29.6312         83
  29.6684         64
  29.7055         91
  29.7427         78
  29.7799         73
  29.8170         68
  29.8542         90
  29.8913         80
  29.9285         85
  29.9656         77
  30.0028         83
  30.0399         59
  30.0771         78
  30.1142         56
  30.1514         77
  30.1885         66
  30.2257         55
  30.2628         85
  30.3000         97
  30.3371         85
  30.3743        156
  30.4114        148
  30.4486        130
  30.4857         99
  30.5229         83
  30.5600         83
  30.5972         78
  30.6343         84
  30.6715         71
  30.7086         70
  30.7458         70
  30.7829         71
  30.8201         75
  30.8572         75
  30.8944         57
  30.9315         76
  30.9687         75
  31.0058         66
  31.0430         65
  31.0801         72
  31.1173         86
  31.1544         60
  31.1916         64
  31.2287         71
  31.2659         68
  31.3030         69
  31.3402         67
  31.3774         63
  31.4145         68
  31.4517         70
  31.4888         59
  31.5260         45
  31.5631         66
  31.6003         71
  31.6374         62
  31.6746         73
  31.7117         50
  31.7489         67
  31.7860         71
  31.8232         64
  31.8603         64
  31.8975         73
  31.9346         53
  31.9718         64
  32.0089         58
  32.0461         53
  32.0832         65
  32.1204         77
  32.1575         65
  32.1947         68
  32.2318         56
  32.2690         60
  32.3061         65
  32.3433         62
  32.3804         64
  32.4176         68
  32.4547         71
  32.4919         70
  32.5290         74
  32.5662         64
  32.6033         66
  32.6405         63
  32.6776         76
  32.7148         60
  32.7519         58
  32.7891         60
  32.8262         49
  32.8634         59
  32.9006         55
  32.9377         48
  32.9749         65
  33.0120         70
  33.0492         55
  33.0863         53
  33.1235         64
  33.1606         54
  33.1978         57
  33.2349         62
  33.2721         66
  33.3092         64
  33.3464         54
  33.3835         78
  33.4207         63
  33.4578         68
  33.4950         58
  33.5321         66
  33.5693         43
  33.6064         57
  33.6436         53
  33.6807         64
  33.7179         55
  33.7550         63
  33.7922         54
  33.8293         59
  33.8665         78
  33.9036         52
  33.9408         57
  33.9779         47
  34.0151         54
  34.0522         56
  34.0894         51
  34.1265         69
  34.1637         36
  34.2008         65
  34.2380         64
  34.2751         56
  34.3123         47
  34.3494         55
  34.3866         54
  34.4238         50
  34.4609         59
  34.4981         60
  34.5352         49
  34.5724         64
  34.6095         57
  34.6467         61
  34.6838         64
  34.7210         71
  34.7581         77
  34.7953         71
  34.8324         74
  34.8696         72
  34.9067         59
  34.9439         54
  34.9810         62
  35.0182         57
  35.0553         63
  35.0925         62
  35.1296         42
  35.1668         34
  35.2039         46
  35.2411         47
  35.2782         56
  35.3154         42
  35.3525         59
  35.3897         47
  35.4268         48
  35.4640         46
  35.5011         54
  35.5383         49
  35.5754         43
  35.6126         38
  35.6497         51
  35.6869         46
  35.7240         47
  35.7612         51
  35.7983         52
  35.8355         47
  35.8726         58
  35.9098         41
  35.9469         57
  35.9841         43
  36.0213         44
  36.0584         47
  36.0956         50
  36.1327         47
  36.1699         48
  36.2070         59
  36.2442         51
  36.2813         45
  36.3185         58
  36.3556         35
  36.3928         34
  36.4299         33
  36.4671         48
  36.5042         47
  36.5414         49
  36.5785         46
  36.6157         46
  36.6528         44
  36.6900         53
  36.7271         43
  36.7643         54
  36.8014         49
  36.8386         54
  36.8757         40
  36.9129         53
  36.9500         55
  36.9872         47
  37.0243         46
  37.0615         33
  37.0986         53
  37.1358         45
  37.1729         53
  37.2101         52
  37.2472         47
  37.2844         49
  37.3215         41
  37.3587         51
  37.3958         63
  37.4330         65
  37.4701         66
  37.5073         58
  37.5445         61
  37.5816         40
  37.6188         43
  37.6559         48
  37.6931         31
  37.7302         57
  37.7674         42
  37.8045         44
  37.8417         43
  37.8788         46
  37.9160         42
  37.9531         52
  37.9903         50
  38.0274         44
  38.0646         52
  38.1017         48
  38.1389         42
  38.1760         37
  38.2132         47
  38.2503         48
  38.2875         44
  38.3246         43
  38.3618         29
  38.3989         46
  38.4361         39
  38.4732         38
  38.5104         29
  38.5475         37
  38.5847         51
  38.6218         34
  38.6590         46
  38.6961         54
  38.7333         46
  38.7704         36
  38.8076         46
  38.8447         39
  38.8819         37
  38.9190         34
  38.9562         52
  38.9933         51
  39.0305         44
  39.0677         51
  39.1048         52
  39.1420         34
  39.1791         42
  39.2163         49
  39.2534         39
  39.2906         37
  39.3277         33
  39.3649         43
  39.4020         41
  39.4392         41
  39.4763         34
  39.5135         30
  39.5506         36
  39.5878         44
  39.6249         31
  39.6621         34
  39.6992         39
  39.7364         52
  39.7735         36
  39.8107         40
  39.8478         44
  39.8850         37
  39.9221         35
  39.9593         40
  39.9964         27
  40.0336         28
  40.0707         32
  40.1079         34
  40.1450         32
  40.1822         33
  40.2193         43
  40.2565         37
  40.2936         48
  40.3308         30
  40.3679         43
  40.4051         40
  40.4422         40
  40.4794         31
  40.5165         49
  40.5537         37
  40.5908         33
  40.6280         51
  40.6652         42
  40.7023         36
  40.7395         44
  40.7766         30
  40.8138         44
  40.8509         31
  40.8881         31
  40.9252         47
  40.9624         45
  40.9995         25
  41.0367         41
  41.0738         44
  41.1110         36
  41.1481         33
  41.1853         44
  41.2224         34
  41.2596         39
  41.2967         41
  41.3339         46
  41.3710         37
  41.4082         38
  41.4453         28
  41.4825         28
  41.5196         40
  41.5568         32
  41.5939         39
  41.6311         44
  41.6682         33
  41.7054         35
  41.7425         28
  41.7797         35
  41.8168         40
  41.8540         21
  41.8911         27
  41.9283         42
  41.9654         42
  42.0026         38
  42.0397         33
  42.0769         34
  42.1140         31
  42.1512         44
  42.1884         40
  42.2255         34
  42.2627         46
  42.2998         36
  42.3370         33
  42.3741         33
  42.4113         41
  42.4484         42
  42.4856         31
  42.5227         37
  42.5599         43
  42.5970         34
  42.6342         35
  42.6713         32
  42.7085         45
  42.7456         39
  42.7828         32
  42.8199         43
  42.8571         36
  42.8942         41
  42.9314         32
  42.9685         35
  43.0057         33
  43.0428         50
  43.0800         38
  43.1171         35
  43.1543         29
  43.1914         45
  43.2286         40
  43.2657         30
  43.3029         37
  43.3400         37
  43.3772         34
  43.4143         42
  43.4515         40
  43.4886         55
  43.5258         57
  43.5629         51
  43.6001         51
  43.6372         46
  43.6744         38
  43.7116         41
  43.7487         33
  43.7859         40
  43.8230         34
  43.8602         43
  43.8973         19
  43.9345         51
  43.9716         32
  44.0088         43
  44.0459         38
  44.0831         39
  44.1202         26
  44.1574         40
  44.1945         33
  44.2317         35
  44.2688         47
  44.3060         48
  44.3431         42
  44.3803         37
  44.4174         29
  44.4546         44
  44.4917         41
  44.5289         38
  44.5660         46
  44.6032         36
  44.6403         33
  44.6775         34
  44.7146         37
  44.7518         38
  44.7889         51
  44.8261         33
  44.8632         28
  44.9004         38
  44.9375         35
  44.9747         32
  45.0118         25
  45.0490         33
  45.0861         26
  45.1233         23
  45.1604         33
  45.1976         29
  45.2347         37
  45.2719         27
  45.3091         37
  45.3462         39
  45.3834         23
  45.4205         39
  45.4577         25
  45.4948         41
  45.5320         40
  45.5691         33
  45.6063         46
  45.6434         33
  45.6806         32
  45.7177         34
  45.7549         43
  45.7920         27
  45.8292         33
  45.8663         33
  45.9035         39
  45.9406         42
  45.9778         27
  46.0149         40
  46.0521         42
  46.0892         24
  46.1264         28
  46.1635         27
  46.2007         28
  46.2378         37
  46.2750         26
  46.3121         28
  46.3493         39
  46.3864         27
  46.4236         34
  46.4607         34
  46.4979         35
  46.5350         29
  46.5722         31
  46.6093         28
  46.6465         30
  46.6836         29
  46.7208         24
  46.7579         32
  46.7951         22
  46.8323         36
  46.8694         31
  46.9066         39
  46.9437         33
  46.9809         30
  47.0180         39
  47.0552         31
  47.0923         26
  47.1295         31
  47.1666         30
  47.2038         32
  47.2409         29
  47.2781         33
  47.3152         35
  47.3524         38
  47.3895         31
  47.4267         28
  47.4638         28
  47.5010         33
  47.5381         33
  47.5753         38
  47.6124         30
  47.6496         36
  47.6867         37
  47.7239         36
  47.7610         40
  47.7982         30
  47.8353         25
  47.8725         38
  47.9096         39
  47.9468         30
  47.9839         35
  48.0211         28
  48.0582         46
  48.0954         38
  48.1325         24
  48.1697         26
  48.2068         30
  48.2440         31
  48.2811         28
  48.3183         31
  48.3555         26
  48.3926         30
  48.4298         30
  48.4669         30
  48.5041         32
  48.5412         28
  48.5784         28
  48.6155         22
  48.6527         42
  48.6898         31
  48.7270         29
  48.7641         38
  48.8013         32
  48.8384         37
  48.8756         30
  48.9127         32
  48.9499         78
  48.9870         55
  49.0242         44
  49.0613         36
  49.0985         37
  49.1356         39
  49.1728         38
  49.2099         36
  49.2471         25
  49.2842         29
  49.3214         30
  49.3585         39
  49.3957         24
  49.4328         36
  49.4700         39
  49.5071         30
  49.5443         34
  49.5814         25
  49.6186         27
  49.6557         24
  49.6929         23
  49.7300         31
  49.7672         33
  49.8043         25
  49.8415         29
  49.8786         34
  49.9158         23
  49.9530         28
  49.9901         35
  50.0273         21
  50.0644         31
  50.1016         27
  50.1387         36
  50.1759         34
  50.2130         31
  50.2502         33
  50.2873         35
  50.3245         28
  50.3616         38
  50.3988         41
  50.4359         35
  50.4731         27
  50.5102         29
  50.5474         32
  50.5845         38
  50.6217         26
  50.6588         23
  50.6960         28
  50.7331         22
  50.7703         29
  50.8074         41
  50.8446         20
  50.8817         26
  50.9189         37
  50.9560         31
  50.9932         32
  51.0303         34
  51.0675         32
  51.1046         32
  51.1418         33
  51.1789         18
  51.2161         25
  51.2532         22
  51.2904         19
  51.3275         30
  51.3647         26
  51.4018         36
  51.4390         35
  51.4762         41
  51.5133         29
  51.5505         46
  51.5876         31
  51.6248         38
  51.6619         29
  51.6991         24
  51.7362         32
  51.7734         38
  51.8105         42
  51.8477         33
  51.8848         36
  51.9220         31
  51.9591         26
  51.9963         30
  52.0334         36
  52.0706         35
  52.1077         22
  52.1449         31
  52.1820         28
  52.2192         22
  52.2563         27
  52.2935         29
  52.3306         29
  52.3678         29
  52.4049         35
  52.4421         27
  52.4792         21
  52.5164         22
  52.5535         20
  52.5907         32
  52.6278         27
  52.6650         32
  52.7021         35
  52.7393         38
  52.7764         39
  52.8136         26
  52.8507         27
  52.8879         30
  52.9250         36
  52.9622         38
  52.9994         35
  53.0365         38
  53.0737         33
  53.1108         30
  53.1480         29
  53.1851         28
  53.2223         31
  53.2594         36
  53.2966         19
  53.3337         24
  53.3709         34
  53.4080         35
  53.4452         20
  53.4823         34
  53.5195         34
  53.5566         29
  53.5938         31
  53.6309         33
  53.6681         26
  53.7052         33
  53.7424         26
  53.7795         21
  53.8167         22
  53.8538         24
  53.8910         23
  53.9281         29
  53.9653         40
  54.0024         32
  54.0396         23
  54.0767         34
  54.1139         32
  54.1510         35
  54.1882         25
  54.2253         36
  54.2625         27
  54.2996         36
  54.3368         26
  54.3739         32
  54.4111         24
  54.4482         26
  54.4854         31
  54.5225         24
  54.5597         23
  54.5969         28
  54.6340         34
  54.6712         24
  54.7083         29
  54.7455         31
  54.7826         29
  54.8198         21
  54.8569         26
  54.8941         25
  54.9312         35
  54.9684         27
  55.0055         33
  55.0427         24
  55.0798         24
  55.1170         23
  55.1541         28
  55.1913         26
  55.2284         23
  55.2656         34
  55.3027         19
  55.3399         31
  55.3770         30
  55.4142         23
  55.4513         28
  55.4885         26
  55.5256         35
  55.5628         26
  55.5999         26
  55.6371         24
  55.6742         23
  55.7114         21
  55.7485         21
  55.7857         31
  55.8228         26
  55.8600         27
  55.8971         29
  55.9343         30
  55.9714         29
  56.0086         26
  56.0457         23
  56.0829         29
  56.1201         35
  56.1572         22
  56.1944         24
  56.2315         30
  56.2687         26
  56.3058         28
  56.3430         33
  56.3801         24
  56.4173         29
  56.4544         24
  56.4916         21
  56.5287         26
  56.5659         19
  56.6030         30
  56.6402         41
  56.6773         29
  56.7145         30
  56.7516         16
  56.7888         31
  56.8259         31
  56.8631         30
  56.9002         28
  56.9374         37
  56.9745         21
  57.0117         33
  57.0488         26
  57.0860         28
  57.1231         18
  57.1603         37
  57.1974         27
  57.2346         23
  57.2717         33
  57.3089         18
  57.3460         27
  57.3832         34
  57.4203         19
  57.4575         22
  57.4946         27
  57.5318         30
  57.5689         26
  57.6061         29
  57.6433         28
  57.6804         25
  57.7176         24
  57.7547         26
  57.7919         27
  57.8290         25
  57.8662         22
  57.9033         29
  57.9405         20
  57.9776         25
  58.0148         26
  58.0519         22
  58.0891         23
  58.1262         27
  58.1634         22
  58.2005         28
  58.2377         26
  58.2748         23
  58.3120         17
  58.3491         26
  58.3863         26
  58.4234         38
  58.4606         25
  58.4977         23
  58.5349         30
  58.5720         28
  58.6092         23
  58.6463         30
  58.6835         26
  58.7206         19
  58.7578         35
  58.7949         28
  58.8321         21
  58.8692         28
  58.9064         35
  58.9435         24
  58.9807         21
  59.0178         21
  59.0550         22
  59.0921         29
  59.1293         31
  59.1664         19
  59.2036         25
  59.2408         28
  59.2779         30
  59.3151         25
  59.3522         28
  59.3894         33
  59.4265         18
  59.4637         24
  59.5008         21
  59.5380         30
  59.5751         32
  59.6123         23
  59.6494         28
  59.6866         25
  59.7237         30
  59.7609         22
  59.7980         31
  59.8352         24
  59.8723         27
  59.9095         34
  59.9466         17
  59.9838         31
  60.0024         40