File: notebooks/data/xrd_data/ML_20220718_52_SJD_4_LaB6-4min.uxd
; (content of file Y:\Sam\Apurva-07-20-2022\puck4\ML_20220718_52_SJD_4_LaB6-4min.raw)
_FILEVERSION = 3
_SAMPLE = ML_20220718_52_SJD_4_LaB6-4min
_+SAMPLE =
_SITE = USA
_USER = Administrator
_GONIOMETER_CODE = 20
; Goniometer : D8 theta/2theta, stage : Unknown
_ATTACHMENTS_CODE = 0
_GONIOMETER_RADIUS = 200.5
_FIXED_DIVSLIT = 0.6
_FIXED_SAMPLESLIT = 0
_SOLLER_SLITS = 2
_FIXED_DETSLIT = 9.55
_MONOCHROMATOR = 0
; Incident beam monochromator : None
_SOLLER_SLITS_2 = N
_THIN_FILM = N
_BETA_FILTER = Y
_FIXED_ANTISLIT = 5.89
_ANALYZER_CODE = 0
; Received beam analyzer : None
_DATEMEASURED = "26-Jul-2022 14:09:44"
_WL_UNIT = A
_WL1 = 1.5406
_WL2 = 1.54439
_WL3 = 1.39222
_WLRATIO = 0.5
_ANODE = Cu
_V4_INF_CREATOR = XRDWizard
_V4_INF_CREATOR_VERSION = V2.9.0.22
_V4_INF_WIZARD_VERSION = V2.9.0.22
_V4_INF_WIZARD_ADDINS = V2.9.0.22
_V4_INF_WIZARD_DOCTYPE = XRD
_V4_INF_OSUSER = McQueenLab
_V4_INF_USER = Administrator
_V4_INF_SITE = USA
_V4_INF_SAMPLEID = ML_20220718_52_SJD_4_LaB6-4min

; Data for range 1
_DRIVE = COUPLED
_STEPTIME = 11.28
_STEPSIZE = 0.0185756
_STEPMODE = C
_START = 5
_THETA = 2.5
_2THETA = 5
_KHI = 0
_PHI = 0
_X = 0
_Y = 0
_Z = 0
_DETECTOR = 5
; Detector type : Unknown
_DETECTORSLIT = unkn
_AUX1 = 0
_AUX2 = 0
_AUX3 = 0
_TIMESTARTED = 15
_TEMP_RATE = -1
_TEMP_DELAY = -1
_KV = 40
_MA = 40
_RANGE_WL = 1.5406
_3DPLANE = 0
_V4_ADDITIONALDETECTOR = 257
_V4_PSD2THETA = 3.3662
_V4_PSDCHANNEL1 = 0
_V4_PSDAPERTURE = 12.68
_V4_PSDTYPE = 5
_V4_PSDFIXED = 0
_V4_COUNTERS_MASK = 4096
_V4_DRIVES_MASK = 0
_V4_ENCODERS_MASK = 0
_2THETACOUNTS = 1
; 2THETA  PSD
   5.0000        270
   5.0372        265
   5.0743        270
   5.1115        241
   5.1486        267
   5.1858        245
   5.2229        256
   5.2601        224
   5.2972        235
   5.3344        231
   5.3715        227
   5.4087        240
   5.4458        225
   5.4830        251
   5.5201        230
   5.5573        212
   5.5944        221
   5.6316        211
   5.6687        217
   5.7059        224
   5.7430        223
   5.7802        207
   5.8173        193
   5.8545        214
   5.8916        249
   5.9288        209
   5.9659        201
   6.0031        180
   6.0402        201
   6.0774        188
   6.1145        182
   6.1517        196
   6.1888        195
   6.2260        183
   6.2631        193
   6.3003        199
   6.3374        171
   6.3746        194
   6.4117        158
   6.4489        178
   6.4860        165
   6.5232        188
   6.5604        175
   6.5975        154
   6.6347        161
   6.6718        169
   6.7090        157
   6.7461        167
   6.7833        168
   6.8204        159
   6.8576        158
   6.8947        183
   6.9319        181
   6.9690        169
   7.0062        180
   7.0433        180
   7.0805        143
   7.1176        161
   7.1548        136
   7.1919        151
   7.2291        159
   7.2662        159
   7.3034        154
   7.3405        148
   7.3777        149
   7.4148        158
   7.4520        162
   7.4891        172
   7.5263        151
   7.5634        196
   7.6006        162
   7.6377        179
   7.6749        177
   7.7120        214
   7.7492        194
   7.7863        171
   7.8235        171
   7.8606        169
   7.8978        173
   7.9349        192
   7.9721        176
   8.0092        172
   8.0464        185
   8.0835        203
   8.1207        190
   8.1579        190
   8.1950        203
   8.2322        191
   8.2693        175
   8.3065        201
   8.3436        203
   8.3808        188
   8.4179        176
   8.4551        231
   8.4922        192
   8.5294        208
   8.5665        188
   8.6037        202
   8.6408        207
   8.6780        191
   8.7151        199
   8.7523        171
   8.7894        214
   8.8266        212
   8.8637        206
   8.9009        202
   8.9380        215
   8.9752        192
   9.0123        207
   9.0495        224
   9.0866        223
   9.1238        198
   9.1609        215
   9.1981        205
   9.2352        226
   9.2724        238
   9.3095        235
   9.3467        250
   9.3838        229
   9.4210        225
   9.4581        248
   9.4953        206
   9.5324        205
   9.5696        234
   9.6067        238
   9.6439        223
   9.6811        220
   9.7182        222
   9.7554        214
   9.7925        252
   9.8297        232
   9.8668        231
   9.9040        256
   9.9411        246
   9.9783        222
  10.0154        227
  10.0526        227
  10.0897        253
  10.1269        226
  10.1640        240
  10.2012        249
  10.2383        238
  10.2755        253
  10.3126        251
  10.3498        239
  10.3869        251
  10.4241        231
  10.4612        228
  10.4984        238
  10.5355        241
  10.5727        243
  10.6098        242
  10.6470        250
  10.6841        234
  10.7213        261
  10.7584        251
  10.7956        238
  10.8327        257
  10.8699        211
  10.9070        243
  10.9442        262
  10.9813        234
  11.0185        240
  11.0556        219
  11.0928        244
  11.1299        273
  11.1671        233
  11.2043        221
  11.2414        242
  11.2786        252
  11.3157        250
  11.3529        240
  11.3900        233
  11.4272        239
  11.4643        242
  11.5015        214
  11.5386        263
  11.5758        238
  11.6129        216
  11.6501        198
  11.6872        239
  11.7244        230
  11.7615        215
  11.7987        250
  11.8358        230
  11.8730        203
  11.9101        239
  11.9473        220
  11.9844        228
  12.0216        208
  12.0587        237
  12.0959        233
  12.1330        213
  12.1702        251
  12.2073        212
  12.2445        219
  12.2816        226
  12.3188        233
  12.3559        230
  12.3931        235
  12.4302        188
  12.4674        235
  12.5045        218
  12.5417        216
  12.5788        228
  12.6160        207
  12.6531        221
  12.6903        229
  12.7274        196
  12.7646        206
  12.8018        196
  12.8389        226
  12.8761        214
  12.9132        213
  12.9504        176
  12.9875        194
  13.0247        175
  13.0618        175
  13.0990        198
  13.1361        208
  13.1733        207
  13.2104        187
  13.2476        187
  13.2847        204
  13.3219        190
  13.3590        210
  13.3962        192
  13.4333        210
  13.4705        181
  13.5076        184
  13.5448        199
  13.5819        200
  13.6191        193
  13.6562        200
  13.6934        193
  13.7305        180
  13.7677        195
  13.8048        168
  13.8420        201
  13.8791        198
  13.9163        182
  13.9534        176
  13.9906        160
  14.0277        196
  14.0649        184
  14.1020        200
  14.1392        167
  14.1763        182
  14.2135        174
  14.2506        167
  14.2878        158
  14.3250        175
  14.3621        192
  14.3993        179
  14.4364        168
  14.4736        167
  14.5107        150
  14.5479        163
  14.5850        182
  14.6222        161
  14.6593        160
  14.6965        178
  14.7336        169
  14.7708        177
  14.8079        176
  14.8451        170
  14.8822        162
  14.9194        175
  14.9565        160
  14.9937        165
  15.0308        161
  15.0680        152
  15.1051        176
  15.1423        165
  15.1794        177
  15.2166        162
  15.2537        143
  15.2909        164
  15.3280        171
  15.3652        179
  15.4023        169
  15.4395        179
  15.4766        138
  15.5138        169
  15.5509        187
  15.5881        155
  15.6252        167
  15.6624        151
  15.6995        165
  15.7367        171
  15.7738        165
  15.8110        133
  15.8482        165
  15.8853        167
  15.9225        156
  15.9596        154
  15.9968        141
  16.0339        160
  16.0711        168
  16.1082        139
  16.1454        156
  16.1825        189
  16.2197        165
  16.2568        167
  16.2940        164
  16.3311        160
  16.3683        158
  16.4054        171
  16.4426        157
  16.4797        171
  16.5169        136
  16.5540        170
  16.5912        160
  16.6283        144
  16.6655        163
  16.7026        188
  16.7398        170
  16.7769        168
  16.8141        156
  16.8512        171
  16.8884        160
  16.9255        152
  16.9627        156
  16.9998        181
  17.0370        147
  17.0741        165
  17.1113        152
  17.1484        198
  17.1856        168
  17.2227        155
  17.2599        162
  17.2970        153
  17.3342        151
  17.3713        141
  17.4085        179
  17.4457        165
  17.4828        191
  17.5200        188
  17.5571        148
  17.5943        166
  17.6314        161
  17.6686        156
  17.7057        149
  17.7429        163
  17.7800        164
  17.8172        171
  17.8543        174
  17.8915        176
  17.9286        155
  17.9658        162
  18.0029        162
  18.0401        169
  18.0772        183
  18.1144        182
  18.1515        145
  18.1887        173
  18.2258        166
  18.2630        151
  18.3001        152
  18.3373        165
  18.3744        172
  18.4116        161
  18.4487        172
  18.4859        164
  18.5230        173
  18.5602        177
  18.5973        173
  18.6345        179
  18.6716        167
  18.7088        171
  18.7459        159
  18.7831        168
  18.8202        166
  18.8574        150
  18.8945        176
  18.9317        157
  18.9689        165
  19.0060        174
  19.0432        176
  19.0803        175
  19.1175        167
  19.1546        181
  19.1918        162
  19.2289        144
  19.2661        183
  19.3032        174
  19.3404        161
  19.3775        165
  19.4147        189
  19.4518        175
  19.4890        175
  19.5261        173
  19.5633        171
  19.6004        182
  19.6376        178
  19.6747        191
  19.7119        179
  19.7490        164
  19.7862        190
  19.8233        169
  19.8605        187
  19.8976        188
  19.9348        189
  19.9719        183
  20.0091        176
  20.0462        189
  20.0834        174
  20.1205        167
  20.1577        173
  20.1948        195
  20.2320        188
  20.2691        169
  20.3063        185
  20.3434        200
  20.3806        180
  20.4177        192
  20.4549        205
  20.4921        173
  20.5292        171
  20.5664        171
  20.6035        194
  20.6407        216
  20.6778        181
  20.7150        194
  20.7521        172
  20.7893        163
  20.8264        173
  20.8636        171
  20.9007        190
  20.9379        176
  20.9750        179
  21.0122        189
  21.0493        216
  21.0865        217
  21.1236        217
  21.1608        231
  21.1979        276
  21.2351        300
  21.2722        289
  21.3094        313
  21.3465        478
  21.3837        442
  21.4208        370
  21.4580        215
  21.4951        227
  21.5323        190
  21.5694        189
  21.6066        215
  21.6437        183
  21.6809        192
  21.7180        179
  21.7552        209
  21.7923        173
  21.8295        174
  21.8666        187
  21.9038        188
  21.9409        199
  21.9781        206
  22.0152        176
  22.0524        213
  22.0896        181
  22.1267        197
  22.1639        219
  22.2010        191
  22.2382        211
  22.2753        217
  22.3125        178
  22.3496        187
  22.3868        199
  22.4239        182
  22.4611        204
  22.4982        175
  22.5354        196
  22.5725        188
  22.6097        198
  22.6468        193
  22.6840        187
  22.7211        209
  22.7583        190
  22.7954        192
  22.8326        183
  22.8697        207
  22.9069        171
  22.9440        190
  22.9812        216
  23.0183        185
  23.0555        214
  23.0926        206
  23.1298        211
  23.1669        207
  23.2041        216
  23.2412        186
  23.2784        192
  23.3155        184
  23.3527        208
  23.3898        204
  23.4270        200
  23.4641        186
  23.5013        200
  23.5384        192
  23.5756        197
  23.6128        223
  23.6499        207
  23.6871        205
  23.7242        222
  23.7614        189
  23.7985        211
  23.8357        198
  23.8728        205
  23.9100        179
  23.9471        188
  23.9843        215
  24.0214        190
  24.0586        204
  24.0957        197
  24.1329        193
  24.1700        227
  24.2072        220
  24.2443        224
  24.2815        234
  24.3186        238
  24.3558        213
  24.3929        202
  24.4301        194
  24.4672        200
  24.5044        205
  24.5415        171
  24.5787        196
  24.6158        198
  24.6530        191
  24.6901        204
  24.7273        221
  24.7644        194
  24.8016        198
  24.8387        198
  24.8759        207
  24.9130        204
  24.9502        202
  24.9873        205
  25.0245        202
  25.0616        232
  25.0988        208
  25.1360        189
  25.1731        183
  25.2103        201
  25.2474        192
  25.2846        203
  25.3217        206
  25.3589        188
  25.3960        197
  25.4332        177
  25.4703        207
  25.5075        191
  25.5446        216
  25.5818        190
  25.6189        206
  25.6561        194
  25.6932        186
  25.7304        213
  25.7675        212
  25.8047        198
  25.8418        186
  25.8790        183
  25.9161        169
  25.9533        172
  25.9904        193
  26.0276        197
  26.0647        175
  26.1019        194
  26.1390        181
  26.1762        194
  26.2133        177
  26.2505        173
  26.2876        209
  26.3248        188
  26.3619        199
  26.3991        184
  26.4362        176
  26.4734        187
  26.5105        179
  26.5477        189
  26.5848        199
  26.6220        188
  26.6591        164
  26.6963        185
  26.7335        197
  26.7706        185
  26.8078        189
  26.8449        198
  26.8821        166
  26.9192        207
  26.9564        188
  26.9935        167
  27.0307        204
  27.0678        192
  27.1050        200
  27.1421        224
  27.1793        232
  27.2164        247
  27.2536        221
  27.2907        212
  27.3279        191
  27.3650        179
  27.4022        194
  27.4393        189
  27.4765        199
  27.5136        167
  27.5508        173
  27.5879        187
  27.6251        196
  27.6622        170
  27.6994        172
  27.7365        178
  27.7737        167
  27.8108        164
  27.8480        189
  27.8851        175
  27.9223        181
  27.9594        204
  27.9966        187
  28.0337        169
  28.0709        175
  28.1080        169
  28.1452        149
  28.1823        144
  28.2195        200
  28.2567        199
  28.2938        173
  28.3310        167
  28.3681        165
  28.4053        161
  28.4424        155
  28.4796        159
  28.5167        184
  28.5539        179
  28.5910        156
  28.6282        171
  28.6653        159
  28.7025        165
  28.7396        169
  28.7768        169
  28.8139        168
  28.8511        126
  28.8882        164
  28.9254        166
  28.9625        174
  28.9997        174
  29.0368        170
  29.0740        178
  29.1111        149
  29.1483        170
  29.1854        143
  29.2226        149
  29.2597        166
  29.2969        158
  29.3340        182
  29.3712        161
  29.4083        173
  29.4455        154
  29.4826        153
  29.5198        187
  29.5569        173
  29.5941        154
  29.6312        180
  29.6684        161
  29.7055        164
  29.7427        162
  29.7799        180
  29.8170        162
  29.8542        159
  29.8913        178
  29.9285        143
  29.9656        160
  30.0028        159
  30.0399        158
  30.0771        168
  30.1142        160
  30.1514        171
  30.1885        172
  30.2257        148
  30.2628        167
  30.3000        166
  30.3371        204
  30.3743        298
  30.4114        273
  30.4486        231
  30.4857        226
  30.5229        163
  30.5600        162
  30.5972        138
  30.6343        153
  30.6715        165
  30.7086        138
  30.7458        150
  30.7829        161
  30.8201        171
  30.8572        164
  30.8944        130
  30.9315        162
  30.9687        154
  31.0058        151
  31.0430        159
  31.0801        114
  31.1173        159
  31.1544        120
  31.1916        135
  31.2287        144
  31.2659        133
  31.3030        150
  31.3402        122
  31.3774        149
  31.4145        166
  31.4517        149
  31.4888        143
  31.5260        113
  31.5631        135
  31.6003        148
  31.6374        122
  31.6746        147
  31.7117        139
  31.7489        150
  31.7860        113
  31.8232        147
  31.8603        142
  31.8975        143
  31.9346        127
  31.9718        145
  32.0089        116
  32.0461        145
  32.0832        141
  32.1204        123
  32.1575        124
  32.1947        137
  32.2318        118
  32.2690        146
  32.3061        145
  32.3433        141
  32.3804        144
  32.4176        146
  32.4547        141
  32.4919        173
  32.5290        146
  32.5662        150
  32.6033        145
  32.6405        124
  32.6776        128
  32.7148        131
  32.7519        106
  32.7891        140
  32.8262        111
  32.8634        147
  32.9006        146
  32.9377        131
  32.9749        139
  33.0120         94
  33.0492        126
  33.0863        103
  33.1235        105
  33.1606        138
  33.1978        112
  33.2349        125
  33.2721        124
  33.3092        119
  33.3464        121
  33.3835        101
  33.4207        134
  33.4578        114
  33.4950        100
  33.5321        115
  33.5693        113
  33.6064        108
  33.6436        115
  33.6807        119
  33.7179        112
  33.7550        121
  33.7922        125
  33.8293        121
  33.8665        121
  33.9036        132
  33.9408        108
  33.9779        121
  34.0151        122
  34.0522        113
  34.0894        116
  34.1265        120
  34.1637        113
  34.2008        122
  34.2380        119
  34.2751        120
  34.3123        102
  34.3494        121
  34.3866        114
  34.4238        112
  34.4609        112
  34.4981        111
  34.5352        112
  34.5724        107
  34.6095        147
  34.6467        118
  34.6838        119
  34.7210        147
  34.7581        146
  34.7953        140
  34.8324        133
  34.8696        152
  34.9067        115
  34.9439        114
  34.9810        116
  35.0182        114
  35.0553        113
  35.0925         79
  35.1296         98
  35.1668        119
  35.2039        126
  35.2411         93
  35.2782        100
  35.3154        128
  35.3525         92
  35.3897        127
  35.4268        104
  35.4640        102
  35.5011         98
  35.5383        101
  35.5754        107
  35.6126         97
  35.6497        103
  35.6869         93
  35.7240         86
  35.7612         87
  35.7983        107
  35.8355         87
  35.8726         95
  35.9098        100
  35.9469        112
  35.9841         79
  36.0213         97
  36.0584        106
  36.0956         96
  36.1327        114
  36.1699         93
  36.2070         99
  36.2442         94
  36.2813        112
  36.3185        104
  36.3556        103
  36.3928         78
  36.4299         87
  36.4671         98
  36.5042         93
  36.5414         90
  36.5785         83
  36.6157         85
  36.6528         68
  36.6900        100
  36.7271         97
  36.7643         94
  36.8014         93
  36.8386        100
  36.8757         83
  36.9129         95
  36.9500         93
  36.9872         98
  37.0243        100
  37.0615        104
  37.0986         95
  37.1358        103
  37.1729         86
  37.2101        104
  37.2472        109
  37.2844         93
  37.3215        102
  37.3587         98
  37.3958        127
  37.4330        149
  37.4701        122
  37.5073        101
  37.5445        114
  37.5816         77
  37.6188         95
  37.6559        101
  37.6931         89
  37.7302         87
  37.7674         91
  37.8045         80
  37.8417        104
  37.8788         79
  37.9160         94
  37.9531        101
  37.9903         91
  38.0274         84
  38.0646         86
  38.1017         94
  38.1389         90
  38.1760         86
  38.2132         82
  38.2503         85
  38.2875         79
  38.3246         82
  38.3618         89
  38.3989         82
  38.4361         77
  38.4732         85
  38.5104         82
  38.5475         76
  38.5847         94
  38.6218         80
  38.6590         79
  38.6961         71
  38.7333         79
  38.7704         95
  38.8076         97
  38.8447         90
  38.8819         77
  38.9190         93
  38.9562         91
  38.9933         57
  39.0305         75
  39.0677         91
  39.1048         88
  39.1420         75
  39.1791         82
  39.2163         84
  39.2534         75
  39.2906         74
  39.3277         77
  39.3649         85
  39.4020         76
  39.4392         76
  39.4763         88
  39.5135         82
  39.5506         67
  39.5878         78
  39.6249         90
  39.6621         79
  39.6992         79
  39.7364         84
  39.7735         80
  39.8107        103
  39.8478         91
  39.8850         71
  39.9221         77
  39.9593         75
  39.9964         68
  40.0336         78
  40.0707         84
  40.1079         75
  40.1450         79
  40.1822         72
  40.2193         82
  40.2565         72
  40.2936         69
  40.3308         65
  40.3679         86
  40.4051         81
  40.4422         63
  40.4794         62
  40.5165         61
  40.5537         76
  40.5908         63
  40.6280         81
  40.6652         64
  40.7023         83
  40.7395         77
  40.7766         89
  40.8138         75
  40.8509         82
  40.8881         81
  40.9252         76
  40.9624         83
  40.9995         75
  41.0367         81
  41.0738         84
  41.1110         88
  41.1481         86
  41.1853         68
  41.2224         75
  41.2596         79
  41.2967         79
  41.3339         73
  41.3710         85
  41.4082         67
  41.4453         89
  41.4825         60
  41.5196         73
  41.5568         72
  41.5939         64
  41.6311         86
  41.6682         82
  41.7054         78
  41.7425         85
  41.7797         74
  41.8168         79
  41.8540         79
  41.8911         58
  41.9283         78
  41.9654         75
  42.0026         80
  42.0397         83
  42.0769         74
  42.1140         77
  42.1512         80
  42.1884         80
  42.2255         75
  42.2627         68
  42.2998         64
  42.3370         65
  42.3741         71
  42.4113         83
  42.4484         75
  42.4856         75
  42.5227         75
  42.5599         79
  42.5970         73
  42.6342         82
  42.6713         77
  42.7085         72
  42.7456         72
  42.7828         78
  42.8199         61
  42.8571         80
  42.8942         84
  42.9314         76
  42.9685         79
  43.0057         82
  43.0428         74
  43.0800         75
  43.1171         77
  43.1543         72
  43.1914         76
  43.2286         81
  43.2657         88
  43.3029        100
  43.3400        102
  43.3772         80
  43.4143         68
  43.4515         80
  43.4886        129
  43.5258        127
  43.5629         89
  43.6001        100
  43.6372         92
  43.6744         69
  43.7116         66
  43.7487         70
  43.7859         68
  43.8230         79
  43.8602         80
  43.8973         83
  43.9345         84
  43.9716         72
  44.0088         57
  44.0459         70
  44.0831         69
  44.1202         65
  44.1574         66
  44.1945         67
  44.2317         64
  44.2688         77
  44.3060         82
  44.3431         85
  44.3803         75
  44.4174         77
  44.4546         82
  44.4917         88
  44.5289         73
  44.5660         73
  44.6032         62
  44.6403         89
  44.6775         92
  44.7146         88
  44.7518         70
  44.7889         78
  44.8261         74
  44.8632         64
  44.9004         80
  44.9375         71
  44.9747         68
  45.0118         69
  45.0490         74
  45.0861         71
  45.1233         74
  45.1604         75
  45.1976         69
  45.2347         82
  45.2719         60
  45.3091         56
  45.3462         75
  45.3834         61
  45.4205         63
  45.4577         73
  45.4948         67
  45.5320         65
  45.5691         72
  45.6063         70
  45.6434         63
  45.6806         61
  45.7177         69
  45.7549         67
  45.7920         65
  45.8292         77
  45.8663         55
  45.9035         85
  45.9406         67
  45.9778         69
  46.0149         62
  46.0521         71
  46.0892         84
  46.1264         59
  46.1635         67
  46.2007         67
  46.2378         71
  46.2750         74
  46.3121         77
  46.3493         53
  46.3864         36
  46.4236         66
  46.4607         70
  46.4979         88
  46.5350         54
  46.5722         63
  46.6093         84
  46.6465         73
  46.6836         71
  46.7208         46
  46.7579         65
  46.7951         59
  46.8323         73
  46.8694         61
  46.9066         69
  46.9437         65
  46.9809         64
  47.0180         57
  47.0552         69
  47.0923         59
  47.1295         74
  47.1666         64
  47.2038         62
  47.2409         77
  47.2781         57
  47.3152         55
  47.3524         57
  47.3895         53
  47.4267         60
  47.4638         59
  47.5010         65
  47.5381         71
  47.5753         69
  47.6124         54
  47.6496         63
  47.6867         59
  47.7239         67
  47.7610         62
  47.7982         65
  47.8353         68
  47.8725         57
  47.9096         71
  47.9468         72
  47.9839         68
  48.0211         65
  48.0582         69
  48.0954         69
  48.1325         51
  48.1697         54
  48.2068         60
  48.2440         70
  48.2811         50
  48.3183         68
  48.3555         77
  48.3926         65
  48.4298         62
  48.4669         62
  48.5041         76
  48.5412         76
  48.5784         77
  48.6155         65
  48.6527         38
  48.6898         61
  48.7270         59
  48.7641         70
  48.8013         75
  48.8384         78
  48.8756         71
  48.9127         87
  48.9499        110
  48.9870         94
  49.0242         57
  49.0613         72
  49.0985         98
  49.1356         82
  49.1728         59
  49.2099         71
  49.2471         56
  49.2842         41
  49.3214         70
  49.3585         74
  49.3957         60
  49.4328         46
  49.4700         71
  49.5071         67
  49.5443         59
  49.5814         64
  49.6186         79
  49.6557         70
  49.6929         71
  49.7300         65
  49.7672         62
  49.8043         70
  49.8415         61
  49.8786         69
  49.9158         59
  49.9530         55
  49.9901         49
  50.0273         60
  50.0644         72
  50.1016         67
  50.1387         71
  50.1759         60
  50.2130         73
  50.2502         60
  50.2873         58
  50.3245         60
  50.3616         63
  50.3988         64
  50.4359         66
  50.4731         71
  50.5102         66
  50.5474         64
  50.5845         67
  50.6217         49
  50.6588         59
  50.6960         56
  50.7331         68
  50.7703         73
  50.8074         69
  50.8446         57
  50.8817         77
  50.9189         61
  50.9560         61
  50.9932         73
  51.0303         61
  51.0675         59
  51.1046         51
  51.1418         43
  51.1789         65
  51.2161         61
  51.2532         47
  51.2904         71
  51.3275         59
  51.3647         70
  51.4018         79
  51.4390         61
  51.4762         65
  51.5133         56
  51.5505         48
  51.5876         53
  51.6248         53
  51.6619         63
  51.6991         56
  51.7362         49
  51.7734         53
  51.8105         67
  51.8477         63
  51.8848         56
  51.9220         66
  51.9591         45
  51.9963         71
  52.0334         49
  52.0706         56
  52.1077         61
  52.1449         77
  52.1820         64
  52.2192         50
  52.2563         49
  52.2935         54
  52.3306         67
  52.3678         61
  52.4049         67
  52.4421         63
  52.4792         64
  52.5164         58
  52.5535         44
  52.5907         59
  52.6278         59
  52.6650         59
  52.7021         55
  52.7393         59
  52.7764         54
  52.8136         57
  52.8507         54
  52.8879         66
  52.9250         60
  52.9622         53
  52.9994         63
  53.0365         76
  53.0737         56
  53.1108         57
  53.1480         66
  53.1851         55
  53.2223         46
  53.2594         40
  53.2966         52
  53.3337         56
  53.3709         55
  53.4080         57
  53.4452         53
  53.4823         60
  53.5195         65
  53.5566         57
  53.5938         55
  53.6309         51
  53.6681         53
  53.7052         41
  53.7424         61
  53.7795         53
  53.8167         56
  53.8538         57
  53.8910         56
  53.9281         84
  53.9653         58
  54.0024         80
  54.0396         70
  54.0767         64
  54.1139         63
  54.1510         56
  54.1882         61
  54.2253         68
  54.2625         63
  54.2996         52
  54.3368         46
  54.3739         72
  54.4111         54
  54.4482         57
  54.4854         62
  54.5225         51
  54.5597         48
  54.5969         50
  54.6340         58
  54.6712         61
  54.7083         59
  54.7455         48
  54.7826         51
  54.8198         58
  54.8569         49
  54.8941         70
  54.9312         50
  54.9684         54
  55.0055         49
  55.0427         56
  55.0798         48
  55.1170         53
  55.1541         51
  55.1913         59
  55.2284         53
  55.2656         70
  55.3027         56
  55.3399         55
  55.3770         53
  55.4142         57
  55.4513         51
  55.4885         55
  55.5256         52
  55.5628         53
  55.5999         65
  55.6371         63
  55.6742         49
  55.7114         52
  55.7485         59
  55.7857         59
  55.8228         50
  55.8600         50
  55.8971         51
  55.9343         47
  55.9714         55
  56.0086         56
  56.0457         59
  56.0829         50
  56.1201         61
  56.1572         49
  56.1944         64
  56.2315         70
  56.2687         71
  56.3058         55
  56.3430         46
  56.3801         65
  56.4173         57
  56.4544         63
  56.4916         48
  56.5287         65
  56.5659         48
  56.6030         53
  56.6402         65
  56.6773         59
  56.7145         49
  56.7516         47
  56.7888         64
  56.8259         49
  56.8631         48
  56.9002         62
  56.9374         54
  56.9745         46
  57.0117         65
  57.0488         55
  57.0860         61
  57.1231         50
  57.1603         54
  57.1974         63
  57.2346         52
  57.2717         60
  57.3089         55
  57.3460         57
  57.3832         63
  57.4203         60
  57.4575         57
  57.4946         52
  57.5318         45
  57.5689         50
  57.6061         52
  57.6433         61
  57.6804         64
  57.7176         53
  57.7547         55
  57.7919         59
  57.8290         57
  57.8662         59
  57.9033         58
  57.9405         50
  57.9776         47
  58.0148         66
  58.0519         48
  58.0891         57
  58.1262         56
  58.1634         49
  58.2005         48
  58.2377         55
  58.2748         47
  58.3120         49
  58.3491         62
  58.3863         56
  58.4234         56
  58.4606         47
  58.4977         56
  58.5349         57
  58.5720         60
  58.6092         72
  58.6463         60
  58.6835         56
  58.7206         65
  58.7578         67
  58.7949         43
  58.8321         50
  58.8692         58
  58.9064         47
  58.9435         49
  58.9807         71
  59.0178         48
  59.0550         56
  59.0921         47
  59.1293         45
  59.1664         65
  59.2036         53
  59.2408         46
  59.2779         52
  59.3151         64
  59.3522         55
  59.3894         41
  59.4265         58
  59.4637         49
  59.5008         60
  59.5380         56
  59.5751         58
  59.6123         55
  59.6494         57
  59.6866         61
  59.7237         53
  59.7609         58
  59.7980         41
  59.8352         63
  59.8723         59
  59.9095         53
  59.9466         57
  59.9838         44
  60.0024         57