File: notebooks/data/xrd_data/ML_20220718_30_SJD_4_LaB6-2min.csv
;,2THETA,
5.0000,152
5.0372,135
5.0743,124
5.1115,114
5.1486,124
5.1858,106
5.2229,108
5.2601,115
5.2972,125
5.3344,138
5.3715,104
5.4087,120
5.4458,116
5.4830,133
5.5201,108
5.5573,114
5.5944,132
5.6316,111
5.6687,99
5.7059,113
5.7430,107
5.7802,109
5.8173,122
5.8545,92
5.8916,102
5.9288,92
5.9659,108
6.0031,104
6.0402,81
6.0774,107
6.1145,107
6.1517,91
6.1888,93
6.2260,86
6.2631,90
6.3003,93
6.3374,87
6.3746,86
6.4117,101
6.4489,88
6.4860,77
6.5232,78
6.5604,94
6.5975,94
6.6347,91
6.6718,116
6.7090,81
6.7461,94
6.7833,78
6.8204,73
6.8576,94
6.8947,78
6.9319,90
6.9690,68
7.0062,75
7.0433,79
7.0805,82
7.1176,76
7.1548,80
7.1919,82
7.2291,79
7.2662,65
7.3034,56
7.3405,81
7.3777,68
7.4148,92
7.4520,75
7.4891,77
7.5263,82
7.5634,89
7.6006,98
7.6377,89
7.6749,98
7.7120,83
7.7492,79
7.7863,81
7.8235,93
7.8606,111
7.8978,79
7.9349,95
7.9721,86
8.0092,107
8.0464,82
8.0835,92
8.1207,92
8.1579,91
8.1950,74
8.2322,99
8.2693,107
8.3065,94
8.3436,94
8.3808,104
8.4179,91
8.4551,104
8.4922,110
8.5294,98
8.5665,105
8.6037,85
8.6408,85
8.6780,103
8.7151,121
8.7523,108
8.7894,106
8.8266,93
8.8637,113
8.9009,91
8.9380,113
8.9752,88
9.0123,110
9.0495,109
9.0866,116
9.1238,117
9.1609,97
9.1981,97
9.2352,130
9.2724,116
9.3095,100
9.3467,124
9.3838,117
9.4210,107
9.4581,106
9.4953,123
9.5324,107
9.5696,111
9.6067,97
9.6439,100
9.6811,127
9.7182,118
9.7554,111
9.7925,119
9.8297,113
9.8668,115
9.9040,122
9.9411,123
9.9783,125
10.0154,104
10.0526,92
10.0897,108
10.1269,127
10.1640,137
10.2012,111
10.2383,122
10.2755,126
10.3126,133
10.3498,130
10.3869,118
10.4241,106
10.4612,119
10.4984,112
10.5355,107
10.5727,133
10.6098,125
10.6470,113
10.6841,103
10.7213,109
10.7584,123
10.7956,117
10.8327,110
10.8699,107
10.9070,121
10.9442,112
10.9813,117
11.0185,128
11.0556,118
11.0928,107
11.1299,110
11.1671,134
11.2043,101
11.2414,127
11.2786,115
11.3157,102
11.3529,115
11.3900,111
11.4272,108
11.4643,90
11.5015,131
11.5386,112
11.5758,130
11.6129,107
11.6501,105
11.6872,109
11.7244,113
11.7615,117
11.7987,114
11.8358,113
11.8730,123
11.9101,112
11.9473,117
11.9844,122
12.0216,129
12.0587,131
12.0959,115
12.1330,102
12.1702,112
12.2073,108
12.2445,109
12.2816,107
12.3188,127
12.3559,103
12.3931,109
12.4302,99
12.4674,101
12.5045,127
12.5417,97
12.5788,100
12.6160,95
12.6531,118
12.6903,97
12.7274,110
12.7646,109
12.8018,106
12.8389,106
12.8761,97
12.9132,99
12.9504,102
12.9875,90
13.0247,96
13.0618,102
13.0990,84
13.1361,93
13.1733,96
13.2104,98
13.2476,108
13.2847,81
13.3219,109
13.3590,100
13.3962,97
13.4333,106
13.4705,100
13.5076,112
13.5448,91
13.5819,90
13.6191,83
13.6562,92
13.6934,95
13.7305,102
13.7677,106
13.8048,90
13.8420,98
13.8791,94
13.9163,91
13.9534,83
13.9906,83
14.0277,87
14.0649,85
14.1020,95
14.1392,83
14.1763,83
14.2135,83
14.2506,73
14.2878,79
14.3250,80
14.3621,80
14.3993,80
14.4364,85
14.4736,99
14.5107,88
14.5479,81
14.5850,83
14.6222,96
14.6593,79
14.6965,97
14.7336,82
14.7708,83
14.8079,88
14.8451,83
14.8822,80
14.9194,89
14.9565,81
14.9937,87
15.0308,79
15.0680,70
15.1051,95
15.1423,89
15.1794,86
15.2166,60
15.2537,82
15.2909,96
15.3280,83
15.3652,90
15.4023,75
15.4395,67
15.4766,76
15.5138,95
15.5509,84
15.5881,77
15.6252,89
15.6624,73
15.6995,79
15.7367,88
15.7738,83
15.8110,82
15.8482,93
15.8853,100
15.9225,92
15.9596,81
15.9968,93
16.0339,80
16.0711,74
16.1082,77
16.1454,74
16.1825,65
16.2197,89
16.2568,78
16.2940,98
16.3311,63
16.3683,89
16.4054,85
16.4426,71
16.4797,81
16.5169,87
16.5540,89
16.5912,80
16.6283,92
16.6655,77
16.7026,96
16.7398,80
16.7769,79
16.8141,79
16.8512,71
16.8884,81
16.9255,79
16.9627,91
16.9998,77
17.0370,83
17.0741,83
17.1113,75
17.1484,74
17.1856,70
17.2227,79
17.2599,85
17.2970,60
17.3342,68
17.3713,79
17.4085,90
17.4457,71
17.4828,80
17.5200,87
17.5571,83
17.5943,79
17.6314,82
17.6686,90
17.7057,85
17.7429,72
17.7800,78
17.8172,96
17.8543,90
17.8915,94
17.9286,72
17.9658,94
18.0029,80
18.0401,63
18.0772,82
18.1144,79
18.1515,74
18.1887,96
18.2258,83
18.2630,65
18.3001,79
18.3373,88
18.3744,78
18.4116,71
18.4487,83
18.4859,67
18.5230,87
18.5602,82
18.5973,84
18.6345,93
18.6716,71
18.7088,66
18.7459,81
18.7831,88
18.8202,86
18.8574,79
18.8945,88
18.9317,73
18.9689,83
19.0060,95
19.0432,84
19.0803,64
19.1175,88
19.1546,80
19.1918,92
19.2289,84
19.2661,76
19.3032,80
19.3404,83
19.3775,91
19.4147,77
19.4518,94
19.4890,73
19.5261,86
19.5633,78
19.6004,83
19.6376,92
19.6747,85
19.7119,100
19.7490,95
19.7862,88
19.8233,82
19.8605,92
19.8976,82
19.9348,78
19.9719,100
20.0091,98
20.0462,80
20.0834,102
20.1205,94
20.1577,81
20.1948,99
20.2320,98
20.2691,70
20.3063,84
20.3434,97
20.3806,79
20.4177,101
20.4549,95
20.4921,85
20.5292,82
20.5664,104
20.6035,108
20.6407,99
20.6778,85
20.7150,92
20.7521,98
20.7893,108
20.8264,98
20.8636,91
20.9007,80
20.9379,99
20.9750,92
21.0122,100
21.0493,105
21.0865,114
21.1236,109
21.1608,136
21.1979,138
21.2351,150
21.2722,149
21.3094,147
21.3465,217
21.3837,208
21.4208,179
21.4580,120
21.4951,106
21.5323,112
21.5694,93
21.6066,104
21.6437,90
21.6809,98
21.7180,92
21.7552,89
21.7923,98
21.8295,95
21.8666,93
21.9038,81
21.9409,87
21.9781,80
22.0152,99
22.0524,108
22.0896,100
22.1267,101
22.1639,94
22.2010,102
22.2382,98
22.2753,82
22.3125,77
22.3496,98
22.3868,99
22.4239,91
22.4611,81
22.4982,101
22.5354,106
22.5725,109
22.6097,100
22.6468,93
22.6840,95
22.7211,89
22.7583,102
22.7954,90
22.8326,105
22.8697,100
22.9069,93
22.9440,109
22.9812,104
23.0183,112
23.0555,86
23.0926,77
23.1298,103
23.1669,88
23.2041,79
23.2412,89
23.2784,89
23.3155,104
23.3527,106
23.3898,94
23.4270,92
23.4641,108
23.5013,95
23.5384,110
23.5756,113
23.6128,88
23.6499,104
23.6871,103
23.7242,105
23.7614,92
23.7985,87
23.8357,71
23.8728,85
23.9100,93
23.9471,90
23.9843,106
24.0214,95
24.0586,92
24.0957,113
24.1329,107
24.1700,95
24.2072,101
24.2443,136
24.2815,106
24.3186,97
24.3558,117
24.3929,106
24.4301,113
24.4672,105
24.5044,79
24.5415,97
24.5787,82
24.6158,103
24.6530,97
24.6901,105
24.7273,106
24.7644,81
24.8016,82
24.8387,113
24.8759,83
24.9130,82
24.9502,96
24.9873,98
25.0245,88
25.0616,102
25.0988,83
25.1360,88
25.1731,91
25.2103,84
25.2474,111
25.2846,80
25.3217,94
25.3589,91
25.3960,93
25.4332,89
25.4703,96
25.5075,94
25.5446,93
25.5818,97
25.6189,103
25.6561,115
25.6932,86
25.7304,81
25.7675,99
25.8047,97
25.8418,98
25.8790,88
25.9161,88
25.9533,91
25.9904,90
26.0276,104
26.0647,91
26.1019,93
26.1390,84
26.1762,85
26.2133,94
26.2505,89
26.2876,115
26.3248,93
26.3619,100
26.3991,105
26.4362,89
26.4734,105
26.5105,104
26.5477,87
26.5848,87
26.6220,99
26.6591,103
26.6963,96
26.7335,92
26.7706,93
26.8078,75
26.8449,91
26.8821,101
26.9192,91
26.9564,99
26.9935,108
27.0307,93
27.0678,81
27.1050,97
27.1421,116
27.1793,105
27.2164,109
27.2536,105
27.2907,96
27.3279,107
27.3650,98
27.4022,95
27.4393,100
27.4765,95
27.5136,75
27.5508,109
27.5879,98
27.6251,95
27.6622,98
27.6994,91
27.7365,92
27.7737,82
27.8108,92
27.8480,87
27.8851,83
27.9223,105
27.9594,90
27.9966,62
28.0337,85
28.0709,92
28.1080,99
28.1452,79
28.1823,95
28.2195,77
28.2567,84
28.2938,80
28.3310,95
28.3681,82
28.4053,89
28.4424,90
28.4796,95
28.5167,86
28.5539,82
28.5910,67
28.6282,88
28.6653,87
28.7025,68
28.7396,90
28.7768,73
28.8139,81
28.8511,100
28.8882,72
28.9254,70
28.9625,95
28.9997,89
29.0368,82
29.0740,73
29.1111,84
29.1483,86
29.1854,76
29.2226,92
29.2597,80
29.2969,80
29.3340,72
29.3712,75
29.4083,91
29.4455,76
29.4826,87
29.5198,85
29.5569,73
29.5941,74
29.6312,80
29.6684,77
29.7055,87
29.7427,75
29.7799,91
29.8170,85
29.8542,70
29.8913,74
29.9285,72
29.9656,78
30.0028,76
30.0399,95
30.0771,81
30.1142,81
30.1514,81
30.1885,80
30.2257,80
30.2628,82
30.3000,87
30.3371,102
30.3743,164
30.4114,125
30.4486,104
30.4857,102
30.5229,72
30.5600,84
30.5972,93
30.6343,85
30.6715,71
30.7086,84
30.7458,64
30.7829,58
30.8201,63
30.8572,68
30.8944,63
30.9315,87
30.9687,77
31.0058,88
31.0430,67
31.0801,68
31.1173,81
31.1544,63
31.1916,72
31.2287,76
31.2659,62
31.3030,53
31.3402,85
31.3774,73
31.4145,70
31.4517,72
31.4888,61
31.5260,63
31.5631,60
31.6003,70
31.6374,75
31.6746,58
31.7117,68
31.7489,72
31.7860,58
31.8232,62
31.8603,71
31.8975,53
31.9346,71
31.9718,75
32.0089,64
32.0461,73
32.0832,53
32.1204,63
32.1575,51
32.1947,55
32.2318,68
32.2690,66
32.3061,62
32.3433,64
32.3804,79
32.4176,77
32.4547,83
32.4919,59
32.5290,69
32.5662,63
32.6033,60
32.6405,61
32.6776,71
32.7148,67
32.7519,68
32.7891,73
32.8262,54
32.8634,57
32.9006,65
32.9377,63
32.9749,45
33.0120,64
33.0492,62
33.0863,69
33.1235,62
33.1606,53
33.1978,47
33.2349,57
33.2721,62
33.3092,46
33.3464,52
33.3835,66
33.4207,53
33.4578,47
33.4950,62
33.5321,67
33.5693,72
33.6064,61
33.6436,51
33.6807,54
33.7179,66
33.7550,51
33.7922,54
33.8293,49
33.8665,50
33.9036,67
33.9408,59
33.9779,57
34.0151,56
34.0522,48
34.0894,67
34.1265,51
34.1637,59
34.2008,60
34.2380,56
34.2751,44
34.3123,53
34.3494,51
34.3866,58
34.4238,53
34.4609,48
34.4981,53
34.5352,68
34.5724,54
34.6095,55
34.6467,57
34.6838,58
34.7210,66
34.7581,84
34.7953,94
34.8324,64
34.8696,65
34.9067,60
34.9439,51
34.9810,58
35.0182,61
35.0553,62
35.0925,56
35.1296,52
35.1668,52
35.2039,44
35.2411,46
35.2782,64
35.3154,64
35.3525,55
35.3897,59
35.4268,53
35.4640,46
35.5011,40
35.5383,45
35.5754,54
35.6126,65
35.6497,34
35.6869,41
35.7240,50
35.7612,53
35.7983,36
35.8355,48
35.8726,61
35.9098,53
35.9469,42
35.9841,53
36.0213,34
36.0584,48
36.0956,44
36.1327,46
36.1699,40
36.2070,51
36.2442,54
36.2813,42
36.3185,52
36.3556,61
36.3928,57
36.4299,43
36.4671,45
36.5042,55
36.5414,45
36.5785,49
36.6157,41
36.6528,49
36.6900,42
36.7271,57
36.7643,58
36.8014,50
36.8386,47
36.8757,44
36.9129,41
36.9500,54
36.9872,42
37.0243,49
37.0615,49
37.0986,43
37.1358,44
37.1729,41
37.2101,46
37.2472,47
37.2844,37
37.3215,52
37.3587,46
37.3958,65
37.4330,69
37.4701,59
37.5073,48
37.5445,55
37.5816,50
37.6188,44
37.6559,38
37.6931,40
37.7302,46
37.7674,43
37.8045,53
37.8417,54
37.8788,37
37.9160,53
37.9531,42
37.9903,38
38.0274,36
38.0646,40
38.1017,48
38.1389,38
38.1760,47
38.2132,50
38.2503,38
38.2875,38
38.3246,40
38.3618,46
38.3989,46
38.4361,36
38.4732,33
38.5104,49
38.5475,37
38.5847,44
38.6218,41
38.6590,40
38.6961,42
38.7333,36
38.7704,42
38.8076,32
38.8447,35
38.8819,44
38.9190,43
38.9562,37
38.9933,41
39.0305,28
39.0677,41
39.1048,52
39.1420,41
39.1791,39
39.2163,49
39.2534,39
39.2906,39
39.3277,42
39.3649,41
39.4020,33
39.4392,49
39.4763,35
39.5135,40
39.5506,41
39.5878,39
39.6249,40
39.6621,34
39.6992,27
39.7364,42
39.7735,35
39.8107,31
39.8478,35
39.8850,50
39.9221,30
39.9593,51
39.9964,38
40.0336,50
40.0707,48
40.1079,55
40.1450,40
40.1822,30
40.2193,29
40.2565,31
40.2936,38
40.3308,43
40.3679,32
40.4051,32
40.4422,37
40.4794,44
40.5165,40
40.5537,35
40.5908,37
40.6280,27
40.6652,38
40.7023,38
40.7395,39
40.7766,28
40.8138,33
40.8509,35
40.8881,42
40.9252,44
40.9624,37
40.9995,46
41.0367,39
41.0738,36
41.1110,45
41.1481,29
41.1853,30
41.2224,37
41.2596,38
41.2967,34
41.3339,38
41.3710,33
41.4082,37
41.4453,40
41.4825,22
41.5196,41
41.5568,40
41.5939,34
41.6311,35
41.6682,41
41.7054,34
41.7425,37
41.7797,30
41.8168,33
41.8540,46
41.8911,34
41.9283,37
41.9654,30
42.0026,38
42.0397,38
42.0769,26
42.1140,34
42.1512,48
42.1884,27
42.2255,44
42.2627,38
42.2998,42
42.3370,24
42.3741,38
42.4113,27
42.4484,48
42.4856,35
42.5227,48
42.5599,54
42.5970,36
42.6342,30
42.6713,48
42.7085,36
42.7456,34
42.7828,30
42.8199,44
42.8571,42
42.8942,36
42.9314,34
42.9685,42
43.0057,33
43.0428,44
43.0800,46
43.1171,45
43.1543,44
43.1914,40
43.2286,54
43.2657,44
43.3029,49
43.3400,48
43.3772,46
43.4143,42
43.4515,43
43.4886,50
43.5258,45
43.5629,33
43.6001,49
43.6372,31
43.6744,35
43.7116,42
43.7487,35
43.7859,32
43.8230,31
43.8602,42
43.8973,26
43.9345,48
43.9716,36
44.0088,48
44.0459,35
44.0831,27
44.1202,40
44.1574,38
44.1945,38
44.2317,47
44.2688,41
44.3060,42
44.3431,39
44.3803,39
44.4174,31
44.4546,28
44.4917,34
44.5289,32
44.5660,40
44.6032,34
44.6403,52
44.6775,40
44.7146,32
44.7518,39
44.7889,31
44.8261,29
44.8632,35
44.9004,40
44.9375,34
44.9747,41
45.0118,37
45.0490,40
45.0861,37
45.1233,35
45.1604,28
45.1976,32
45.2347,36
45.2719,31
45.3091,19
45.3462,30
45.3834,37
45.4205,46
45.4577,38
45.4948,38
45.5320,28
45.5691,33
45.6063,36
45.6434,29
45.6806,25
45.7177,32
45.7549,35
45.7920,32
45.8292,31
45.8663,44
45.9035,31
45.9406,34
45.9778,45
46.0149,28
46.0521,37
46.0892,46
46.1264,31
46.1635,28
46.2007,41
46.2378,37
46.2750,33
46.3121,37
46.3493,41
46.3864,31
46.4236,25
46.4607,33
46.4979,33
46.5350,26
46.5722,26
46.6093,32
46.6465,32
46.6836,39
46.7208,33
46.7579,36
46.7951,35
46.8323,30
46.8694,33
46.9066,35
46.9437,26
46.9809,34
47.0180,41
47.0552,37
47.0923,31
47.1295,41
47.1666,36
47.2038,38
47.2409,25
47.2781,28
47.3152,20
47.3524,37
47.3895,38
47.4267,26
47.4638,23
47.5010,32
47.5381,27
47.5753,19
47.6124,37
47.6496,27
47.6867,34
47.7239,28
47.7610,31
47.7982,33
47.8353,32
47.8725,32
47.9096,46
47.9468,32
47.9839,32
48.0211,34
48.0582,30
48.0954,31
48.1325,33
48.1697,32
48.2068,27
48.2440,35
48.2811,31
48.3183,30
48.3555,26
48.3926,36
48.4298,34
48.4669,33
48.5041,30
48.5412,34
48.5784,29
48.6155,25
48.6527,28
48.6898,24
48.7270,37
48.7641,42
48.8013,23
48.8384,30
48.8756,22
48.9127,37
48.9499,50
48.9870,58
49.0242,29
49.0613,32
49.0985,58
49.1356,32
49.1728,35
49.2099,47
49.2471,32
49.2842,34
49.3214,30
49.3585,28
49.3957,30
49.4328,34
49.4700,30
49.5071,36
49.5443,34
49.5814,29
49.6186,31
49.6557,30
49.6929,30
49.7300,35
49.7672,43
49.8043,25
49.8415,45
49.8786,34
49.9158,25
49.9530,31
49.9901,25
50.0273,29
50.0644,28
50.1016,29
50.1387,32
50.1759,31
50.2130,30
50.2502,30
50.2873,31
50.3245,28
50.3616,36
50.3988,34
50.4359,43
50.4731,30
50.5102,30
50.5474,29
50.5845,28
50.6217,30
50.6588,23
50.6960,29
50.7331,31
50.7703,34
50.8074,27
50.8446,30
50.8817,31
50.9189,19
50.9560,27
50.9932,41
51.0303,30
51.0675,26
51.1046,18
51.1418,30
51.1789,34
51.2161,31
51.2532,23
51.2904,20
51.3275,29
51.3647,33
51.4018,35
51.4390,38
51.4762,32
51.5133,30
51.5505,22
51.5876,40
51.6248,25
51.6619,39
51.6991,36
51.7362,30
51.7734,27
51.8105,39
51.8477,40
51.8848,22
51.9220,27
51.9591,36
51.9963,22
52.0334,30
52.0706,29
52.1077,28
52.1449,23
52.1820,34
52.2192,32
52.2563,32
52.2935,16
52.3306,31
52.3678,33
52.4049,23
52.4421,24
52.4792,24
52.5164,23
52.5535,28
52.5907,28
52.6278,31
52.6650,25
52.7021,25
52.7393,28
52.7764,28
52.8136,31
52.8507,34
52.8879,27
52.9250,23
52.9622,22
52.9994,29
53.0365,31
53.0737,34
53.1108,26
53.1480,19
53.1851,33
53.2223,42
53.2594,31
53.2966,23
53.3337,28
53.3709,31
53.4080,22
53.4452,20
53.4823,28
53.5195,26
53.5566,28
53.5938,31
53.6309,32
53.6681,19
53.7052,33
53.7424,32
53.7795,25
53.8167,26
53.8538,30
53.8910,24
53.9281,24
53.9653,33
54.0024,41
54.0396,28
54.0767,31
54.1139,24
54.1510,45
54.1882,35
54.2253,32
54.2625,25
54.2996,31
54.3368,30
54.3739,20
54.4111,27
54.4482,29
54.4854,23
54.5225,28
54.5597,26
54.5969,20
54.6340,29
54.6712,30
54.7083,30
54.7455,33
54.7826,29
54.8198,29
54.8569,19
54.8941,21
54.9312,29
54.9684,25
55.0055,38
55.0427,25
55.0798,31
55.1170,32
55.1541,28
55.1913,24
55.2284,22
55.2656,36
55.3027,28
55.3399,31
55.3770,27
55.4142,27
55.4513,31
55.4885,22
55.5256,37
55.5628,19
55.5999,24
55.6371,28
55.6742,24
55.7114,27
55.7485,22
55.7857,27
55.8228,26
55.8600,27
55.8971,29
55.9343,33
55.9714,32
56.0086,27
56.0457,32
56.0829,28
56.1201,28
56.1572,26
56.1944,33
56.2315,31
56.2687,45
56.3058,37
56.3430,27
56.3801,40
56.4173,26
56.4544,39
56.4916,35
56.5287,17
56.5659,25
56.6030,26
56.6402,26
56.6773,36
56.7145,29
56.7516,32
56.7888,28
56.8259,26
56.8631,24
56.9002,26
56.9374,25
56.9745,27
57.0117,33
57.0488,32
57.0860,30
57.1231,29
57.1603,25
57.1974,33
57.2346,43
57.2717,22
57.3089,36
57.3460,26
57.3832,22
57.4203,21
57.4575,36
57.4946,24
57.5318,22
57.5689,20
57.6061,27
57.6433,30
57.6804,29
57.7176,24
57.7547,20
57.7919,21
57.8290,31
57.8662,35
57.9033,25
57.9405,32
57.9776,34
58.0148,33
58.0519,24
58.0891,29
58.1262,25
58.1634,28
58.2005,23
58.2377,42
58.2748,31
58.3120,26
58.3491,29
58.3863,21
58.4234,29
58.4606,24
58.4977,24
58.5349,26
58.5720,18
58.6092,27
58.6463,26
58.6835,22
58.7206,27
58.7578,22
58.7949,34
58.8321,30
58.8692,24
58.9064,31
58.9435,27
58.9807,25
59.0178,29
59.0550,26
59.0921,25
59.1293,13
59.1664,26
59.2036,26
59.2408,23
59.2779,33
59.3151,33
59.3522,25
59.3894,34
59.4265,26
59.4637,33
59.5008,25
59.5380,35
59.5751,33
59.6123,19
59.6494,20
59.6866,20
59.7237,33
59.7609,25
59.7980,35
59.8352,27
59.8723,16
59.9095,28
59.9466,29
59.9838,31
60.0024,25