File: notebooks/data/xrd_data/ML_20220720_11_SJD_4_LaB6-1min.uxd
; (content of file Y:\Sam\Apurva-07-20-2022\puck2\ML_20220720_11_SJD_0_LaB6-1min.raw)
_FILEVERSION = 3
_SAMPLE = ML_20220720_11_SJD_0_LaB6-1mi
_+SAMPLE =
_SITE = USA
_USER = Administrator
_GONIOMETER_CODE = 20
; Goniometer : D8 theta/2theta, stage : Unknown
_ATTACHMENTS_CODE = 0
_GONIOMETER_RADIUS = 200.5
_FIXED_DIVSLIT = 0.6
_FIXED_SAMPLESLIT = 0
_SOLLER_SLITS = 2
_FIXED_DETSLIT = 9.55
_MONOCHROMATOR = 0
; Incident beam monochromator : None
_SOLLER_SLITS_2 = N
_THIN_FILM = N
_BETA_FILTER = Y
_FIXED_ANTISLIT = 5.89
_ANALYZER_CODE = 0
; Received beam analyzer : None
_DATEMEASURED = "25-Jul-2022 18:06:49"
_WL_UNIT = A
_WL1 = 1.5406
_WL2 = 1.54439
_WL3 = 1.39222
_WLRATIO = 0.5
_ANODE = Cu
_V4_INF_CREATOR = XRDWizard
_V4_INF_CREATOR_VERSION = V2.9.0.22
_V4_INF_WIZARD_VERSION = V2.9.0.22
_V4_INF_WIZARD_ADDINS = V2.9.0.22
_V4_INF_WIZARD_DOCTYPE = XRD
_V4_INF_OSUSER = McQueenLab
_V4_INF_USER = Administrator
_V4_INF_SITE = USA
_V4_INF_SAMPLEID = ML_20220720_11_SJD_0_LaB6-1mi

; Data for range 1
_DRIVE = COUPLED
_STEPTIME = 4.23
_STEPSIZE = 0.0185756
_STEPMODE = C
_START = 5
_THETA = 2.5
_2THETA = 5
_KHI = 0
_PHI = 0
_X = 0
_Y = 0
_Z = 0
_DETECTOR = 5
; Detector type : Unknown
_DETECTORSLIT = unkn
_AUX1 = 0
_AUX2 = 0
_AUX3 = 0
_TIMESTARTED = 15
_TEMP_RATE = -1
_TEMP_DELAY = -1
_KV = 40
_MA = 40
_RANGE_WL = 1.5406
_3DPLANE = 0
_V4_ADDITIONALDETECTOR = 257
_V4_PSD2THETA = 3.3706
_V4_PSDCHANNEL1 = 0
_V4_PSDAPERTURE = 12.68
_V4_PSDTYPE = 5
_V4_PSDFIXED = 0
_V4_COUNTERS_MASK = 4096
_V4_DRIVES_MASK = 0
_V4_ENCODERS_MASK = 0
_2THETACOUNTS = 1
; 2THETA  PSD
   5.0000         93
   5.0372         95
   5.0743         82
   5.1115        103
   5.1486         91
   5.1858         90
   5.2229         94
   5.2601         90
   5.2972         92
   5.3344        106
   5.3715         69
   5.4087         86
   5.4458        100
   5.4830         83
   5.5201         75
   5.5573         55
   5.5944         85
   5.6316         76
   5.6687         54
   5.7059         83
   5.7430         78
   5.7802         87
   5.8173         70
   5.8545         77
   5.8916         72
   5.9288         58
   5.9659         66
   6.0031         83
   6.0402         81
   6.0774         72
   6.1145         69
   6.1517         69
   6.1888         60
   6.2260         85
   6.2631         74
   6.3003         83
   6.3374         77
   6.3746         58
   6.4117         78
   6.4489         64
   6.4860         59
   6.5232         71
   6.5604         64
   6.5975         72
   6.6347         58
   6.6718         44
   6.7090         70
   6.7461         74
   6.7833         63
   6.8204         49
   6.8576         58
   6.8947         56
   6.9319         55
   6.9690         69
   7.0062         66
   7.0433         48
   7.0805         60
   7.1176         64
   7.1548         60
   7.1919         63
   7.2291         58
   7.2662         70
   7.3034         50
   7.3405         47
   7.3777         58
   7.4148         51
   7.4520         56
   7.4891         57
   7.5263         72
   7.5634         63
   7.6006         65
   7.6377         67
   7.6749         62
   7.7120         60
   7.7492         67
   7.7863         51
   7.8235         65
   7.8606         71
   7.8978         62
   7.9349         59
   7.9721         68
   8.0092         62
   8.0464         70
   8.0835         63
   8.1207         75
   8.1579         83
   8.1950         69
   8.2322         77
   8.2693         61
   8.3065         77
   8.3436         58
   8.3808         61
   8.4179         54
   8.4551         80
   8.4922         85
   8.5294         74
   8.5665         73
   8.6037         63
   8.6408         78
   8.6780         68
   8.7151         73
   8.7523         78
   8.7894         80
   8.8266         75
   8.8637         73
   8.9009         71
   8.9380         69
   8.9752         72
   9.0123         77
   9.0495         72
   9.0866         85
   9.1238         83
   9.1609         68
   9.1981         84
   9.2352         77
   9.2724         70
   9.3095         76
   9.3467         83
   9.3838         72
   9.4210         77
   9.4581         66
   9.4953         84
   9.5324         76
   9.5696         92
   9.6067         78
   9.6439         72
   9.6811         84
   9.7182         80
   9.7554         85
   9.7925         76
   9.8297         81
   9.8668        106
   9.9040         98
   9.9411         86
   9.9783         77
  10.0154         90
  10.0526         90
  10.0897         70
  10.1269         86
  10.1640         79
  10.2012         88
  10.2383         82
  10.2755         82
  10.3126         80
  10.3498        101
  10.3869         80
  10.4241         93
  10.4612         93
  10.4984         96
  10.5355         80
  10.5727         88
  10.6098         91
  10.6470         87
  10.6841        102
  10.7213         88
  10.7584         81
  10.7956         89
  10.8327        112
  10.8699         98
  10.9070         95
  10.9442         95
  10.9813         88
  11.0185         84
  11.0556         95
  11.0928         79
  11.1299         82
  11.1671        100
  11.2043         85
  11.2414         92
  11.2786         90
  11.3157         83
  11.3529         99
  11.3900         96
  11.4272         91
  11.4643        105
  11.5015         79
  11.5386         93
  11.5758         91
  11.6129         85
  11.6501        103
  11.6872         86
  11.7244         87
  11.7615         85
  11.7987         73
  11.8358         74
  11.8730        104
  11.9101         73
  11.9473         76
  11.9844         93
  12.0216         76
  12.0587         83
  12.0959         89
  12.1330         69
  12.1702         90
  12.2073         85
  12.2445         65
  12.2816         79
  12.3188         76
  12.3559         71
  12.3931         80
  12.4302         83
  12.4674         90
  12.5045         79
  12.5417         81
  12.5788         96
  12.6160         76
  12.6531         79
  12.6903         86
  12.7274         64
  12.7646         83
  12.8018         63
  12.8389         82
  12.8761         68
  12.9132         76
  12.9504         81
  12.9875         68
  13.0247         83
  13.0618         87
  13.0990         77
  13.1361         73
  13.1733         80
  13.2104         74
  13.2476         80
  13.2847         70
  13.3219         81
  13.3590         72
  13.3962         67
  13.4333         63
  13.4705         69
  13.5076         85
  13.5448         77
  13.5819         71
  13.6191         68
  13.6562         56
  13.6934         73
  13.7305         58
  13.7677         70
  13.8048         72
  13.8420         65
  13.8791         66
  13.9163         78
  13.9534         74
  13.9906         62
  14.0277         51
  14.0649         73
  14.1020         66
  14.1392         75
  14.1763         85
  14.2135         69
  14.2506         64
  14.2878         76
  14.3250         67
  14.3621         53
  14.3993         52
  14.4364         66
  14.4736         63
  14.5107         55
  14.5479         68
  14.5850         57
  14.6222         73
  14.6593         70
  14.6965         47
  14.7336         67
  14.7708         58
  14.8079         68
  14.8451         90
  14.8822         60
  14.9194         67
  14.9565         50
  14.9937         53
  15.0308         60
  15.0680         62
  15.1051         45
  15.1423         58
  15.1794         54
  15.2166         49
  15.2537         43
  15.2909         55
  15.3280         61
  15.3652         52
  15.4023         56
  15.4395         73
  15.4766         63
  15.5138         59
  15.5509         69
  15.5881         64
  15.6252         61
  15.6624         62
  15.6995         50
  15.7367         67
  15.7738         48
  15.8110         51
  15.8482         60
  15.8853         85
  15.9225         65
  15.9596         68
  15.9968         61
  16.0339         66
  16.0711         55
  16.1082         64
  16.1454         71
  16.1825         59
  16.2197         58
  16.2568         62
  16.2940         58
  16.3311         64
  16.3683         59
  16.4054         63
  16.4426         68
  16.4797         55
  16.5169         71
  16.5540         55
  16.5912         51
  16.6283         71
  16.6655         69
  16.7026         65
  16.7398         52
  16.7769         55
  16.8141         48
  16.8512         67
  16.8884         70
  16.9255         56
  16.9627         53
  16.9998         45
  17.0370         51
  17.0741         58
  17.1113         58
  17.1484         68
  17.1856         47
  17.2227         49
  17.2599         68
  17.2970         53
  17.3342         52
  17.3713         42
  17.4085         57
  17.4457         57
  17.4828         49
  17.5200         55
  17.5571         46
  17.5943         70
  17.6314         52
  17.6686         55
  17.7057         61
  17.7429         78
  17.7800         49
  17.8172         65
  17.8543         53
  17.8915         53
  17.9286         61
  17.9658         54
  18.0029         59
  18.0401         59
  18.0772         52
  18.1144         49
  18.1515         36
  18.1887         65
  18.2258         65
  18.2630         69
  18.3001         45
  18.3373         72
  18.3744         67
  18.4116         54
  18.4487         60
  18.4859         75
  18.5230         60
  18.5602         65
  18.5973         61
  18.6345         55
  18.6716         65
  18.7088         64
  18.7459         76
  18.7831         74
  18.8202         54
  18.8574         61
  18.8945         76
  18.9317         79
  18.9689         58
  19.0060         70
  19.0432         63
  19.0803         59
  19.1175         77
  19.1546         55
  19.1918         54
  19.2289         66
  19.2661         60
  19.3032         60
  19.3404         64
  19.3775         69
  19.4147         50
  19.4518         95
  19.4890         60
  19.5261         60
  19.5633         81
  19.6004         63
  19.6376         52
  19.6747         70
  19.7119         68
  19.7490         67
  19.7862         69
  19.8233         65
  19.8605         62
  19.8976         87
  19.9348         75
  19.9719         60
  20.0091         67
  20.0462         59
  20.0834         56
  20.1205         73
  20.1577         53
  20.1948         63
  20.2320         65
  20.2691         58
  20.3063         80
  20.3434         84
  20.3806         70
  20.4177         78
  20.4549         59
  20.4921         83
  20.5292         64
  20.5664         72
  20.6035         60
  20.6407         78
  20.6778         61
  20.7150         70
  20.7521         57
  20.7893         57
  20.8264         66
  20.8636         66
  20.9007         78
  20.9379         59
  20.9750         63
  21.0122         69
  21.0493         86
  21.0865         74
  21.1236         78
  21.1608         91
  21.1979        110
  21.2351        112
  21.2722        113
  21.3094        131
  21.3465        190
  21.3837        153
  21.4208        149
  21.4580         90
  21.4951         82
  21.5323         64
  21.5694         73
  21.6066         77
  21.6437         72
  21.6809         67
  21.7180         67
  21.7552         62
  21.7923         65
  21.8295         79
  21.8666         78
  21.9038         81
  21.9409         64
  21.9781         59
  22.0152         65
  22.0524         57
  22.0896         66
  22.1267         72
  22.1639         63
  22.2010         59
  22.2382         58
  22.2753         75
  22.3125         67
  22.3496         73
  22.3868         75
  22.4239         68
  22.4611         68
  22.4982         70
  22.5354         65
  22.5725         77
  22.6097         78
  22.6468         75
  22.6840         71
  22.7211         63
  22.7583         70
  22.7954         68
  22.8326         85
  22.8697         69
  22.9069         68
  22.9440         78
  22.9812         82
  23.0183         88
  23.0555         88
  23.0926         62
  23.1298         86
  23.1669         70
  23.2041         71
  23.2412         77
  23.2784         87
  23.3155         75
  23.3527         69
  23.3898         66
  23.4270         63
  23.4641         52
  23.5013         69
  23.5384         75
  23.5756         76
  23.6128         77
  23.6499         68
  23.6871         77
  23.7242         77
  23.7614         86
  23.7985         61
  23.8357         58
  23.8728         69
  23.9100         73
  23.9471         69
  23.9843         56
  24.0214         73
  24.0586         77
  24.0957         74
  24.1329         83
  24.1700         76
  24.2072         77
  24.2443         77
  24.2815         88
  24.3186         80
  24.3558         81
  24.3929         68
  24.4301         87
  24.4672         73
  24.5044         80
  24.5415         76
  24.5787         78
  24.6158         76
  24.6530         93
  24.6901         73
  24.7273         75
  24.7644         70
  24.8016         70
  24.8387         75
  24.8759         60
  24.9130         71
  24.9502         83
  24.9873         84
  25.0245         73
  25.0616         62
  25.0988         69
  25.1360         90
  25.1731         78
  25.2103         62
  25.2474         68
  25.2846         60
  25.3217         67
  25.3589         73
  25.3960         75
  25.4332         56
  25.4703         67
  25.5075         80
  25.5446         72
  25.5818         85
  25.6189         67
  25.6561         77
  25.6932         89
  25.7304         77
  25.7675         73
  25.8047         66
  25.8418         78
  25.8790         76
  25.9161         68
  25.9533         74
  25.9904         72
  26.0276         71
  26.0647         70
  26.1019         63
  26.1390         92
  26.1762         64
  26.2133         64
  26.2505         61
  26.2876         74
  26.3248         69
  26.3619         67
  26.3991         64
  26.4362         63
  26.4734         69
  26.5105         65
  26.5477         84
  26.5848         77
  26.6220         80
  26.6591         78
  26.6963         68
  26.7335         73
  26.7706         83
  26.8078         66
  26.8449         68
  26.8821         79
  26.9192         55
  26.9564         76
  26.9935         70
  27.0307         72
  27.0678         73
  27.1050         67
  27.1421         86
  27.1793         77
  27.2164         89
  27.2536         74
  27.2907         68
  27.3279         67
  27.3650         85
  27.4022         72
  27.4393         70
  27.4765         70
  27.5136         69
  27.5508         83
  27.5879         66
  27.6251         61
  27.6622         70
  27.6994         62
  27.7365         60
  27.7737         68
  27.8108         61
  27.8480         93
  27.8851         57
  27.9223         60
  27.9594         63
  27.9966         68
  28.0337         71
  28.0709         55
  28.1080         74
  28.1452         60
  28.1823         60
  28.2195         61
  28.2567         65
  28.2938         51
  28.3310         60
  28.3681         56
  28.4053         63
  28.4424         64
  28.4796         65
  28.5167         71
  28.5539         74
  28.5910         62
  28.6282         68
  28.6653         63
  28.7025         73
  28.7396         65
  28.7768         66
  28.8139         62
  28.8511         68
  28.8882         63
  28.9254         67
  28.9625         61
  28.9997         63
  29.0368         71
  29.0740         52
  29.1111         64
  29.1483         39
  29.1854         60
  29.2226         63
  29.2597         40
  29.2969         60
  29.3340         60
  29.3712         48
  29.4083         63
  29.4455         56
  29.4826         69
  29.5198         56
  29.5569         64
  29.5941         60
  29.6312         45
  29.6684         58
  29.7055         57
  29.7427         52
  29.7799         47
  29.8170         57
  29.8542         70
  29.8913         35
  29.9285         58
  29.9656         52
  30.0028         47
  30.0399         58
  30.0771         55
  30.1142         71
  30.1514         59
  30.1885         63
  30.2257         58
  30.2628         56
  30.3000         53
  30.3371         77
  30.3743        117
  30.4114         85
  30.4486         82
  30.4857         72
  30.5229         63
  30.5600         65
  30.5972         58
  30.6343         54
  30.6715         68
  30.7086         65
  30.7458         61
  30.7829         50
  30.8201         51
  30.8572         56
  30.8944         43
  30.9315         50
  30.9687         63
  31.0058         48
  31.0430         48
  31.0801         50
  31.1173         55
  31.1544         54
  31.1916         54
  31.2287         54
  31.2659         48
  31.3030         40
  31.3402         61
  31.3774         48
  31.4145         47
  31.4517         58
  31.4888         50
  31.5260         54
  31.5631         49
  31.6003         46
  31.6374         59
  31.6746         61
  31.7117         46
  31.7489         41
  31.7860         49
  31.8232         51
  31.8603         50
  31.8975         49
  31.9346         52
  31.9718         35
  32.0089         55
  32.0461         52
  32.0832         52
  32.1204         41
  32.1575         61
  32.1947         41
  32.2318         51
  32.2690         43
  32.3061         44
  32.3433         46
  32.3804         54
  32.4176         46
  32.4547         51
  32.4919         51
  32.5290         67
  32.5662         58
  32.6033         53
  32.6405         57
  32.6776         58
  32.7148         50
  32.7519         56
  32.7891         46
  32.8262         45
  32.8634         48
  32.9006         40
  32.9377         55
  32.9749         40
  33.0120         48
  33.0492         43
  33.0863         38
  33.1235         43
  33.1606         41
  33.1978         36
  33.2349         48
  33.2721         43
  33.3092         35
  33.3464         42
  33.3835         40
  33.4207         34
  33.4578         39
  33.4950         41
  33.5321         39
  33.5693         38
  33.6064         43
  33.6436         52
  33.6807         49
  33.7179         49
  33.7550         43
  33.7922         40
  33.8293         38
  33.8665         52
  33.9036         34
  33.9408         37
  33.9779         52
  34.0151         49
  34.0522         51
  34.0894         45
  34.1265         41
  34.1637         35
  34.2008         48
  34.2380         50
  34.2751         42
  34.3123         49
  34.3494         39
  34.3866         55
  34.4238         38
  34.4609         50
  34.4981         41
  34.5352         45
  34.5724         38
  34.6095         37
  34.6467         37
  34.6838         47
  34.7210         65
  34.7581         65
  34.7953         48
  34.8324         45
  34.8696         45
  34.9067         34
  34.9439         37
  34.9810         48
  35.0182         40
  35.0553         32
  35.0925         44
  35.1296         40
  35.1668         48
  35.2039         37
  35.2411         42
  35.2782         40
  35.3154         32
  35.3525         47
  35.3897         48
  35.4268         30
  35.4640         42
  35.5011         35
  35.5383         41
  35.5754         33
  35.6126         36
  35.6497         37
  35.6869         41
  35.7240         40
  35.7612         42
  35.7983         39
  35.8355         41
  35.8726         32
  35.9098         26
  35.9469         40
  35.9841         31
  36.0213         42
  36.0584         37
  36.0956         33
  36.1327         30
  36.1699         34
  36.2070         34
  36.2442         30
  36.2813         36
  36.3185         32
  36.3556         35
  36.3928         34
  36.4299         26
  36.4671         41
  36.5042         47
  36.5414         44
  36.5785         45
  36.6157         49
  36.6528         34
  36.6900         29
  36.7271         32
  36.7643         33
  36.8014         30
  36.8386         47
  36.8757         34
  36.9129         36
  36.9500         37
  36.9872         30
  37.0243         32
  37.0615         37
  37.0986         33
  37.1358         36
  37.1729         41
  37.2101         34
  37.2472         37
  37.2844         37
  37.3215         36
  37.3587         34
  37.3958         43
  37.4330         60
  37.4701         51
  37.5073         43
  37.5445         43
  37.5816         39
  37.6188         42
  37.6559         30
  37.6931         29
  37.7302         34
  37.7674         36
  37.8045         36
  37.8417         38
  37.8788         32
  37.9160         28
  37.9531         28
  37.9903         41
  38.0274         36
  38.0646         26
  38.1017         38
  38.1389         34
  38.1760         29
  38.2132         32
  38.2503         27
  38.2875         33
  38.3246         23
  38.3618         26
  38.3989         28
  38.4361         35
  38.4732         25
  38.5104         27
  38.5475         32
  38.5847         29
  38.6218         27
  38.6590         32
  38.6961         28
  38.7333         17
  38.7704         36
  38.8076         24
  38.8447         34
  38.8819         40
  38.9190         37
  38.9562         31
  38.9933         32
  39.0305         26
  39.0677         25
  39.1048         26
  39.1420         31
  39.1791         27
  39.2163         30
  39.2534         31
  39.2906         23
  39.3277         31
  39.3649         30
  39.4020         32
  39.4392         30
  39.4763         24
  39.5135         33
  39.5506         47
  39.5878         20
  39.6249         17
  39.6621         28
  39.6992         31
  39.7364         20
  39.7735         31
  39.8107         33
  39.8478         30
  39.8850         31
  39.9221         23
  39.9593         34
  39.9964         24
  40.0336         30
  40.0707         30
  40.1079         34
  40.1450         35
  40.1822         29
  40.2193         22
  40.2565         33
  40.2936         22
  40.3308         32
  40.3679         31
  40.4051         27
  40.4422         27
  40.4794         31
  40.5165         26
  40.5537         32
  40.5908         24
  40.6280         23
  40.6652         37
  40.7023         35
  40.7395         22
  40.7766         27
  40.8138         29
  40.8509         18
  40.8881         33
  40.9252         24
  40.9624         40
  40.9995         22
  41.0367         21
  41.0738         31
  41.1110         27
  41.1481         25
  41.1853         35
  41.2224         28
  41.2596         34
  41.2967         37
  41.3339         24
  41.3710         26
  41.4082         23
  41.4453         30
  41.4825         24
  41.5196         33
  41.5568         31
  41.5939         31
  41.6311         29
  41.6682         18
  41.7054         32
  41.7425         21
  41.7797         28
  41.8168         23
  41.8540         28
  41.8911         27
  41.9283         26
  41.9654         24
  42.0026         28
  42.0397         23
  42.0769         31
  42.1140         24
  42.1512         28
  42.1884         26
  42.2255         32
  42.2627         29
  42.2998         25
  42.3370         35
  42.3741         35
  42.4113         20
  42.4484         24
  42.4856         22
  42.5227         22
  42.5599         32
  42.5970         22
  42.6342         28
  42.6713         40
  42.7085         26
  42.7456         33
  42.7828         23
  42.8199         22
  42.8571         27
  42.8942         29
  42.9314         24
  42.9685         27
  43.0057         22
  43.0428         25
  43.0800         25
  43.1171         35
  43.1543         28
  43.1914         29
  43.2286         28
  43.2657         38
  43.3029         23
  43.3400         28
  43.3772         35
  43.4143         15
  43.4515         23
  43.4886         37
  43.5258         45
  43.5629         31
  43.6001         39
  43.6372         34
  43.6744         35
  43.7116         33
  43.7487         31
  43.7859         36
  43.8230         28
  43.8602         29
  43.8973         26
  43.9345         18
  43.9716         29
  44.0088         26
  44.0459         27
  44.0831         16
  44.1202         28
  44.1574         20
  44.1945         23
  44.2317         32
  44.2688         21
  44.3060         32
  44.3431         28
  44.3803         28
  44.4174         23
  44.4546         20
  44.4917         24
  44.5289         16
  44.5660         28
  44.6032         30
  44.6403         26
  44.6775         26
  44.7146         28
  44.7518         37
  44.7889         34
  44.8261         37
  44.8632         28
  44.9004         16
  44.9375         36
  44.9747         28
  45.0118         29
  45.0490         29
  45.0861         20
  45.1233         23
  45.1604         32
  45.1976         23
  45.2347         27
  45.2719         19
  45.3091         21
  45.3462         31
  45.3834         26
  45.4205         23
  45.4577         26
  45.4948         21
  45.5320         31
  45.5691         27
  45.6063         25
  45.6434         30
  45.6806         24
  45.7177         29
  45.7549         18
  45.7920         30
  45.8292         28
  45.8663         21
  45.9035         22
  45.9406         29
  45.9778         27
  46.0149         17
  46.0521         31
  46.0892         28
  46.1264         27
  46.1635         27
  46.2007         19
  46.2378         18
  46.2750         21
  46.3121         24
  46.3493         30
  46.3864         28
  46.4236         24
  46.4607         27
  46.4979         24
  46.5350         18
  46.5722         25
  46.6093         26
  46.6465         26
  46.6836         30
  46.7208         27
  46.7579         19
  46.7951         29
  46.8323         22
  46.8694         28
  46.9066         33
  46.9437         26
  46.9809         18
  47.0180         30
  47.0552         28
  47.0923         14
  47.1295         24
  47.1666         18
  47.2038         26
  47.2409         20
  47.2781         16
  47.3152         21
  47.3524         22
  47.3895         20
  47.4267         36
  47.4638         27
  47.5010         28
  47.5381         22
  47.5753         15
  47.6124         24
  47.6496         30
  47.6867         28
  47.7239         24
  47.7610         23
  47.7982         20
  47.8353         24
  47.8725         21
  47.9096         21
  47.9468         25
  47.9839         24
  48.0211         25
  48.0582         27
  48.0954         22
  48.1325         26
  48.1697         27
  48.2068         23
  48.2440         21
  48.2811         22
  48.3183         21
  48.3555         26
  48.3926         26
  48.4298         21
  48.4669         28
  48.5041         28
  48.5412         14
  48.5784         20
  48.6155         25
  48.6527         21
  48.6898         20
  48.7270         29
  48.7641         19
  48.8013         29
  48.8384         26
  48.8756         28
  48.9127         35
  48.9499         41
  48.9870         34
  49.0242         34
  49.0613         34
  49.0985         35
  49.1356         21
  49.1728         23
  49.2099         23
  49.2471         19
  49.2842         28
  49.3214         24
  49.3585         22
  49.3957         19
  49.4328         20
  49.4700         31
  49.5071         28
  49.5443         16
  49.5814         15
  49.6186         25
  49.6557         24
  49.6929         36
  49.7300         24
  49.7672         26
  49.8043         22
  49.8415         23
  49.8786         19
  49.9158         20
  49.9530         21
  49.9901         20
  50.0273         28
  50.0644         28
  50.1016         25
  50.1387         31
  50.1759         21
  50.2130         19
  50.2502         21
  50.2873         20
  50.3245         26
  50.3616         31
  50.3988         29
  50.4359         21
  50.4731         26
  50.5102         15
  50.5474         22
  50.5845         18
  50.6217         17
  50.6588         22
  50.6960         18
  50.7331         14
  50.7703         27
  50.8074         20
  50.8446         21
  50.8817         28
  50.9189         24
  50.9560         27
  50.9932         32
  51.0303         19
  51.0675         17
  51.1046         25
  51.1418         20
  51.1789         22
  51.2161         21
  51.2532         24
  51.2904         14
  51.3275         23
  51.3647         26
  51.4018         29
  51.4390         31
  51.4762         21
  51.5133         18
  51.5505         26
  51.5876         26
  51.6248         32
  51.6619         19
  51.6991         24
  51.7362         24
  51.7734         27
  51.8105         19
  51.8477         23
  51.8848         32
  51.9220         12
  51.9591         25
  51.9963         26
  52.0334         16
  52.0706         20
  52.1077         31
  52.1449         25
  52.1820         22
  52.2192         26
  52.2563         27
  52.2935         25
  52.3306         21
  52.3678         23
  52.4049         26
  52.4421         20
  52.4792         28
  52.5164         17
  52.5535         21
  52.5907         18
  52.6278         18
  52.6650         26
  52.7021         18
  52.7393         33
  52.7764         22
  52.8136         23
  52.8507         25
  52.8879         15
  52.9250         20
  52.9622         22
  52.9994         25
  53.0365         18
  53.0737         25
  53.1108         28
  53.1480         31
  53.1851         27
  53.2223         24
  53.2594         23
  53.2966         14
  53.3337         24
  53.3709         13
  53.4080         27
  53.4452         17
  53.4823         23
  53.5195         17
  53.5566         22
  53.5938         25
  53.6309         26
  53.6681         32
  53.7052         21
  53.7424         15
  53.7795         17
  53.8167         23
  53.8538         22
  53.8910         27
  53.9281         21
  53.9653         24
  54.0024         24
  54.0396         27
  54.0767         27
  54.1139         26
  54.1510         32
  54.1882         32
  54.2253         24
  54.2625         23
  54.2996         15
  54.3368         20
  54.3739         23
  54.4111         23
  54.4482         25
  54.4854         16
  54.5225         11
  54.5597         20
  54.5969         25
  54.6340         20
  54.6712         17
  54.7083         22
  54.7455         20
  54.7826         27
  54.8198         25
  54.8569         21
  54.8941         18
  54.9312         18
  54.9684         21
  55.0055         20
  55.0427         20
  55.0798         13
  55.1170         23
  55.1541         22
  55.1913         14
  55.2284         28
  55.2656         15
  55.3027         17
  55.3399         19
  55.3770         26
  55.4142         28
  55.4513         21
  55.4885         25
  55.5256         20
  55.5628         21
  55.5999         11
  55.6371         20
  55.6742         27
  55.7114         23
  55.7485         16
  55.7857         27
  55.8228         25
  55.8600         23
  55.8971         23
  55.9343         17
  55.9714         17
  56.0086         26
  56.0457         22
  56.0829         24
  56.1201         18
  56.1572         24
  56.1944         20
  56.2315         21
  56.2687         22
  56.3058         19
  56.3430         20
  56.3801         25
  56.4173         24
  56.4544         25
  56.4916         25
  56.5287         22
  56.5659         23
  56.6030         19
  56.6402         24
  56.6773         27
  56.7145         17
  56.7516         17
  56.7888         13
  56.8259         33
  56.8631         20
  56.9002         29
  56.9374         26
  56.9745         20
  57.0117         22
  57.0488         19
  57.0860         25
  57.1231         21
  57.1603         15
  57.1974         23
  57.2346         22
  57.2717         19
  57.3089         24
  57.3460         21
  57.3832         21
  57.4203         18
  57.4575         20
  57.4946         17
  57.5318         16
  57.5689         25
  57.6061         20
  57.6433         19
  57.6804         18
  57.7176         18
  57.7547         25
  57.7919         22
  57.8290         17
  57.8662         13
  57.9033         17
  57.9405         31
  57.9776         17
  58.0148         22
  58.0519         23
  58.0891         19
  58.1262         16
  58.1634         29
  58.2005         20
  58.2377         17
  58.2748         17
  58.3120         22
  58.3491         13
  58.3863         23
  58.4234         16
  58.4606         26
  58.4977         20
  58.5349         16
  58.5720         32
  58.6092         21
  58.6463         18
  58.6835         18
  58.7206         16
  58.7578         23
  58.7949         15
  58.8321         17
  58.8692         13
  58.9064         18
  58.9435         19
  58.9807         16
  59.0178         18
  59.0550         21
  59.0921         12
  59.1293         23
  59.1664         24
  59.2036         17
  59.2408         18
  59.2779         18
  59.3151         16
  59.3522         18
  59.3894         17
  59.4265         11
  59.4637         12
  59.5008         23
  59.5380         22
  59.5751         23
  59.6123         25
  59.6494         23
  59.6866         20
  59.7237         16
  59.7609         26
  59.7980         21
  59.8352         18
  59.8723         21
  59.9095         19
  59.9466         22
  59.9838         21
  60.0024         16