File: notebooks/data/xrd_data/ML_20220718_43_SJD_4_LaB6-2min.uxd
; (content of file Y:\Sam\Apurva-07-20-2022\puck4\ML_20220718_43_SJD_4_LaB6-2min.raw)
_FILEVERSION = 3
_SAMPLE = ML_20220718_43_SJD_4_LaB6-2min
_+SAMPLE =
_SITE = USA
_USER = Administrator
_GONIOMETER_CODE = 20
; Goniometer : D8 theta/2theta, stage : Unknown
_ATTACHMENTS_CODE = 0
_GONIOMETER_RADIUS = 200.5
_FIXED_DIVSLIT = 0.6
_FIXED_SAMPLESLIT = 0
_SOLLER_SLITS = 2
_FIXED_DETSLIT = 9.55
_MONOCHROMATOR = 0
; Incident beam monochromator : None
_SOLLER_SLITS_2 = N
_THIN_FILM = N
_BETA_FILTER = Y
_FIXED_ANTISLIT = 5.89
_ANALYZER_CODE = 0
; Received beam analyzer : None
_DATEMEASURED = "26-Jul-2022 12:10:54"
_WL_UNIT = A
_WL1 = 1.5406
_WL2 = 1.54439
_WL3 = 1.39222
_WLRATIO = 0.5
_ANODE = Cu
_V4_INF_CREATOR = XRDWizard
_V4_INF_CREATOR_VERSION = V2.9.0.22
_V4_INF_WIZARD_VERSION = V2.9.0.22
_V4_INF_WIZARD_ADDINS = V2.9.0.22
_V4_INF_WIZARD_DOCTYPE = XRD
_V4_INF_OSUSER = McQueenLab
_V4_INF_USER = Administrator
_V4_INF_SITE = USA
_V4_INF_SAMPLEID = ML_20220718_43_SJD_4_LaB6-2min

; Data for range 1
_DRIVE = COUPLED
_STEPTIME = 5.64
_STEPSIZE = 0.0185756
_STEPMODE = C
_START = 5
_THETA = 2.5
_2THETA = 5
_KHI = 0
_PHI = 0
_X = 0
_Y = 0
_Z = 0
_DETECTOR = 5
; Detector type : Unknown
_DETECTORSLIT = unkn
_AUX1 = 0
_AUX2 = 0
_AUX3 = 0
_TIMESTARTED = 15
_TEMP_RATE = -1
_TEMP_DELAY = -1
_KV = 40
_MA = 40
_RANGE_WL = 1.5406
_3DPLANE = 0
_V4_ADDITIONALDETECTOR = 257
_V4_PSD2THETA = 3.3682
_V4_PSDCHANNEL1 = 0
_V4_PSDAPERTURE = 12.68
_V4_PSDTYPE = 5
_V4_PSDFIXED = 0
_V4_COUNTERS_MASK = 4096
_V4_DRIVES_MASK = 0
_V4_ENCODERS_MASK = 0
_2THETACOUNTS = 1
; 2THETA  PSD
   5.0000        129
   5.0372        123
   5.0743        127
   5.1115        122
   5.1486        105
   5.1858        120
   5.2229        113
   5.2601        127
   5.2972         99
   5.3344        105
   5.3715        117
   5.4087        117
   5.4458        108
   5.4830        108
   5.5201        116
   5.5573        123
   5.5944        113
   5.6316        103
   5.6687         97
   5.7059        105
   5.7430        100
   5.7802        116
   5.8173         96
   5.8545         99
   5.8916        105
   5.9288        105
   5.9659        110
   6.0031        111
   6.0402         95
   6.0774        111
   6.1145         95
   6.1517         90
   6.1888         91
   6.2260        103
   6.2631         77
   6.3003         95
   6.3374         96
   6.3746         92
   6.4117        101
   6.4489         89
   6.4860         98
   6.5232         65
   6.5604         79
   6.5975         76
   6.6347         98
   6.6718        104
   6.7090         87
   6.7461         79
   6.7833         86
   6.8204         81
   6.8576         78
   6.8947         77
   6.9319         83
   6.9690         71
   7.0062         82
   7.0433         93
   7.0805         79
   7.1176         76
   7.1548         78
   7.1919         89
   7.2291         83
   7.2662         82
   7.3034         85
   7.3405         77
   7.3777         77
   7.4148         70
   7.4520         76
   7.4891         66
   7.5263         81
   7.5634         73
   7.6006         83
   7.6377         89
   7.6749         85
   7.7120         87
   7.7492         79
   7.7863         77
   7.8235        102
   7.8606         96
   7.8978         79
   7.9349         95
   7.9721         88
   8.0092        100
   8.0464         98
   8.0835         96
   8.1207         94
   8.1579        100
   8.1950         84
   8.2322        108
   8.2693         94
   8.3065        100
   8.3436        101
   8.3808         96
   8.4179         88
   8.4551        101
   8.4922         95
   8.5294        100
   8.5665        106
   8.6037         92
   8.6408         96
   8.6780         91
   8.7151        114
   8.7523        119
   8.7894        111
   8.8266        108
   8.8637        124
   8.9009         86
   8.9380         90
   8.9752        106
   9.0123        100
   9.0495         97
   9.0866        102
   9.1238        107
   9.1609        104
   9.1981        108
   9.2352        132
   9.2724        115
   9.3095        110
   9.3467        114
   9.3838        114
   9.4210        144
   9.4581        114
   9.4953        117
   9.5324        109
   9.5696        113
   9.6067        104
   9.6439        123
   9.6811         99
   9.7182        114
   9.7554        112
   9.7925        112
   9.8297        139
   9.8668        111
   9.9040        118
   9.9411        110
   9.9783        108
  10.0154        116
  10.0526        126
  10.0897        124
  10.1269        121
  10.1640        122
  10.2012        124
  10.2383        109
  10.2755        115
  10.3126        118
  10.3498        117
  10.3869        125
  10.4241        103
  10.4612        131
  10.4984         99
  10.5355        121
  10.5727        121
  10.6098        103
  10.6470        104
  10.6841        108
  10.7213        132
  10.7584        135
  10.7956        121
  10.8327        121
  10.8699        120
  10.9070        129
  10.9442        110
  10.9813        130
  11.0185        116
  11.0556        118
  11.0928        116
  11.1299        112
  11.1671        102
  11.2043        117
  11.2414        134
  11.2786        121
  11.3157        142
  11.3529        108
  11.3900        122
  11.4272        109
  11.4643        108
  11.5015        117
  11.5386        106
  11.5758        126
  11.6129        103
  11.6501        128
  11.6872        120
  11.7244        124
  11.7615        114
  11.7987        120
  11.8358        119
  11.8730        105
  11.9101        122
  11.9473        103
  11.9844        120
  12.0216        106
  12.0587        122
  12.0959        116
  12.1330        115
  12.1702         94
  12.2073        103
  12.2445        108
  12.2816        106
  12.3188        107
  12.3559        113
  12.3931        120
  12.4302        101
  12.4674        114
  12.5045        104
  12.5417        110
  12.5788        119
  12.6160        104
  12.6531        100
  12.6903        106
  12.7274         97
  12.7646        111
  12.8018         91
  12.8389        109
  12.8761        105
  12.9132        120
  12.9504        112
  12.9875        109
  13.0247        109
  13.0618        100
  13.0990        108
  13.1361        102
  13.1733        101
  13.2104         97
  13.2476        105
  13.2847        101
  13.3219         88
  13.3590         95
  13.3962        120
  13.4333        116
  13.4705        101
  13.5076        109
  13.5448        101
  13.5819        103
  13.6191         98
  13.6562        106
  13.6934         93
  13.7305         87
  13.7677        106
  13.8048         93
  13.8420         90
  13.8791         95
  13.9163         98
  13.9534         79
  13.9906        102
  14.0277         99
  14.0649         69
  14.1020         79
  14.1392         99
  14.1763         89
  14.2135         90
  14.2506         92
  14.2878         86
  14.3250        100
  14.3621         85
  14.3993         87
  14.4364         74
  14.4736        107
  14.5107         79
  14.5479         95
  14.5850         93
  14.6222         81
  14.6593         95
  14.6965         83
  14.7336         89
  14.7708         83
  14.8079         88
  14.8451         83
  14.8822         70
  14.9194         75
  14.9565         80
  14.9937         83
  15.0308         80
  15.0680         87
  15.1051         92
  15.1423         76
  15.1794         73
  15.2166         69
  15.2537         81
  15.2909         83
  15.3280         81
  15.3652         72
  15.4023         76
  15.4395         93
  15.4766         82
  15.5138         86
  15.5509         89
  15.5881         94
  15.6252         68
  15.6624         79
  15.6995         69
  15.7367         74
  15.7738        104
  15.8110         69
  15.8482         81
  15.8853         84
  15.9225         71
  15.9596         82
  15.9968         77
  16.0339         75
  16.0711         80
  16.1082         61
  16.1454         96
  16.1825         84
  16.2197         82
  16.2568         78
  16.2940         83
  16.3311         76
  16.3683         75
  16.4054         67
  16.4426         68
  16.4797         70
  16.5169         68
  16.5540         85
  16.5912         72
  16.6283         77
  16.6655         73
  16.7026         89
  16.7398         79
  16.7769         80
  16.8141         79
  16.8512         92
  16.8884         86
  16.9255         77
  16.9627         67
  16.9998         99
  17.0370         93
  17.0741         98
  17.1113         75
  17.1484         82
  17.1856         91
  17.2227         67
  17.2599         67
  17.2970         71
  17.3342         89
  17.3713         76
  17.4085         73
  17.4457         72
  17.4828         83
  17.5200         83
  17.5571         90
  17.5943         83
  17.6314         84
  17.6686         73
  17.7057         87
  17.7429         70
  17.7800         87
  17.8172         78
  17.8543         77
  17.8915         80
  17.9286         76
  17.9658         74
  18.0029         70
  18.0401         83
  18.0772         69
  18.1144         76
  18.1515         82
  18.1887         75
  18.2258         88
  18.2630         83
  18.3001         85
  18.3373         78
  18.3744         94
  18.4116         72
  18.4487         77
  18.4859         99
  18.5230         92
  18.5602         88
  18.5973         68
  18.6345         81
  18.6716         80
  18.7088         74
  18.7459         93
  18.7831         86
  18.8202         94
  18.8574         91
  18.8945         73
  18.9317         81
  18.9689         96
  19.0060         83
  19.0432         83
  19.0803         94
  19.1175         83
  19.1546         81
  19.1918         97
  19.2289         86
  19.2661         84
  19.3032         75
  19.3404         99
  19.3775         87
  19.4147         75
  19.4518         95
  19.4890         74
  19.5261         94
  19.5633         86
  19.6004         98
  19.6376         83
  19.6747         88
  19.7119         75
  19.7490         74
  19.7862         94
  19.8233         81
  19.8605         66
  19.8976         73
  19.9348         81
  19.9719        107
  20.0091         67
  20.0462        102
  20.0834         99
  20.1205         68
  20.1577         99
  20.1948         86
  20.2320         89
  20.2691        104
  20.3063         86
  20.3434         92
  20.3806        103
  20.4177        115
  20.4549         94
  20.4921         87
  20.5292         79
  20.5664         97
  20.6035        104
  20.6407         97
  20.6778         94
  20.7150         90
  20.7521        104
  20.7893         82
  20.8264         97
  20.8636         95
  20.9007        104
  20.9379         93
  20.9750         81
  21.0122         97
  21.0493         89
  21.0865        112
  21.1236        111
  21.1608        106
  21.1979        131
  21.2351        156
  21.2722        145
  21.3094        165
  21.3465        259
  21.3837        197
  21.4208        167
  21.4580        121
  21.4951        108
  21.5323        102
  21.5694         93
  21.6066         88
  21.6437        106
  21.6809        107
  21.7180        106
  21.7552        104
  21.7923        105
  21.8295        100
  21.8666        107
  21.9038         82
  21.9409        108
  21.9781         87
  22.0152         90
  22.0524         91
  22.0896        102
  22.1267        109
  22.1639        104
  22.2010         91
  22.2382        102
  22.2753         97
  22.3125         88
  22.3496         99
  22.3868        103
  22.4239        106
  22.4611         95
  22.4982         99
  22.5354        100
  22.5725         94
  22.6097         97
  22.6468        103
  22.6840         82
  22.7211        108
  22.7583         96
  22.7954        100
  22.8326         82
  22.8697         97
  22.9069         91
  22.9440         96
  22.9812        104
  23.0183        103
  23.0555        106
  23.0926         97
  23.1298        106
  23.1669        103
  23.2041         99
  23.2412         92
  23.2784        105
  23.3155         81
  23.3527        110
  23.3898         90
  23.4270        109
  23.4641         93
  23.5013         90
  23.5384        100
  23.5756        102
  23.6128        104
  23.6499        115
  23.6871         95
  23.7242        105
  23.7614        102
  23.7985         98
  23.8357        109
  23.8728         92
  23.9100        100
  23.9471        116
  23.9843         95
  24.0214        110
  24.0586         96
  24.0957         84
  24.1329        112
  24.1700         90
  24.2072         91
  24.2443         86
  24.2815        118
  24.3186        114
  24.3558        109
  24.3929        113
  24.4301         90
  24.4672         94
  24.5044         94
  24.5415         99
  24.5787         90
  24.6158         93
  24.6530         96
  24.6901        107
  24.7273        100
  24.7644        112
  24.8016         85
  24.8387         82
  24.8759         86
  24.9130         95
  24.9502         93
  24.9873        107
  25.0245        117
  25.0616         89
  25.0988        106
  25.1360        102
  25.1731         92
  25.2103        103
  25.2474         99
  25.2846        101
  25.3217         89
  25.3589         97
  25.3960         97
  25.4332        104
  25.4703        122
  25.5075         87
  25.5446         90
  25.5818         90
  25.6189        109
  25.6561        102
  25.6932        114
  25.7304        106
  25.7675         89
  25.8047         95
  25.8418         98
  25.8790         90
  25.9161         99
  25.9533         87
  25.9904        101
  26.0276         96
  26.0647         96
  26.1019        110
  26.1390         89
  26.1762         88
  26.2133        104
  26.2505         93
  26.2876         84
  26.3248         92
  26.3619         78
  26.3991         82
  26.4362         86
  26.4734         89
  26.5105        105
  26.5477         86
  26.5848        114
  26.6220         86
  26.6591         90
  26.6963        104
  26.7335         91
  26.7706         88
  26.8078         74
  26.8449         87
  26.8821         87
  26.9192         88
  26.9564         85
  26.9935         95
  27.0307         87
  27.0678         85
  27.1050         98
  27.1421         81
  27.1793        116
  27.2164        136
  27.2536        112
  27.2907        119
  27.3279        108
  27.3650         99
  27.4022         80
  27.4393        102
  27.4765        105
  27.5136         81
  27.5508         81
  27.5879         89
  27.6251         87
  27.6622         90
  27.6994        109
  27.7365         83
  27.7737         81
  27.8108         88
  27.8480         87
  27.8851         88
  27.9223         98
  27.9594         85
  27.9966         94
  28.0337         94
  28.0709         66
  28.1080         89
  28.1452         77
  28.1823         79
  28.2195         97
  28.2567         76
  28.2938         67
  28.3310         88
  28.3681         79
  28.4053         86
  28.4424         84
  28.4796         77
  28.5167         83
  28.5539         85
  28.5910         82
  28.6282         84
  28.6653         87
  28.7025         81
  28.7396         78
  28.7768         71
  28.8139        103
  28.8511         82
  28.8882         89
  28.9254         74
  28.9625         77
  28.9997         93
  29.0368         76
  29.0740         82
  29.1111         76
  29.1483         94
  29.1854         79
  29.2226         76
  29.2597         85
  29.2969         89
  29.3340         96
  29.3712         73
  29.4083         81
  29.4455         82
  29.4826         76
  29.5198         84
  29.5569         90
  29.5941         80
  29.6312         75
  29.6684         86
  29.7055         84
  29.7427         95
  29.7799         75
  29.8170         68
  29.8542         65
  29.8913         75
  29.9285         67
  29.9656         75
  30.0028         76
  30.0399         80
  30.0771         88
  30.1142         74
  30.1514         63
  30.1885         85
  30.2257         95
  30.2628         75
  30.3000         57
  30.3371        108
  30.3743        155
  30.4114        150
  30.4486        120
  30.4857        106
  30.5229         72
  30.5600         94
  30.5972         79
  30.6343         74
  30.6715         69
  30.7086         79
  30.7458         63
  30.7829         74
  30.8201         64
  30.8572         72
  30.8944         76
  30.9315         71
  30.9687         70
  31.0058         69
  31.0430         73
  31.0801         67
  31.1173         79
  31.1544         75
  31.1916         60
  31.2287         74
  31.2659         66
  31.3030         69
  31.3402         66
  31.3774         77
  31.4145         66
  31.4517         66
  31.4888         75
  31.5260         81
  31.5631         57
  31.6003         69
  31.6374         63
  31.6746         70
  31.7117         66
  31.7489         62
  31.7860         63
  31.8232         63
  31.8603         47
  31.8975         55
  31.9346         75
  31.9718         70
  32.0089         54
  32.0461         74
  32.0832         52
  32.1204         58
  32.1575         64
  32.1947         66
  32.2318         75
  32.2690         60
  32.3061         60
  32.3433         69
  32.3804         81
  32.4176         81
  32.4547         83
  32.4919         73
  32.5290         71
  32.5662         75
  32.6033         65
  32.6405         55
  32.6776         76
  32.7148         61
  32.7519         54
  32.7891         64
  32.8262         52
  32.8634         62
  32.9006         60
  32.9377         67
  32.9749         56
  33.0120         49
  33.0492         49
  33.0863         61
  33.1235         54
  33.1606         63
  33.1978         58
  33.2349         63
  33.2721         56
  33.3092         49
  33.3464         63
  33.3835         51
  33.4207         60
  33.4578         55
  33.4950         66
  33.5321         68
  33.5693         49
  33.6064         48
  33.6436         65
  33.6807         54
  33.7179         55
  33.7550         61
  33.7922         55
  33.8293         57
  33.8665         56
  33.9036         63
  33.9408         54
  33.9779         55
  34.0151         73
  34.0522         61
  34.0894         50
  34.1265         61
  34.1637         67
  34.2008         53
  34.2380         51
  34.2751         66
  34.3123         38
  34.3494         64
  34.3866         57
  34.4238         54
  34.4609         59
  34.4981         57
  34.5352         58
  34.5724         60
  34.6095         56
  34.6467         59
  34.6838         54
  34.7210         78
  34.7581         79
  34.7953         80
  34.8324         81
  34.8696         53
  34.9067         56
  34.9439         54
  34.9810         53
  35.0182         65
  35.0553         62
  35.0925         47
  35.1296         47
  35.1668         45
  35.2039         50
  35.2411         56
  35.2782         56
  35.3154         46
  35.3525         63
  35.3897         37
  35.4268         60
  35.4640         51
  35.5011         46
  35.5383         57
  35.5754         59
  35.6126         61
  35.6497         54
  35.6869         46
  35.7240         47
  35.7612         53
  35.7983         56
  35.8355         48
  35.8726         46
  35.9098         39
  35.9469         42
  35.9841         56
  36.0213         47
  36.0584         46
  36.0956         63
  36.1327         38
  36.1699         42
  36.2070         50
  36.2442         44
  36.2813         57
  36.3185         57
  36.3556         53
  36.3928         46
  36.4299         56
  36.4671         42
  36.5042         50
  36.5414         55
  36.5785         39
  36.6157         42
  36.6528         33
  36.6900         52
  36.7271         52
  36.7643         34
  36.8014         44
  36.8386         45
  36.8757         50
  36.9129         60
  36.9500         49
  36.9872         46
  37.0243         40
  37.0615         38
  37.0986         36
  37.1358         44
  37.1729         43
  37.2101         57
  37.2472         44
  37.2844         45
  37.3215         32
  37.3587         59
  37.3958         53
  37.4330         70
  37.4701         66
  37.5073         62
  37.5445         42
  37.5816         46
  37.6188         40
  37.6559         37
  37.6931         46
  37.7302         38
  37.7674         56
  37.8045         38
  37.8417         42
  37.8788         51
  37.9160         37
  37.9531         42
  37.9903         51
  38.0274         48
  38.0646         44
  38.1017         37
  38.1389         35
  38.1760         42
  38.2132         42
  38.2503         51
  38.2875         48
  38.3246         48
  38.3618         36
  38.3989         35
  38.4361         45
  38.4732         51
  38.5104         52
  38.5475         43
  38.5847         41
  38.6218         38
  38.6590         45
  38.6961         43
  38.7333         45
  38.7704         40
  38.8076         40
  38.8447         45
  38.8819         36
  38.9190         42
  38.9562         38
  38.9933         46
  39.0305         33
  39.0677         49
  39.1048         32
  39.1420         44
  39.1791         46
  39.2163         49
  39.2534         38
  39.2906         42
  39.3277         45
  39.3649         50
  39.4020         40
  39.4392         30
  39.4763         44
  39.5135         42
  39.5506         39
  39.5878         37
  39.6249         47
  39.6621         34
  39.6992         46
  39.7364         39
  39.7735         47
  39.8107         34
  39.8478         36
  39.8850         35
  39.9221         40
  39.9593         43
  39.9964         34
  40.0336         32
  40.0707         48
  40.1079         28
  40.1450         27
  40.1822         35
  40.2193         42
  40.2565         35
  40.2936         42
  40.3308         34
  40.3679         47
  40.4051         48
  40.4422         45
  40.4794         36
  40.5165         41
  40.5537         44
  40.5908         47
  40.6280         42
  40.6652         35
  40.7023         25
  40.7395         38
  40.7766         38
  40.8138         41
  40.8509         34
  40.8881         26
  40.9252         40
  40.9624         49
  40.9995         53
  41.0367         34
  41.0738         31
  41.1110         35
  41.1481         46
  41.1853         42
  41.2224         36
  41.2596         31
  41.2967         35
  41.3339         44
  41.3710         45
  41.4082         46
  41.4453         25
  41.4825         35
  41.5196         41
  41.5568         29
  41.5939         41
  41.6311         44
  41.6682         36
  41.7054         32
  41.7425         33
  41.7797         44
  41.8168         38
  41.8540         32
  41.8911         33
  41.9283         37
  41.9654         40
  42.0026         44
  42.0397         40
  42.0769         33
  42.1140         30
  42.1512         48
  42.1884         33
  42.2255         32
  42.2627         34
  42.2998         33
  42.3370         35
  42.3741         45
  42.4113         30
  42.4484         51
  42.4856         43
  42.5227         47
  42.5599         34
  42.5970         41
  42.6342         37
  42.6713         41
  42.7085         29
  42.7456         40
  42.7828         32
  42.8199         32
  42.8571         35
  42.8942         32
  42.9314         25
  42.9685         37
  43.0057         30
  43.0428         27
  43.0800         41
  43.1171         31
  43.1543         34
  43.1914         40
  43.2286         58
  43.2657         35
  43.3029         32
  43.3400         52
  43.3772         40
  43.4143         38
  43.4515         41
  43.4886         65
  43.5258         56
  43.5629         40
  43.6001         52
  43.6372         51
  43.6744         37
  43.7116         33
  43.7487         36
  43.7859         36
  43.8230         29
  43.8602         32
  43.8973         30
  43.9345         38
  43.9716         35
  44.0088         35
  44.0459         45
  44.0831         37
  44.1202         33
  44.1574         22
  44.1945         43
  44.2317         34
  44.2688         33
  44.3060         40
  44.3431         38
  44.3803         34
  44.4174         45
  44.4546         44
  44.4917         33
  44.5289         29
  44.5660         38
  44.6032         34
  44.6403         31
  44.6775         32
  44.7146         47
  44.7518         36
  44.7889         32
  44.8261         39
  44.8632         45
  44.9004         36
  44.9375         26
  44.9747         36
  45.0118         24
  45.0490         41
  45.0861         33
  45.1233         37
  45.1604         27
  45.1976         37
  45.2347         52
  45.2719         27
  45.3091         34
  45.3462         34
  45.3834         43
  45.4205         26
  45.4577         35
  45.4948         37
  45.5320         38
  45.5691         28
  45.6063         33
  45.6434         32
  45.6806         25
  45.7177         22
  45.7549         30
  45.7920         35
  45.8292         34
  45.8663         39
  45.9035         29
  45.9406         36
  45.9778         44
  46.0149         37
  46.0521         34
  46.0892         35
  46.1264         34
  46.1635         25
  46.2007         38
  46.2378         39
  46.2750         38
  46.3121         33
  46.3493         27
  46.3864         36
  46.4236         30
  46.4607         25
  46.4979         30
  46.5350         30
  46.5722         30
  46.6093         30
  46.6465         27
  46.6836         29
  46.7208         27
  46.7579         28
  46.7951         25
  46.8323         34
  46.8694         36
  46.9066         18
  46.9437         32
  46.9809         29
  47.0180         37
  47.0552         30
  47.0923         27
  47.1295         41
  47.1666         42
  47.2038         24
  47.2409         25
  47.2781         31
  47.3152         22
  47.3524         26
  47.3895         33
  47.4267         35
  47.4638         29
  47.5010         34
  47.5381         22
  47.5753         46
  47.6124         39
  47.6496         32
  47.6867         25
  47.7239         35
  47.7610         34
  47.7982         32
  47.8353         34
  47.8725         29
  47.9096         38
  47.9468         36
  47.9839         29
  48.0211         24
  48.0582         37
  48.0954         42
  48.1325         32
  48.1697         36
  48.2068         35
  48.2440         24
  48.2811         27
  48.3183         37
  48.3555         27
  48.3926         37
  48.4298         24
  48.4669         30
  48.5041         38
  48.5412         49
  48.5784         30
  48.6155         26
  48.6527         38
  48.6898         27
  48.7270         28
  48.7641         26
  48.8013         28
  48.8384         28
  48.8756         40
  48.9127         41
  48.9499         74
  48.9870         64
  49.0242         38
  49.0613         47
  49.0985         48
  49.1356         35
  49.1728         29
  49.2099         29
  49.2471         40
  49.2842         35
  49.3214         19
  49.3585         33
  49.3957         36
  49.4328         28
  49.4700         33
  49.5071         36
  49.5443         29
  49.5814         33
  49.6186         30
  49.6557         27
  49.6929         36
  49.7300         32
  49.7672         29
  49.8043         32
  49.8415         28
  49.8786         19
  49.9158         25
  49.9530         29
  49.9901         28
  50.0273         28
  50.0644         26
  50.1016         34
  50.1387         30
  50.1759         33
  50.2130         29
  50.2502         30
  50.2873         32
  50.3245         25
  50.3616         31
  50.3988         30
  50.4359         34
  50.4731         33
  50.5102         38
  50.5474         36
  50.5845         30
  50.6217         29
  50.6588         33
  50.6960         24
  50.7331         27
  50.7703         33
  50.8074         35
  50.8446         16
  50.8817         30
  50.9189         22
  50.9560         25
  50.9932         31
  51.0303         35
  51.0675         27
  51.1046         29
  51.1418         33
  51.1789         28
  51.2161         26
  51.2532         20
  51.2904         28
  51.3275         26
  51.3647         39
  51.4018         41
  51.4390         25
  51.4762         31
  51.5133         26
  51.5505         30
  51.5876         29
  51.6248         30
  51.6619         37
  51.6991         28
  51.7362         41
  51.7734         28
  51.8105         41
  51.8477         24
  51.8848         26
  51.9220         30
  51.9591         36
  51.9963         33
  52.0334         31
  52.0706         32
  52.1077         23
  52.1449         38
  52.1820         30
  52.2192         32
  52.2563         23
  52.2935         21
  52.3306         24
  52.3678         25
  52.4049         25
  52.4421         25
  52.4792         31
  52.5164         45
  52.5535         34
  52.5907         20
  52.6278         35
  52.6650         32
  52.7021         28
  52.7393         22
  52.7764         22
  52.8136         21
  52.8507         27
  52.8879         32
  52.9250         25
  52.9622         28
  52.9994         38
  53.0365         22
  53.0737         33
  53.1108         31
  53.1480         36
  53.1851         25
  53.2223         37
  53.2594         27
  53.2966         26
  53.3337         34
  53.3709         23
  53.4080         24
  53.4452         34
  53.4823         24
  53.5195         29
  53.5566         25
  53.5938         28
  53.6309         19
  53.6681         36
  53.7052         21
  53.7424         22
  53.7795         33
  53.8167         27
  53.8538         31
  53.8910         30
  53.9281         25
  53.9653         36
  54.0024         57
  54.0396         33
  54.0767         32
  54.1139         31
  54.1510         41
  54.1882         31
  54.2253         38
  54.2625         29
  54.2996         30
  54.3368         35
  54.3739         20
  54.4111         25
  54.4482         25
  54.4854         31
  54.5225         31
  54.5597         32
  54.5969         28
  54.6340         33
  54.6712         34
  54.7083         27
  54.7455         35
  54.7826         34
  54.8198         38
  54.8569         33
  54.8941         29
  54.9312         26
  54.9684         23
  55.0055         31
  55.0427         23
  55.0798         34
  55.1170         36
  55.1541         39
  55.1913         32
  55.2284         35
  55.2656         31
  55.3027         34
  55.3399         24
  55.3770         31
  55.4142         23
  55.4513         20
  55.4885         29
  55.5256         28
  55.5628         30
  55.5999         32
  55.6371         27
  55.6742         31
  55.7114         33
  55.7485         32
  55.7857         29
  55.8228         42
  55.8600         20
  55.8971         27
  55.9343         28
  55.9714         24
  56.0086         26
  56.0457         26
  56.0829         29
  56.1201         42
  56.1572         25
  56.1944         30
  56.2315         38
  56.2687         26
  56.3058         30
  56.3430         46
  56.3801         24
  56.4173         29
  56.4544         25
  56.4916         29
  56.5287         19
  56.5659         28
  56.6030         21
  56.6402         29
  56.6773         35
  56.7145         29
  56.7516         33
  56.7888         25
  56.8259         37
  56.8631         23
  56.9002         32
  56.9374         24
  56.9745         29
  57.0117         39
  57.0488         28
  57.0860         35
  57.1231         26
  57.1603         32
  57.1974         18
  57.2346         28
  57.2717         25
  57.3089         27
  57.3460         26
  57.3832         33
  57.4203         24
  57.4575         21
  57.4946         33
  57.5318         26
  57.5689         26
  57.6061         31
  57.6433         28
  57.6804         23
  57.7176         25
  57.7547         26
  57.7919         35
  57.8290         26
  57.8662         25
  57.9033         22
  57.9405         28
  57.9776         30
  58.0148         44
  58.0519         24
  58.0891         26
  58.1262         20
  58.1634         20
  58.2005         20
  58.2377         24
  58.2748         25
  58.3120         26
  58.3491         30
  58.3863         29
  58.4234         26
  58.4606         31
  58.4977         25
  58.5349         38
  58.5720         24
  58.6092         35
  58.6463         33
  58.6835         25
  58.7206         34
  58.7578         26
  58.7949         26
  58.8321         33
  58.8692         24
  58.9064         28
  58.9435         31
  58.9807         30
  59.0178         18
  59.0550         23
  59.0921         22
  59.1293         36
  59.1664         18
  59.2036         25
  59.2408         24
  59.2779         13
  59.3151         20
  59.3522         26
  59.3894         33
  59.4265         29
  59.4637         26
  59.5008         27
  59.5380         21
  59.5751         30
  59.6123         25
  59.6494         29
  59.6866         29
  59.7237         36
  59.7609         32
  59.7980         28
  59.8352         28
  59.8723         24
  59.9095         35
  59.9466         29
  59.9838         31
  60.0024         26