File: notebooks/data/xrd_data/ML_20220718_40_SJD_4_LaB6-4min.uxd
; (content of file Y:\Sam\Apurva-07-20-2022\puck4\ML_20220718_40_SJD_4_LaB6-4min.raw)
_FILEVERSION = 3
_SAMPLE = ML_20220718_40_SJD_4_LaB6-4min
_+SAMPLE =
_SITE = USA
_USER = Administrator
_GONIOMETER_CODE = 20
; Goniometer : D8 theta/2theta, stage : Unknown
_ATTACHMENTS_CODE = 0
_GONIOMETER_RADIUS = 200.5
_FIXED_DIVSLIT = 0.6
_FIXED_SAMPLESLIT = 0
_SOLLER_SLITS = 2
_FIXED_DETSLIT = 9.55
_MONOCHROMATOR = 0
; Incident beam monochromator : None
_SOLLER_SLITS_2 = N
_THIN_FILM = N
_BETA_FILTER = Y
_FIXED_ANTISLIT = 5.89
_ANALYZER_CODE = 0
; Received beam analyzer : None
_DATEMEASURED = "26-Jul-2022 13:16:01"
_WL_UNIT = A
_WL1 = 1.5406
_WL2 = 1.54439
_WL3 = 1.39222
_WLRATIO = 0.5
_ANODE = Cu
_V4_INF_CREATOR = XRDWizard
_V4_INF_CREATOR_VERSION = V2.9.0.22
_V4_INF_WIZARD_VERSION = V2.9.0.22
_V4_INF_WIZARD_ADDINS = V2.9.0.22
_V4_INF_WIZARD_DOCTYPE = XRD
_V4_INF_OSUSER = McQueenLab
_V4_INF_USER = Administrator
_V4_INF_SITE = USA
_V4_INF_SAMPLEID = ML_20220718_40_SJD_4_LaB6-4min

; Data for range 1
_DRIVE = COUPLED
_STEPTIME = 11.28
_STEPSIZE = 0.0185756
_STEPMODE = C
_START = 5
_THETA = 2.5
_2THETA = 5
_KHI = 0
_PHI = 0
_X = 0
_Y = 0
_Z = 0
_DETECTOR = 5
; Detector type : Unknown
_DETECTORSLIT = unkn
_AUX1 = 0
_AUX2 = 0
_AUX3 = 0
_TIMESTARTED = 16
_TEMP_RATE = -1
_TEMP_DELAY = -1
_KV = 40
_MA = 40
_RANGE_WL = 1.5406
_3DPLANE = 0
_V4_ADDITIONALDETECTOR = 257
_V4_PSD2THETA = 3.3661
_V4_PSDCHANNEL1 = 0
_V4_PSDAPERTURE = 12.68
_V4_PSDTYPE = 5
_V4_PSDFIXED = 0
_V4_COUNTERS_MASK = 4096
_V4_DRIVES_MASK = 0
_V4_ENCODERS_MASK = 0
_2THETACOUNTS = 1
; 2THETA  PSD
   5.0000        265
   5.0372        290
   5.0743        252
   5.1115        258
   5.1486        256
   5.1858        239
   5.2229        250
   5.2601        231
   5.2972        228
   5.3344        252
   5.3715        238
   5.4087        255
   5.4458        263
   5.4830        212
   5.5201        228
   5.5573        218
   5.5944        214
   5.6316        221
   5.6687        200
   5.7059        232
   5.7430        234
   5.7802        219
   5.8173        222
   5.8545        206
   5.8916        220
   5.9288        223
   5.9659        189
   6.0031        198
   6.0402        196
   6.0774        185
   6.1145        211
   6.1517        190
   6.1888        193
   6.2260        205
   6.2631        214
   6.3003        171
   6.3374        185
   6.3746        168
   6.4117        182
   6.4489        163
   6.4860        170
   6.5232        171
   6.5604        190
   6.5975        182
   6.6347        178
   6.6718        166
   6.7090        151
   6.7461        168
   6.7833        182
   6.8204        173
   6.8576        162
   6.8947        169
   6.9319        167
   6.9690        155
   7.0062        163
   7.0433        176
   7.0805        151
   7.1176        159
   7.1548        166
   7.1919        172
   7.2291        165
   7.2662        156
   7.3034        154
   7.3405        158
   7.3777        158
   7.4148        163
   7.4520        157
   7.4891        158
   7.5263        163
   7.5634        175
   7.6006        164
   7.6377        174
   7.6749        176
   7.7120        196
   7.7492        174
   7.7863        182
   7.8235        188
   7.8606        188
   7.8978        164
   7.9349        193
   7.9721        214
   8.0092        181
   8.0464        185
   8.0835        186
   8.1207        188
   8.1579        198
   8.1950        206
   8.2322        201
   8.2693        180
   8.3065        185
   8.3436        204
   8.3808        187
   8.4179        190
   8.4551        190
   8.4922        194
   8.5294        196
   8.5665        175
   8.6037        216
   8.6408        215
   8.6780        213
   8.7151        187
   8.7523        188
   8.7894        229
   8.8266        217
   8.8637        198
   8.9009        203
   8.9380        209
   8.9752        208
   9.0123        240
   9.0495        212
   9.0866        208
   9.1238        185
   9.1609        239
   9.1981        219
   9.2352        199
   9.2724        203
   9.3095        261
   9.3467        226
   9.3838        211
   9.4210        222
   9.4581        222
   9.4953        199
   9.5324        246
   9.5696        255
   9.6067        211
   9.6439        249
   9.6811        240
   9.7182        212
   9.7554        247
   9.7925        240
   9.8297        245
   9.8668        227
   9.9040        258
   9.9411        264
   9.9783        228
  10.0154        248
  10.0526        250
  10.0897        221
  10.1269        236
  10.1640        247
  10.2012        224
  10.2383        249
  10.2755        241
  10.3126        237
  10.3498        244
  10.3869        248
  10.4241        271
  10.4612        234
  10.4984        251
  10.5355        253
  10.5727        216
  10.6098        246
  10.6470        278
  10.6841        244
  10.7213        242
  10.7584        234
  10.7956        258
  10.8327        228
  10.8699        235
  10.9070        236
  10.9442        260
  10.9813        236
  11.0185        250
  11.0556        236
  11.0928        253
  11.1299        251
  11.1671        263
  11.2043        221
  11.2414        247
  11.2786        242
  11.3157        238
  11.3529        226
  11.3900        238
  11.4272        259
  11.4643        226
  11.5015        224
  11.5386        233
  11.5758        240
  11.6129        245
  11.6501        234
  11.6872        245
  11.7244        245
  11.7615        228
  11.7987        222
  11.8358        237
  11.8730        213
  11.9101        234
  11.9473        217
  11.9844        225
  12.0216        222
  12.0587        231
  12.0959        249
  12.1330        246
  12.1702        254
  12.2073        229
  12.2445        197
  12.2816        205
  12.3188        236
  12.3559        257
  12.3931        246
  12.4302        220
  12.4674        204
  12.5045        219
  12.5417        199
  12.5788        197
  12.6160        250
  12.6531        229
  12.6903        233
  12.7274        238
  12.7646        219
  12.8018        207
  12.8389        197
  12.8761        207
  12.9132        244
  12.9504        220
  12.9875        203
  13.0247        224
  13.0618        230
  13.0990        193
  13.1361        227
  13.1733        197
  13.2104        227
  13.2476        196
  13.2847        184
  13.3219        202
  13.3590        217
  13.3962        202
  13.4333        181
  13.4705        215
  13.5076        216
  13.5448        202
  13.5819        177
  13.6191        204
  13.6562        214
  13.6934        198
  13.7305        198
  13.7677        200
  13.8048        200
  13.8420        166
  13.8791        182
  13.9163        205
  13.9534        205
  13.9906        188
  14.0277        207
  14.0649        201
  14.1020        186
  14.1392        176
  14.1763        178
  14.2135        181
  14.2506        168
  14.2878        197
  14.3250        171
  14.3621        191
  14.3993        216
  14.4364        184
  14.4736        171
  14.5107        176
  14.5479        171
  14.5850        161
  14.6222        187
  14.6593        160
  14.6965        172
  14.7336        181
  14.7708        182
  14.8079        169
  14.8451        165
  14.8822        181
  14.9194        186
  14.9565        179
  14.9937        168
  15.0308        179
  15.0680        155
  15.1051        163
  15.1423        162
  15.1794        179
  15.2166        162
  15.2537        177
  15.2909        161
  15.3280        144
  15.3652        154
  15.4023        175
  15.4395        158
  15.4766        175
  15.5138        157
  15.5509        182
  15.5881        161
  15.6252        158
  15.6624        164
  15.6995        173
  15.7367        152
  15.7738        168
  15.8110        164
  15.8482        163
  15.8853        167
  15.9225        156
  15.9596        184
  15.9968        163
  16.0339        180
  16.0711        175
  16.1082        180
  16.1454        157
  16.1825        159
  16.2197        179
  16.2568        177
  16.2940        159
  16.3311        147
  16.3683        177
  16.4054        158
  16.4426        158
  16.4797        195
  16.5169        154
  16.5540        157
  16.5912        152
  16.6283        178
  16.6655        158
  16.7026        156
  16.7398        164
  16.7769        162
  16.8141        181
  16.8512        171
  16.8884        189
  16.9255        139
  16.9627        149
  16.9998        167
  17.0370        178
  17.0741        178
  17.1113        164
  17.1484        156
  17.1856        162
  17.2227        175
  17.2599        147
  17.2970        155
  17.3342        156
  17.3713        170
  17.4085        169
  17.4457        183
  17.4828        159
  17.5200        179
  17.5571        134
  17.5943        160
  17.6314        148
  17.6686        146
  17.7057        170
  17.7429        184
  17.7800        180
  17.8172        167
  17.8543        169
  17.8915        175
  17.9286        166
  17.9658        151
  18.0029        179
  18.0401        148
  18.0772        174
  18.1144        152
  18.1515        194
  18.1887        174
  18.2258        172
  18.2630        178
  18.3001        185
  18.3373        172
  18.3744        175
  18.4116        191
  18.4487        166
  18.4859        182
  18.5230        159
  18.5602        159
  18.5973        188
  18.6345        173
  18.6716        176
  18.7088        167
  18.7459        169
  18.7831        163
  18.8202        183
  18.8574        182
  18.8945        159
  18.9317        159
  18.9689        203
  19.0060        180
  19.0432        180
  19.0803        161
  19.1175        185
  19.1546        165
  19.1918        165
  19.2289        191
  19.2661        197
  19.3032        185
  19.3404        161
  19.3775        181
  19.4147        186
  19.4518        168
  19.4890        129
  19.5261        156
  19.5633        173
  19.6004        149
  19.6376        154
  19.6747        183
  19.7119        178
  19.7490        189
  19.7862        193
  19.8233        195
  19.8605        180
  19.8976        164
  19.9348        185
  19.9719        180
  20.0091        173
  20.0462        180
  20.0834        187
  20.1205        164
  20.1577        214
  20.1948        181
  20.2320        178
  20.2691        183
  20.3063        177
  20.3434        197
  20.3806        185
  20.4177        159
  20.4549        178
  20.4921        179
  20.5292        192
  20.5664        166
  20.6035        198
  20.6407        181
  20.6778        188
  20.7150        203
  20.7521        175
  20.7893        191
  20.8264        177
  20.8636        169
  20.9007        186
  20.9379        189
  20.9750        214
  21.0122        208
  21.0493        224
  21.0865        220
  21.1236        225
  21.1608        236
  21.1979        287
  21.2351        328
  21.2722        312
  21.3094        302
  21.3465        486
  21.3837        440
  21.4208        345
  21.4580        237
  21.4951        221
  21.5323        201
  21.5694        218
  21.6066        182
  21.6437        183
  21.6809        200
  21.7180        195
  21.7552        210
  21.7923        218
  21.8295        217
  21.8666        211
  21.9038        183
  21.9409        187
  21.9781        183
  22.0152        190
  22.0524        204
  22.0896        196
  22.1267        191
  22.1639        227
  22.2010        181
  22.2382        190
  22.2753        213
  22.3125        208
  22.3496        216
  22.3868        191
  22.4239        232
  22.4611        193
  22.4982        198
  22.5354        185
  22.5725        190
  22.6097        208
  22.6468        205
  22.6840        222
  22.7211        215
  22.7583        219
  22.7954        196
  22.8326        226
  22.8697        201
  22.9069        175
  22.9440        194
  22.9812        187
  23.0183        183
  23.0555        193
  23.0926        211
  23.1298        188
  23.1669        188
  23.2041        195
  23.2412        208
  23.2784        201
  23.3155        195
  23.3527        209
  23.3898        223
  23.4270        223
  23.4641        207
  23.5013        225
  23.5384        239
  23.5756        175
  23.6128        176
  23.6499        176
  23.6871        232
  23.7242        198
  23.7614        194
  23.7985        199
  23.8357        209
  23.8728        202
  23.9100        180
  23.9471        206
  23.9843        214
  24.0214        207
  24.0586        211
  24.0957        204
  24.1329        192
  24.1700        199
  24.2072        224
  24.2443        215
  24.2815        264
  24.3186        257
  24.3558        239
  24.3929        229
  24.4301        210
  24.4672        215
  24.5044        215
  24.5415        214
  24.5787        200
  24.6158        217
  24.6530        213
  24.6901        187
  24.7273        203
  24.7644        193
  24.8016        200
  24.8387        193
  24.8759        211
  24.9130        205
  24.9502        190
  24.9873        232
  25.0245        205
  25.0616        178
  25.0988        202
  25.1360        214
  25.1731        210
  25.2103        227
  25.2474        202
  25.2846        219
  25.3217        206
  25.3589        206
  25.3960        192
  25.4332        221
  25.4703        213
  25.5075        184
  25.5446        197
  25.5818        191
  25.6189        193
  25.6561        190
  25.6932        235
  25.7304        195
  25.7675        189
  25.8047        174
  25.8418        193
  25.8790        183
  25.9161        170
  25.9533        204
  25.9904        197
  26.0276        197
  26.0647        212
  26.1019        198
  26.1390        207
  26.1762        211
  26.2133        195
  26.2505        191
  26.2876        193
  26.3248        179
  26.3619        208
  26.3991        194
  26.4362        183
  26.4734        191
  26.5105        195
  26.5477        175
  26.5848        201
  26.6220        189
  26.6591        206
  26.6963        205
  26.7335        167
  26.7706        180
  26.8078        192
  26.8449        200
  26.8821        194
  26.9192        199
  26.9564        188
  26.9935        201
  27.0307        182
  27.0678        204
  27.1050        171
  27.1421        193
  27.1793        220
  27.2164        261
  27.2536        229
  27.2907        208
  27.3279        191
  27.3650        184
  27.4022        178
  27.4393        197
  27.4765        162
  27.5136        164
  27.5508        174
  27.5879        192
  27.6251        152
  27.6622        192
  27.6994        171
  27.7365        199
  27.7737        182
  27.8108        182
  27.8480        183
  27.8851        194
  27.9223        169
  27.9594        177
  27.9966        169
  28.0337        155
  28.0709        186
  28.1080        179
  28.1452        175
  28.1823        177
  28.2195        178
  28.2567        179
  28.2938        176
  28.3310        168
  28.3681        182
  28.4053        175
  28.4424        152
  28.4796        151
  28.5167        158
  28.5539        169
  28.5910        173
  28.6282        134
  28.6653        178
  28.7025        186
  28.7396        193
  28.7768        174
  28.8139        170
  28.8511        158
  28.8882        190
  28.9254        175
  28.9625        172
  28.9997        162
  29.0368        159
  29.0740        149
  29.1111        157
  29.1483        216
  29.1854        165
  29.2226        179
  29.2597        180
  29.2969        170
  29.3340        156
  29.3712        169
  29.4083        175
  29.4455        157
  29.4826        166
  29.5198        166
  29.5569        134
  29.5941        156
  29.6312        145
  29.6684        136
  29.7055        179
  29.7427        173
  29.7799        167
  29.8170        149
  29.8542        145
  29.8913        164
  29.9285        140
  29.9656        151
  30.0028        153
  30.0399        154
  30.0771        162
  30.1142        162
  30.1514        159
  30.1885        142
  30.2257        176
  30.2628        179
  30.3000        159
  30.3371        217
  30.3743        321
  30.4114        299
  30.4486        249
  30.4857        227
  30.5229        184
  30.5600        157
  30.5972        204
  30.6343        162
  30.6715        166
  30.7086        146
  30.7458        139
  30.7829        149
  30.8201        176
  30.8572        158
  30.8944        152
  30.9315        149
  30.9687        146
  31.0058        161
  31.0430        144
  31.0801        139
  31.1173        149
  31.1544        130
  31.1916        159
  31.2287        150
  31.2659        132
  31.3030        147
  31.3402        133
  31.3774        181
  31.4145        139
  31.4517        156
  31.4888        137
  31.5260        134
  31.5631        125
  31.6003        152
  31.6374        138
  31.6746        153
  31.7117        160
  31.7489        118
  31.7860        142
  31.8232        148
  31.8603        126
  31.8975        154
  31.9346        123
  31.9718        148
  32.0089        125
  32.0461        154
  32.0832        139
  32.1204        130
  32.1575        145
  32.1947        154
  32.2318        112
  32.2690        125
  32.3061        132
  32.3433        134
  32.3804        126
  32.4176        129
  32.4547        156
  32.4919        130
  32.5290        128
  32.5662        134
  32.6033        161
  32.6405        123
  32.6776        116
  32.7148        122
  32.7519        139
  32.7891        123
  32.8262        122
  32.8634        123
  32.9006        124
  32.9377        138
  32.9749        114
  33.0120        102
  33.0492        118
  33.0863        128
  33.1235        134
  33.1606        124
  33.1978        113
  33.2349        124
  33.2721        108
  33.3092        128
  33.3464        131
  33.3835        105
  33.4207        125
  33.4578        131
  33.4950        120
  33.5321        125
  33.5693        105
  33.6064        121
  33.6436        122
  33.6807        123
  33.7179        102
  33.7550         98
  33.7922        118
  33.8293        121
  33.8665        131
  33.9036         99
  33.9408        119
  33.9779        110
  34.0151        135
  34.0522        121
  34.0894        124
  34.1265        117
  34.1637        102
  34.2008        122
  34.2380        126
  34.2751         97
  34.3123         88
  34.3494        121
  34.3866        139
  34.4238        107
  34.4609        116
  34.4981        128
  34.5352        123
  34.5724        136
  34.6095        149
  34.6467        126
  34.6838        121
  34.7210        136
  34.7581        169
  34.7953        172
  34.8324        152
  34.8696        149
  34.9067        114
  34.9439        114
  34.9810        147
  35.0182        108
  35.0553        106
  35.0925        112
  35.1296        111
  35.1668        139
  35.2039        110
  35.2411        117
  35.2782        107
  35.3154         96
  35.3525        102
  35.3897        110
  35.4268        118
  35.4640         92
  35.5011        125
  35.5383         91
  35.5754        104
  35.6126        122
  35.6497         89
  35.6869        111
  35.7240        105
  35.7612        112
  35.7983        100
  35.8355         93
  35.8726        109
  35.9098        109
  35.9469        101
  35.9841        109
  36.0213         97
  36.0584        100
  36.0956        107
  36.1327         93
  36.1699         87
  36.2070         92
  36.2442         86
  36.2813         97
  36.3185         91
  36.3556        100
  36.3928         95
  36.4299        107
  36.4671        107
  36.5042         86
  36.5414         98
  36.5785         94
  36.6157         82
  36.6528         96
  36.6900         86
  36.7271         97
  36.7643         89
  36.8014        110
  36.8386         84
  36.8757         91
  36.9129         92
  36.9500        106
  36.9872         80
  37.0243         83
  37.0615         92
  37.0986         79
  37.1358        107
  37.1729        100
  37.2101         80
  37.2472         83
  37.2844         82
  37.3215        106
  37.3587        124
  37.3958        106
  37.4330        152
  37.4701        134
  37.5073        132
  37.5445        122
  37.5816        103
  37.6188         76
  37.6559        115
  37.6931        116
  37.7302         96
  37.7674         93
  37.8045         91
  37.8417         78
  37.8788         82
  37.9160         97
  37.9531         74
  37.9903         95
  38.0274         90
  38.0646         75
  38.1017         91
  38.1389         81
  38.1760         87
  38.2132         85
  38.2503         72
  38.2875         79
  38.3246         91
  38.3618         94
  38.3989         79
  38.4361         87
  38.4732         77
  38.5104         78
  38.5475         82
  38.5847         95
  38.6218        105
  38.6590         96
  38.6961         79
  38.7333         79
  38.7704         89
  38.8076         87
  38.8447         75
  38.8819        100
  38.9190         72
  38.9562         89
  38.9933         74
  39.0305         77
  39.0677         86
  39.1048         92
  39.1420         82
  39.1791         76
  39.2163         87
  39.2534         81
  39.2906         90
  39.3277         72
  39.3649         89
  39.4020         75
  39.4392         68
  39.4763         85
  39.5135         59
  39.5506         91
  39.5878         79
  39.6249         68
  39.6621         85
  39.6992         95
  39.7364         72
  39.7735         78
  39.8107         74
  39.8478         92
  39.8850         90
  39.9221        106
  39.9593         82
  39.9964         75
  40.0336         66
  40.0707         67
  40.1079         77
  40.1450         78
  40.1822         78
  40.2193         91
  40.2565         67
  40.2936         68
  40.3308         70
  40.3679         71
  40.4051         89
  40.4422         86
  40.4794         86
  40.5165         99
  40.5537         76
  40.5908         72
  40.6280         82
  40.6652         72
  40.7023         75
  40.7395         83
  40.7766         87
  40.8138         75
  40.8509         92
  40.8881         79
  40.9252         77
  40.9624         86
  40.9995         67
  41.0367         86
  41.0738         73
  41.1110         81
  41.1481         78
  41.1853         76
  41.2224         75
  41.2596         80
  41.2967         85
  41.3339         61
  41.3710         83
  41.4082         70
  41.4453         81
  41.4825         75
  41.5196         69
  41.5568         68
  41.5939         77
  41.6311         72
  41.6682         86
  41.7054         67
  41.7425         77
  41.7797         73
  41.8168         72
  41.8540         64
  41.8911         84
  41.9283         80
  41.9654         84
  42.0026         77
  42.0397         69
  42.0769         78
  42.1140         75
  42.1512         73
  42.1884         70
  42.2255         72
  42.2627         69
  42.2998         64
  42.3370         68
  42.3741         73
  42.4113         63
  42.4484         75
  42.4856         82
  42.5227         72
  42.5599         74
  42.5970         77
  42.6342         67
  42.6713         64
  42.7085         74
  42.7456         61
  42.7828         71
  42.8199         73
  42.8571         77
  42.8942         75
  42.9314         72
  42.9685         68
  43.0057         91
  43.0428         67
  43.0800         75
  43.1171         75
  43.1543         76
  43.1914         79
  43.2286         95
  43.2657         72
  43.3029         66
  43.3400         81
  43.3772         85
  43.4143         65
  43.4515         89
  43.4886        125
  43.5258        139
  43.5629         91
  43.6001        108
  43.6372        133
  43.6744         85
  43.7116         76
  43.7487         78
  43.7859         77
  43.8230         76
  43.8602         63
  43.8973         66
  43.9345         81
  43.9716         68
  44.0088         67
  44.0459         59
  44.0831         73
  44.1202         68
  44.1574         77
  44.1945         68
  44.2317         74
  44.2688         77
  44.3060         72
  44.3431         87
  44.3803         68
  44.4174         88
  44.4546         85
  44.4917         82
  44.5289         88
  44.5660         85
  44.6032         78
  44.6403         71
  44.6775         81
  44.7146         78
  44.7518         78
  44.7889         80
  44.8261         72
  44.8632         84
  44.9004         79
  44.9375         72
  44.9747         78
  45.0118         64
  45.0490         64
  45.0861         65
  45.1233         72
  45.1604         78
  45.1976         76
  45.2347         61
  45.2719         86
  45.3091         73
  45.3462         51
  45.3834         67
  45.4205         64
  45.4577         63
  45.4948         74
  45.5320         77
  45.5691         72
  45.6063         58
  45.6434         73
  45.6806         71
  45.7177         68
  45.7549         60
  45.7920         59
  45.8292         64
  45.8663         60
  45.9035         70
  45.9406         82
  45.9778         71
  46.0149         67
  46.0521         79
  46.0892         55
  46.1264         78
  46.1635         72
  46.2007         66
  46.2378         66
  46.2750         51
  46.3121         74
  46.3493         70
  46.3864         63
  46.4236         81
  46.4607         57
  46.4979         82
  46.5350         71
  46.5722         54
  46.6093         55
  46.6465         58
  46.6836         71
  46.7208         69
  46.7579         65
  46.7951         53
  46.8323         67
  46.8694         74
  46.9066         64
  46.9437         53
  46.9809         67
  47.0180         59
  47.0552         84
  47.0923         65
  47.1295         54
  47.1666         67
  47.2038         84
  47.2409         52
  47.2781         79
  47.3152         71
  47.3524         74
  47.3895         69
  47.4267         61
  47.4638         64
  47.5010         62
  47.5381         51
  47.5753         63
  47.6124         62
  47.6496         64
  47.6867         84
  47.7239         59
  47.7610         74
  47.7982         64
  47.8353         75
  47.8725         70
  47.9096         47
  47.9468         65
  47.9839         55
  48.0211         68
  48.0582         59
  48.0954         61
  48.1325         57
  48.1697         65
  48.2068         78
  48.2440         65
  48.2811         64
  48.3183         71
  48.3555         61
  48.3926         54
  48.4298         47
  48.4669         66
  48.5041         54
  48.5412         72
  48.5784         55
  48.6155         65
  48.6527         70
  48.6898         64
  48.7270         54
  48.7641         70
  48.8013         62
  48.8384         71
  48.8756         70
  48.9127         91
  48.9499        106
  48.9870        102
  49.0242         61
  49.0613         85
  49.0985         83
  49.1356         63
  49.1728         75
  49.2099         68
  49.2471         57
  49.2842         64
  49.3214         55
  49.3585         58
  49.3957         49
  49.4328         61
  49.4700         73
  49.5071         56
  49.5443         63
  49.5814         67
  49.6186         59
  49.6557         61
  49.6929         59
  49.7300         58
  49.7672         56
  49.8043         54
  49.8415         76
  49.8786         67
  49.9158         57
  49.9530         81
  49.9901         58
  50.0273         66
  50.0644         57
  50.1016         68
  50.1387         61
  50.1759         65
  50.2130         48
  50.2502         67
  50.2873         60
  50.3245         73
  50.3616         67
  50.3988         68
  50.4359         64
  50.4731         51
  50.5102         49
  50.5474         52
  50.5845         65
  50.6217         63
  50.6588         70
  50.6960         61
  50.7331         59
  50.7703         65
  50.8074         58
  50.8446         50
  50.8817         48
  50.9189         68
  50.9560         63
  50.9932         59
  51.0303         50
  51.0675         50
  51.1046         56
  51.1418         62
  51.1789         54
  51.2161         74
  51.2532         60
  51.2904         60
  51.3275         65
  51.3647         85
  51.4018         77
  51.4390         64
  51.4762         61
  51.5133         69
  51.5505         73
  51.5876         65
  51.6248         68
  51.6619         55
  51.6991         59
  51.7362         67
  51.7734         72
  51.8105         63
  51.8477         87
  51.8848         75
  51.9220         66
  51.9591         65
  51.9963         76
  52.0334         56
  52.0706         62
  52.1077         59
  52.1449         55
  52.1820         59
  52.2192         47
  52.2563         55
  52.2935         66
  52.3306         68
  52.3678         64
  52.4049         58
  52.4421         66
  52.4792         63
  52.5164         61
  52.5535         51
  52.5907         75
  52.6278         57
  52.6650         58
  52.7021         70
  52.7393         68
  52.7764         61
  52.8136         58
  52.8507         46
  52.8879         60
  52.9250         49
  52.9622         58
  52.9994         77
  53.0365         69
  53.0737         53
  53.1108         63
  53.1480         68
  53.1851         85
  53.2223         52
  53.2594         61
  53.2966         58
  53.3337         59
  53.3709         52
  53.4080         56
  53.4452         60
  53.4823         54
  53.5195         55
  53.5566         65
  53.5938         62
  53.6309         64
  53.6681         55
  53.7052         51
  53.7424         62
  53.7795         70
  53.8167         64
  53.8538         68
  53.8910         61
  53.9281         61
  53.9653         75
  54.0024         75
  54.0396         54
  54.0767         54
  54.1139         75
  54.1510         75
  54.1882         57
  54.2253         61
  54.2625         40
  54.2996         56
  54.3368         57
  54.3739         57
  54.4111         57
  54.4482         57
  54.4854         60
  54.5225         56
  54.5597         67
  54.5969         66
  54.6340         43
  54.6712         65
  54.7083         64
  54.7455         47
  54.7826         51
  54.8198         49
  54.8569         63
  54.8941         65
  54.9312         54
  54.9684         69
  55.0055         51
  55.0427         49
  55.0798         61
  55.1170         57
  55.1541         47
  55.1913         53
  55.2284         63
  55.2656         65
  55.3027         56
  55.3399         45
  55.3770         46
  55.4142         56
  55.4513         62
  55.4885         60
  55.5256         47
  55.5628         70
  55.5999         58
  55.6371         65
  55.6742         54
  55.7114         53
  55.7485         68
  55.7857         59
  55.8228         56
  55.8600         60
  55.8971         41
  55.9343         64
  55.9714         65
  56.0086         52
  56.0457         83
  56.0829         67
  56.1201         49
  56.1572         56
  56.1944         62
  56.2315         65
  56.2687         85
  56.3058         63
  56.3430         82
  56.3801         57
  56.4173         54
  56.4544         55
  56.4916         62
  56.5287         44
  56.5659         71
  56.6030         49
  56.6402         61
  56.6773         62
  56.7145         57
  56.7516         65
  56.7888         62
  56.8259         46
  56.8631         57
  56.9002         49
  56.9374         60
  56.9745         59
  57.0117         50
  57.0488         66
  57.0860         48
  57.1231         70
  57.1603         56
  57.1974         63
  57.2346         71
  57.2717         61
  57.3089         61
  57.3460         62
  57.3832         65
  57.4203         53
  57.4575         60
  57.4946         60
  57.5318         52
  57.5689         57
  57.6061         52
  57.6433         65
  57.6804         75
  57.7176         65
  57.7547         52
  57.7919         62
  57.8290         53
  57.8662         59
  57.9033         59
  57.9405         63
  57.9776         69
  58.0148         48
  58.0519         55
  58.0891         55
  58.1262         46
  58.1634         48
  58.2005         61
  58.2377         47
  58.2748         46
  58.3120         62
  58.3491         59
  58.3863         54
  58.4234         51
  58.4606         50
  58.4977         46
  58.5349         49
  58.5720         57
  58.6092         61
  58.6463         62
  58.6835         54
  58.7206         56
  58.7578         60
  58.7949         60
  58.8321         47
  58.8692         58
  58.9064         58
  58.9435         61
  58.9807         49
  59.0178         42
  59.0550         58
  59.0921         46
  59.1293         48
  59.1664         66
  59.2036         58
  59.2408         45
  59.2779         53
  59.3151         45
  59.3522         67
  59.3894         55
  59.4265         59
  59.4637         51
  59.5008         61
  59.5380         59
  59.5751         50
  59.6123         51
  59.6494         56
  59.6866         46
  59.7237         58
  59.7609         65
  59.7980         52
  59.8352         53
  59.8723         53
  59.9095         47
  59.9466         49
  59.9838         52
  60.0024         60