File: notebooks/data/xrd_data/ML_20220720_8_SJD_4_LaB6-4min.csv
;,2THETA,
5.0000,312
5.0372,271
5.0743,260
5.1115,259
5.1486,264
5.1858,250
5.2229,217
5.2601,252
5.2972,238
5.3344,222
5.3715,226
5.4087,209
5.4458,235
5.4830,247
5.5201,219
5.5573,229
5.5944,224
5.6316,245
5.6687,224
5.7059,219
5.7430,221
5.7802,209
5.8173,175
5.8545,200
5.8916,215
5.9288,192
5.9659,183
6.0031,187
6.0402,210
6.0774,213
6.1145,200
6.1517,179
6.1888,182
6.2260,201
6.2631,171
6.3003,186
6.3374,183
6.3746,189
6.4117,182
6.4489,184
6.4860,187
6.5232,197
6.5604,176
6.5975,175
6.6347,186
6.6718,175
6.7090,185
6.7461,178
6.7833,168
6.8204,188
6.8576,166
6.8947,155
6.9319,149
6.9690,185
7.0062,168
7.0433,154
7.0805,155
7.1176,153
7.1548,173
7.1919,162
7.2291,161
7.2662,186
7.3034,146
7.3405,156
7.3777,174
7.4148,158
7.4520,180
7.4891,171
7.5263,170
7.5634,180
7.6006,176
7.6377,167
7.6749,182
7.7120,168
7.7492,178
7.7863,184
7.8235,190
7.8606,183
7.8978,200
7.9349,181
7.9721,184
8.0092,153
8.0464,210
8.0835,206
8.1207,174
8.1579,205
8.1950,198
8.2322,209
8.2693,190
8.3065,212
8.3436,205
8.3808,180
8.4179,194
8.4551,191
8.4922,199
8.5294,204
8.5665,172
8.6037,210
8.6408,209
8.6780,209
8.7151,212
8.7523,184
8.7894,197
8.8266,207
8.8637,222
8.9009,205
8.9380,243
8.9752,243
9.0123,212
9.0495,210
9.0866,232
9.1238,205
9.1609,221
9.1981,223
9.2352,203
9.2724,236
9.3095,225
9.3467,210
9.3838,223
9.4210,238
9.4581,200
9.4953,215
9.5324,205
9.5696,242
9.6067,195
9.6439,225
9.6811,238
9.7182,213
9.7554,236
9.7925,231
9.8297,239
9.8668,248
9.9040,252
9.9411,235
9.9783,253
10.0154,254
10.0526,247
10.0897,238
10.1269,225
10.1640,255
10.2012,232
10.2383,269
10.2755,250
10.3126,267
10.3498,240
10.3869,247
10.4241,223
10.4612,237
10.4984,247
10.5355,228
10.5727,229
10.6098,251
10.6470,224
10.6841,249
10.7213,228
10.7584,229
10.7956,230
10.8327,251
10.8699,242
10.9070,271
10.9442,235
10.9813,248
11.0185,258
11.0556,252
11.0928,243
11.1299,243
11.1671,257
11.2043,254
11.2414,266
11.2786,251
11.3157,240
11.3529,242
11.3900,235
11.4272,238
11.4643,246
11.5015,240
11.5386,224
11.5758,213
11.6129,222
11.6501,220
11.6872,217
11.7244,245
11.7615,238
11.7987,248
11.8358,239
11.8730,245
11.9101,242
11.9473,221
11.9844,238
12.0216,237
12.0587,236
12.0959,225
12.1330,253
12.1702,210
12.2073,228
12.2445,243
12.2816,209
12.3188,208
12.3559,221
12.3931,249
12.4302,257
12.4674,206
12.5045,202
12.5417,202
12.5788,251
12.6160,224
12.6531,205
12.6903,220
12.7274,206
12.7646,194
12.8018,206
12.8389,200
12.8761,182
12.9132,195
12.9504,199
12.9875,200
13.0247,189
13.0618,208
13.0990,189
13.1361,199
13.1733,234
13.2104,200
13.2476,192
13.2847,207
13.3219,230
13.3590,224
13.3962,217
13.4333,185
13.4705,207
13.5076,185
13.5448,198
13.5819,200
13.6191,217
13.6562,226
13.6934,191
13.7305,202
13.7677,188
13.8048,200
13.8420,187
13.8791,195
13.9163,226
13.9534,206
13.9906,185
14.0277,169
14.0649,215
14.1020,203
14.1392,201
14.1763,176
14.2135,193
14.2506,174
14.2878,176
14.3250,168
14.3621,161
14.3993,182
14.4364,169
14.4736,164
14.5107,186
14.5479,189
14.5850,178
14.6222,189
14.6593,158
14.6965,182
14.7336,173
14.7708,167
14.8079,188
14.8451,195
14.8822,169
14.9194,183
14.9565,167
14.9937,158
15.0308,165
15.0680,171
15.1051,175
15.1423,178
15.1794,175
15.2166,162
15.2537,209
15.2909,186
15.3280,160
15.3652,165
15.4023,166
15.4395,138
15.4766,159
15.5138,150
15.5509,161
15.5881,174
15.6252,188
15.6624,148
15.6995,166
15.7367,163
15.7738,177
15.8110,174
15.8482,159
15.8853,155
15.9225,183
15.9596,143
15.9968,179
16.0339,152
16.0711,174
16.1082,176
16.1454,156
16.1825,161
16.2197,186
16.2568,163
16.2940,156
16.3311,173
16.3683,147
16.4054,173
16.4426,157
16.4797,175
16.5169,150
16.5540,186
16.5912,153
16.6283,150
16.6655,162
16.7026,161
16.7398,161
16.7769,149
16.8141,158
16.8512,159
16.8884,167
16.9255,158
16.9627,160
16.9998,184
17.0370,177
17.0741,189
17.1113,180
17.1484,139
17.1856,167
17.2227,179
17.2599,160
17.2970,167
17.3342,181
17.3713,166
17.4085,160
17.4457,137
17.4828,185
17.5200,176
17.5571,165
17.5943,170
17.6314,141
17.6686,170
17.7057,145
17.7429,165
17.7800,167
17.8172,188
17.8543,152
17.8915,147
17.9286,181
17.9658,168
18.0029,166
18.0401,164
18.0772,155
18.1144,165
18.1515,152
18.1887,152
18.2258,150
18.2630,163
18.3001,179
18.3373,180
18.3744,164
18.4116,163
18.4487,193
18.4859,182
18.5230,161
18.5602,160
18.5973,186
18.6345,160
18.6716,155
18.7088,175
18.7459,177
18.7831,177
18.8202,164
18.8574,188
18.8945,194
18.9317,161
18.9689,175
19.0060,155
19.0432,183
19.0803,168
19.1175,175
19.1546,177
19.1918,178
19.2289,172
19.2661,180
19.3032,163
19.3404,175
19.3775,174
19.4147,194
19.4518,170
19.4890,151
19.5261,175
19.5633,161
19.6004,172
19.6376,182
19.6747,204
19.7119,172
19.7490,180
19.7862,196
19.8233,186
19.8605,162
19.8976,213
19.9348,169
19.9719,181
20.0091,182
20.0462,177
20.0834,202
20.1205,147
20.1577,172
20.1948,168
20.2320,186
20.2691,154
20.3063,206
20.3434,176
20.3806,203
20.4177,177
20.4549,151
20.4921,201
20.5292,177
20.5664,182
20.6035,194
20.6407,204
20.6778,183
20.7150,183
20.7521,206
20.7893,183
20.8264,213
20.8636,188
20.9007,225
20.9379,191
20.9750,175
21.0122,202
21.0493,185
21.0865,203
21.1236,232
21.1608,222
21.1979,278
21.2351,331
21.2722,333
21.3094,342
21.3465,502
21.3837,411
21.4208,345
21.4580,198
21.4951,199
21.5323,210
21.5694,205
21.6066,194
21.6437,184
21.6809,181
21.7180,174
21.7552,196
21.7923,196
21.8295,209
21.8666,178
21.9038,199
21.9409,186
21.9781,200
22.0152,185
22.0524,222
22.0896,206
22.1267,209
22.1639,229
22.2010,217
22.2382,210
22.2753,199
22.3125,203
22.3496,214
22.3868,200
22.4239,189
22.4611,208
22.4982,188
22.5354,187
22.5725,205
22.6097,226
22.6468,195
22.6840,207
22.7211,197
22.7583,200
22.7954,211
22.8326,188
22.8697,200
22.9069,196
22.9440,206
22.9812,196
23.0183,210
23.0555,239
23.0926,208
23.1298,199
23.1669,199
23.2041,199
23.2412,188
23.2784,220
23.3155,219
23.3527,177
23.3898,223
23.4270,221
23.4641,193
23.5013,217
23.5384,190
23.5756,202
23.6128,207
23.6499,190
23.6871,185
23.7242,178
23.7614,176
23.7985,182
23.8357,221
23.8728,214
23.9100,166
23.9471,196
23.9843,229
24.0214,189
24.0586,210
24.0957,195
24.1329,226
24.1700,215
24.2072,221
24.2443,239
24.2815,232
24.3186,236
24.3558,231
24.3929,212
24.4301,204
24.4672,227
24.5044,186
24.5415,220
24.5787,204
24.6158,201
24.6530,186
24.6901,195
24.7273,191
24.7644,191
24.8016,201
24.8387,219
24.8759,215
24.9130,200
24.9502,230
24.9873,197
25.0245,189
25.0616,164
25.0988,203
25.1360,189
25.1731,177
25.2103,205
25.2474,204
25.2846,210
25.3217,220
25.3589,180
25.3960,191
25.4332,189
25.4703,186
25.5075,194
25.5446,180
25.5818,205
25.6189,184
25.6561,185
25.6932,188
25.7304,191
25.7675,209
25.8047,196
25.8418,202
25.8790,202
25.9161,221
25.9533,197
25.9904,200
26.0276,185
26.0647,192
26.1019,217
26.1390,210
26.1762,191
26.2133,211
26.2505,209
26.2876,180
26.3248,219
26.3619,195
26.3991,201
26.4362,186
26.4734,197
26.5105,192
26.5477,186
26.5848,190
26.6220,218
26.6591,179
26.6963,179
26.7335,202
26.7706,180
26.8078,207
26.8449,192
26.8821,182
26.9192,183
26.9564,189
26.9935,184
27.0307,184
27.0678,185
27.1050,200
27.1421,219
27.1793,238
27.2164,255
27.2536,237
27.2907,208
27.3279,207
27.3650,184
27.4022,189
27.4393,181
27.4765,203
27.5136,194
27.5508,176
27.5879,168
27.6251,173
27.6622,174
27.6994,174
27.7365,207
27.7737,174
27.8108,169
27.8480,174
27.8851,177
27.9223,183
27.9594,178
27.9966,183
28.0337,199
28.0709,165
28.1080,176
28.1452,185
28.1823,176
28.2195,207
28.2567,159
28.2938,183
28.3310,189
28.3681,167
28.4053,176
28.4424,159
28.4796,179
28.5167,162
28.5539,171
28.5910,161
28.6282,177
28.6653,163
28.7025,182
28.7396,169
28.7768,170
28.8139,161
28.8511,176
28.8882,158
28.9254,178
28.9625,153
28.9997,152
29.0368,175
29.0740,175
29.1111,168
29.1483,162
29.1854,155
29.2226,191
29.2597,162
29.2969,151
29.3340,171
29.3712,169
29.4083,186
29.4455,169
29.4826,163
29.5198,156
29.5569,171
29.5941,158
29.6312,169
29.6684,160
29.7055,169
29.7427,179
29.7799,146
29.8170,157
29.8542,167
29.8913,176
29.9285,169
29.9656,167
30.0028,182
30.0399,168
30.0771,172
30.1142,164
30.1514,168
30.1885,163
30.2257,179
30.2628,158
30.3000,177
30.3371,211
30.3743,301
30.4114,279
30.4486,228
30.4857,222
30.5229,172
30.5600,162
30.5972,142
30.6343,151
30.6715,151
30.7086,139
30.7458,141
30.7829,146
30.8201,146
30.8572,140
30.8944,136
30.9315,144
30.9687,163
31.0058,154
31.0430,152
31.0801,133
31.1173,138
31.1544,168
31.1916,143
31.2287,162
31.2659,131
31.3030,134
31.3402,152
31.3774,157
31.4145,156
31.4517,144
31.4888,147
31.5260,132
31.5631,137
31.6003,129
31.6374,141
31.6746,153
31.7117,134
31.7489,159
31.7860,129
31.8232,121
31.8603,143
31.8975,120
31.9346,138
31.9718,140
32.0089,142
32.0461,137
32.0832,135
32.1204,152
32.1575,130
32.1947,144
32.2318,137
32.2690,130
32.3061,112
32.3433,142
32.3804,142
32.4176,158
32.4547,140
32.4919,144
32.5290,163
32.5662,142
32.6033,153
32.6405,122
32.6776,128
32.7148,126
32.7519,141
32.7891,144
32.8262,139
32.8634,130
32.9006,141
32.9377,108
32.9749,130
33.0120,120
33.0492,140
33.0863,104
33.1235,106
33.1606,130
33.1978,120
33.2349,120
33.2721,125
33.3092,125
33.3464,128
33.3835,104
33.4207,91
33.4578,125
33.4950,105
33.5321,106
33.5693,122
33.6064,128
33.6436,109
33.6807,134
33.7179,99
33.7550,133
33.7922,120
33.8293,125
33.8665,104
33.9036,105
33.9408,147
33.9779,115
34.0151,117
34.0522,113
34.0894,101
34.1265,115
34.1637,109
34.2008,104
34.2380,104
34.2751,139
34.3123,135
34.3494,94
34.3866,104
34.4238,138
34.4609,114
34.4981,133
34.5352,128
34.5724,102
34.6095,122
34.6467,126
34.6838,121
34.7210,129
34.7581,180
34.7953,153
34.8324,146
34.8696,140
34.9067,114
34.9439,139
34.9810,106
35.0182,133
35.0553,100
35.0925,116
35.1296,108
35.1668,108
35.2039,87
35.2411,108
35.2782,97
35.3154,105
35.3525,124
35.3897,92
35.4268,96
35.4640,112
35.5011,109
35.5383,115
35.5754,115
35.6126,96
35.6497,98
35.6869,99
35.7240,110
35.7612,103
35.7983,104
35.8355,88
35.8726,96
35.9098,110
35.9469,107
35.9841,109
36.0213,101
36.0584,102
36.0956,105
36.1327,85
36.1699,113
36.2070,95
36.2442,94
36.2813,113
36.3185,97
36.3556,110
36.3928,94
36.4299,83
36.4671,97
36.5042,101
36.5414,98
36.5785,94
36.6157,111
36.6528,83
36.6900,88
36.7271,76
36.7643,85
36.8014,90
36.8386,93
36.8757,85
36.9129,77
36.9500,97
36.9872,91
37.0243,101
37.0615,100
37.0986,92
37.1358,110
37.1729,72
37.2101,79
37.2472,84
37.2844,87
37.3215,104
37.3587,114
37.3958,105
37.4330,143
37.4701,132
37.5073,115
37.5445,115
37.5816,104
37.6188,93
37.6559,79
37.6931,69
37.7302,107
37.7674,100
37.8045,89
37.8417,98
37.8788,86
37.9160,79
37.9531,93
37.9903,80
38.0274,83
38.0646,93
38.1017,76
38.1389,79
38.1760,94
38.2132,73
38.2503,99
38.2875,81
38.3246,76
38.3618,86
38.3989,98
38.4361,77
38.4732,84
38.5104,81
38.5475,80
38.5847,93
38.6218,88
38.6590,73
38.6961,83
38.7333,91
38.7704,90
38.8076,93
38.8447,96
38.8819,78
38.9190,90
38.9562,94
38.9933,97
39.0305,91
39.0677,79
39.1048,86
39.1420,71
39.1791,78
39.2163,81
39.2534,67
39.2906,85
39.3277,65
39.3649,92
39.4020,81
39.4392,91
39.4763,77
39.5135,94
39.5506,92
39.5878,90
39.6249,78
39.6621,93
39.6992,80
39.7364,66
39.7735,74
39.8107,83
39.8478,86
39.8850,71
39.9221,64
39.9593,88
39.9964,97
40.0336,85
40.0707,77
40.1079,73
40.1450,84
40.1822,71
40.2193,80
40.2565,87
40.2936,69
40.3308,69
40.3679,83
40.4051,68
40.4422,72
40.4794,74
40.5165,69
40.5537,65
40.5908,69
40.6280,67
40.6652,74
40.7023,76
40.7395,71
40.7766,91
40.8138,76
40.8509,79
40.8881,83
40.9252,72
40.9624,87
40.9995,84
41.0367,67
41.0738,83
41.1110,86
41.1481,87
41.1853,81
41.2224,74
41.2596,82
41.2967,75
41.3339,73
41.3710,74
41.4082,66
41.4453,77
41.4825,69
41.5196,73
41.5568,79
41.5939,65
41.6311,71
41.6682,76
41.7054,76
41.7425,89
41.7797,72
41.8168,76
41.8540,77
41.8911,88
41.9283,73
41.9654,65
42.0026,78
42.0397,91
42.0769,84
42.1140,65
42.1512,80
42.1884,81
42.2255,72
42.2627,82
42.2998,84
42.3370,68
42.3741,63
42.4113,70
42.4484,82
42.4856,68
42.5227,90
42.5599,73
42.5970,87
42.6342,62
42.6713,64
42.7085,88
42.7456,69
42.7828,80
42.8199,71
42.8571,70
42.8942,86
42.9314,54
42.9685,78
43.0057,69
43.0428,88
43.0800,83
43.1171,69
43.1543,85
43.1914,86
43.2286,82
43.2657,96
43.3029,79
43.3400,97
43.3772,95
43.4143,88
43.4515,84
43.4886,133
43.5258,134
43.5629,82
43.6001,106
43.6372,101
43.6744,82
43.7116,89
43.7487,61
43.7859,71
43.8230,70
43.8602,66
43.8973,80
43.9345,69
43.9716,86
44.0088,68
44.0459,79
44.0831,67
44.1202,66
44.1574,61
44.1945,67
44.2317,71
44.2688,77
44.3060,74
44.3431,73
44.3803,63
44.4174,77
44.4546,64
44.4917,63
44.5289,73
44.5660,72
44.6032,81
44.6403,91
44.6775,75
44.7146,85
44.7518,87
44.7889,69
44.8261,77
44.8632,77
44.9004,97
44.9375,79
44.9747,62
45.0118,61
45.0490,75
45.0861,71
45.1233,76
45.1604,67
45.1976,72
45.2347,70
45.2719,66
45.3091,64
45.3462,65
45.3834,64
45.4205,65
45.4577,80
45.4948,62
45.5320,58
45.5691,61
45.6063,64
45.6434,76
45.6806,72
45.7177,59
45.7549,67
45.7920,91
45.8292,62
45.8663,73
45.9035,71
45.9406,75
45.9778,78
46.0149,72
46.0521,68
46.0892,61
46.1264,66
46.1635,71
46.2007,63
46.2378,77
46.2750,74
46.3121,68
46.3493,63
46.3864,57
46.4236,71
46.4607,53
46.4979,60
46.5350,64
46.5722,63
46.6093,70
46.6465,60
46.6836,81
46.7208,60
46.7579,71
46.7951,52
46.8323,76
46.8694,67
46.9066,50
46.9437,74
46.9809,56
47.0180,69
47.0552,64
47.0923,61
47.1295,69
47.1666,66
47.2038,74
47.2409,73
47.2781,80
47.3152,70
47.3524,55
47.3895,69
47.4267,69
47.4638,70
47.5010,55
47.5381,67
47.5753,65
47.6124,51
47.6496,66
47.6867,53
47.7239,69
47.7610,77
47.7982,67
47.8353,64
47.8725,59
47.9096,56
47.9468,63
47.9839,60
48.0211,69
48.0582,75
48.0954,71
48.1325,66
48.1697,64
48.2068,62
48.2440,63
48.2811,66
48.3183,43
48.3555,73
48.3926,56
48.4298,52
48.4669,63
48.5041,69
48.5412,58
48.5784,70
48.6155,73
48.6527,54
48.6898,62
48.7270,72
48.7641,56
48.8013,63
48.8384,59
48.8756,71
48.9127,85
48.9499,139
48.9870,97
49.0242,86
49.0613,78
49.0985,91
49.1356,63
49.1728,72
49.2099,74
49.2471,51
49.2842,64
49.3214,76
49.3585,61
49.3957,58
49.4328,52
49.4700,59
49.5071,87
49.5443,63
49.5814,63
49.6186,58
49.6557,70
49.6929,53
49.7300,49
49.7672,58
49.8043,70
49.8415,62
49.8786,62
49.9158,53
49.9530,63
49.9901,75
50.0273,52
50.0644,51
50.1016,54
50.1387,62
50.1759,74
50.2130,76
50.2502,75
50.2873,60
50.3245,66
50.3616,56
50.3988,62
50.4359,54
50.4731,65
50.5102,66
50.5474,57
50.5845,52
50.6217,60
50.6588,60
50.6960,60
50.7331,78
50.7703,46
50.8074,71
50.8446,55
50.8817,65
50.9189,70
50.9560,52
50.9932,56
51.0303,54
51.0675,59
51.1046,82
51.1418,67
51.1789,65
51.2161,64
51.2532,69
51.2904,61
51.3275,62
51.3647,72
51.4018,82
51.4390,69
51.4762,82
51.5133,61
51.5505,70
51.5876,51
51.6248,54
51.6619,49
51.6991,64
51.7362,57
51.7734,65
51.8105,68
51.8477,64
51.8848,59
51.9220,61
51.9591,67
51.9963,69
52.0334,61
52.0706,53
52.1077,61
52.1449,59
52.1820,69
52.2192,54
52.2563,51
52.2935,55
52.3306,70
52.3678,53
52.4049,47
52.4421,44
52.4792,51
52.5164,51
52.5535,69
52.5907,55
52.6278,50
52.6650,65
52.7021,78
52.7393,54
52.7764,47
52.8136,57
52.8507,70
52.8879,52
52.9250,63
52.9622,55
52.9994,73
53.0365,60
53.0737,52
53.1108,65
53.1480,66
53.1851,74
53.2223,57
53.2594,67
53.2966,55
53.3337,55
53.3709,50
53.4080,49
53.4452,60
53.4823,50
53.5195,66
53.5566,66
53.5938,45
53.6309,59
53.6681,49
53.7052,57
53.7424,72
53.7795,57
53.8167,53
53.8538,72
53.8910,74
53.9281,54
53.9653,80
54.0024,74
54.0396,55
54.0767,53
54.1139,67
54.1510,77
54.1882,58
54.2253,57
54.2625,61
54.2996,67
54.3368,66
54.3739,56
54.4111,50
54.4482,52
54.4854,54
54.5225,59
54.5597,61
54.5969,54
54.6340,65
54.6712,61
54.7083,59
54.7455,48
54.7826,60
54.8198,45
54.8569,45
54.8941,53
54.9312,48
54.9684,55
55.0055,59
55.0427,56
55.0798,54
55.1170,51
55.1541,59
55.1913,60
55.2284,54
55.2656,51
55.3027,58
55.3399,60
55.3770,52
55.4142,63
55.4513,59
55.4885,52
55.5256,58
55.5628,69
55.5999,49
55.6371,69
55.6742,67
55.7114,49
55.7485,32
55.7857,46
55.8228,63
55.8600,43
55.8971,48
55.9343,58
55.9714,54
56.0086,57
56.0457,59
56.0829,55
56.1201,58
56.1572,63
56.1944,71
56.2315,63
56.2687,74
56.3058,59
56.3430,56
56.3801,64
56.4173,59
56.4544,73
56.4916,54
56.5287,67
56.5659,63
56.6030,42
56.6402,56
56.6773,51
56.7145,53
56.7516,68
56.7888,52
56.8259,47
56.8631,60
56.9002,48
56.9374,64
56.9745,67
57.0117,52
57.0488,49
57.0860,48
57.1231,57
57.1603,62
57.1974,58
57.2346,72
57.2717,56
57.3089,56
57.3460,51
57.3832,62
57.4203,76
57.4575,52
57.4946,59
57.5318,54
57.5689,56
57.6061,58
57.6433,56
57.6804,63
57.7176,54
57.7547,54
57.7919,63
57.8290,62
57.8662,54
57.9033,69
57.9405,56
57.9776,55
58.0148,55
58.0519,58
58.0891,61
58.1262,56
58.1634,52
58.2005,63
58.2377,60
58.2748,65
58.3120,63
58.3491,57
58.3863,58
58.4234,52
58.4606,51
58.4977,52
58.5349,51
58.5720,57
58.6092,48
58.6463,62
58.6835,48
58.7206,60
58.7578,49
58.7949,70
58.8321,44
58.8692,49
58.9064,54
58.9435,51
58.9807,50
59.0178,45
59.0550,48
59.0921,56
59.1293,53
59.1664,57
59.2036,61
59.2408,56
59.2779,61
59.3151,39
59.3522,52
59.3894,48
59.4265,68
59.4637,68
59.5008,65
59.5380,53
59.5751,51
59.6123,60
59.6494,54
59.6866,58
59.7237,50
59.7609,50
59.7980,59
59.8352,57
59.8723,60
59.9095,56
59.9466,50
59.9838,48
60.0024,59