File: notebooks/data/xrd_data/ML_20220718_45_SJD_4_LaB6-1min.csv
;,2THETA,
5.0000,109
5.0372,76
5.0743,100
5.1115,105
5.1486,99
5.1858,90
5.2229,77
5.2601,93
5.2972,89
5.3344,108
5.3715,88
5.4087,73
5.4458,94
5.4830,92
5.5201,79
5.5573,77
5.5944,80
5.6316,87
5.6687,81
5.7059,69
5.7430,82
5.7802,74
5.8173,90
5.8545,96
5.8916,75
5.9288,69
5.9659,72
6.0031,75
6.0402,75
6.0774,63
6.1145,64
6.1517,70
6.1888,55
6.2260,75
6.2631,73
6.3003,59
6.3374,80
6.3746,74
6.4117,67
6.4489,66
6.4860,60
6.5232,60
6.5604,66
6.5975,60
6.6347,42
6.6718,63
6.7090,66
6.7461,64
6.7833,73
6.8204,71
6.8576,62
6.8947,67
6.9319,45
6.9690,72
7.0062,54
7.0433,68
7.0805,47
7.1176,47
7.1548,57
7.1919,67
7.2291,57
7.2662,47
7.3034,71
7.3405,66
7.3777,61
7.4148,69
7.4520,52
7.4891,61
7.5263,66
7.5634,53
7.6006,57
7.6377,71
7.6749,53
7.7120,63
7.7492,70
7.7863,70
7.8235,65
7.8606,64
7.8978,75
7.9349,70
7.9721,68
8.0092,72
8.0464,67
8.0835,68
8.1207,69
8.1579,60
8.1950,63
8.2322,75
8.2693,64
8.3065,72
8.3436,70
8.3808,68
8.4179,71
8.4551,65
8.4922,70
8.5294,80
8.5665,71
8.6037,61
8.6408,78
8.6780,86
8.7151,78
8.7523,73
8.7894,47
8.8266,78
8.8637,77
8.9009,61
8.9380,79
8.9752,92
9.0123,74
9.0495,82
9.0866,83
9.1238,73
9.1609,53
9.1981,83
9.2352,82
9.2724,65
9.3095,73
9.3467,73
9.3838,95
9.4210,67
9.4581,87
9.4953,86
9.5324,82
9.5696,90
9.6067,81
9.6439,71
9.6811,77
9.7182,87
9.7554,60
9.7925,75
9.8297,105
9.8668,102
9.9040,91
9.9411,76
9.9783,80
10.0154,88
10.0526,105
10.0897,81
10.1269,87
10.1640,78
10.2012,98
10.2383,77
10.2755,83
10.3126,87
10.3498,82
10.3869,72
10.4241,86
10.4612,100
10.4984,89
10.5355,98
10.5727,82
10.6098,81
10.6470,94
10.6841,102
10.7213,85
10.7584,92
10.7956,108
10.8327,90
10.8699,81
10.9070,76
10.9442,99
10.9813,98
11.0185,93
11.0556,84
11.0928,72
11.1299,92
11.1671,88
11.2043,74
11.2414,86
11.2786,94
11.3157,82
11.3529,90
11.3900,76
11.4272,94
11.4643,83
11.5015,101
11.5386,72
11.5758,79
11.6129,71
11.6501,84
11.6872,81
11.7244,89
11.7615,89
11.7987,81
11.8358,89
11.8730,98
11.9101,96
11.9473,89
11.9844,75
12.0216,82
12.0587,67
12.0959,74
12.1330,88
12.1702,94
12.2073,79
12.2445,94
12.2816,60
12.3188,67
12.3559,93
12.3931,65
12.4302,82
12.4674,81
12.5045,90
12.5417,75
12.5788,90
12.6160,77
12.6531,77
12.6903,86
12.7274,87
12.7646,73
12.8018,83
12.8389,82
12.8761,71
12.9132,72
12.9504,73
12.9875,83
13.0247,64
13.0618,73
13.0990,88
13.1361,81
13.1733,78
13.2104,63
13.2476,82
13.2847,71
13.3219,83
13.3590,77
13.3962,71
13.4333,75
13.4705,89
13.5076,74
13.5448,64
13.5819,59
13.6191,87
13.6562,80
13.6934,62
13.7305,66
13.7677,78
13.8048,71
13.8420,67
13.8791,77
13.9163,82
13.9534,80
13.9906,71
14.0277,76
14.0649,76
14.1020,75
14.1392,71
14.1763,91
14.2135,70
14.2506,67
14.2878,65
14.3250,70
14.3621,77
14.3993,58
14.4364,66
14.4736,53
14.5107,64
14.5479,61
14.5850,73
14.6222,50
14.6593,73
14.6965,59
14.7336,65
14.7708,63
14.8079,62
14.8451,72
14.8822,60
14.9194,61
14.9565,71
14.9937,64
15.0308,72
15.0680,55
15.1051,57
15.1423,66
15.1794,61
15.2166,58
15.2537,65
15.2909,58
15.3280,62
15.3652,53
15.4023,58
15.4395,50
15.4766,49
15.5138,61
15.5509,60
15.5881,65
15.6252,64
15.6624,67
15.6995,54
15.7367,54
15.7738,39
15.8110,71
15.8482,56
15.8853,57
15.9225,58
15.9596,63
15.9968,76
16.0339,47
16.0711,73
16.1082,65
16.1454,54
16.1825,49
16.2197,64
16.2568,66
16.2940,60
16.3311,50
16.3683,46
16.4054,75
16.4426,72
16.4797,62
16.5169,56
16.5540,61
16.5912,66
16.6283,51
16.6655,52
16.7026,65
16.7398,66
16.7769,50
16.8141,66
16.8512,60
16.8884,57
16.9255,53
16.9627,60
16.9998,47
17.0370,65
17.0741,48
17.1113,76
17.1484,53
17.1856,58
17.2227,51
17.2599,46
17.2970,50
17.3342,60
17.3713,61
17.4085,71
17.4457,82
17.4828,46
17.5200,55
17.5571,66
17.5943,58
17.6314,62
17.6686,54
17.7057,59
17.7429,56
17.7800,66
17.8172,56
17.8543,71
17.8915,59
17.9286,64
17.9658,75
18.0029,65
18.0401,59
18.0772,67
18.1144,55
18.1515,54
18.1887,60
18.2258,56
18.2630,50
18.3001,56
18.3373,58
18.3744,62
18.4116,58
18.4487,51
18.4859,57
18.5230,64
18.5602,57
18.5973,62
18.6345,64
18.6716,48
18.7088,71
18.7459,59
18.7831,61
18.8202,62
18.8574,73
18.8945,56
18.9317,60
18.9689,60
19.0060,57
19.0432,61
19.0803,62
19.1175,75
19.1546,56
19.1918,66
19.2289,69
19.2661,76
19.3032,56
19.3404,64
19.3775,66
19.4147,54
19.4518,71
19.4890,63
19.5261,54
19.5633,70
19.6004,56
19.6376,59
19.6747,67
19.7119,64
19.7490,63
19.7862,62
19.8233,68
19.8605,62
19.8976,60
19.9348,52
19.9719,64
20.0091,74
20.0462,62
20.0834,59
20.1205,58
20.1577,59
20.1948,46
20.2320,62
20.2691,65
20.3063,66
20.3434,72
20.3806,76
20.4177,62
20.4549,62
20.4921,52
20.5292,72
20.5664,81
20.6035,62
20.6407,74
20.6778,69
20.7150,64
20.7521,61
20.7893,72
20.8264,71
20.8636,71
20.9007,66
20.9379,85
20.9750,63
21.0122,67
21.0493,70
21.0865,88
21.1236,89
21.1608,83
21.1979,105
21.2351,118
21.2722,96
21.3094,124
21.3465,187
21.3837,183
21.4208,119
21.4580,94
21.4951,83
21.5323,82
21.5694,75
21.6066,62
21.6437,81
21.6809,70
21.7180,76
21.7552,87
21.7923,63
21.8295,83
21.8666,69
21.9038,65
21.9409,71
21.9781,77
22.0152,82
22.0524,73
22.0896,68
22.1267,86
22.1639,68
22.2010,62
22.2382,61
22.2753,79
22.3125,68
22.3496,69
22.3868,73
22.4239,81
22.4611,76
22.4982,70
22.5354,75
22.5725,70
22.6097,63
22.6468,79
22.6840,81
22.7211,66
22.7583,63
22.7954,67
22.8326,83
22.8697,77
22.9069,83
22.9440,77
22.9812,80
23.0183,78
23.0555,74
23.0926,69
23.1298,90
23.1669,81
23.2041,69
23.2412,60
23.2784,57
23.3155,84
23.3527,80
23.3898,88
23.4270,72
23.4641,72
23.5013,72
23.5384,67
23.5756,68
23.6128,68
23.6499,66
23.6871,70
23.7242,69
23.7614,70
23.7985,61
23.8357,71
23.8728,68
23.9100,82
23.9471,72
23.9843,70
24.0214,94
24.0586,66
24.0957,67
24.1329,70
24.1700,74
24.2072,83
24.2443,74
24.2815,103
24.3186,94
24.3558,86
24.3929,79
24.4301,82
24.4672,69
24.5044,72
24.5415,64
24.5787,75
24.6158,91
24.6530,80
24.6901,73
24.7273,76
24.7644,68
24.8016,73
24.8387,64
24.8759,74
24.9130,77
24.9502,74
24.9873,80
25.0245,73
25.0616,69
25.0988,69
25.1360,71
25.1731,72
25.2103,60
25.2474,76
25.2846,60
25.3217,63
25.3589,69
25.3960,68
25.4332,68
25.4703,65
25.5075,77
25.5446,73
25.5818,86
25.6189,71
25.6561,65
25.6932,71
25.7304,83
25.7675,80
25.8047,71
25.8418,72
25.8790,63
25.9161,63
25.9533,58
25.9904,56
26.0276,79
26.0647,71
26.1019,80
26.1390,68
26.1762,76
26.2133,69
26.2505,76
26.2876,68
26.3248,50
26.3619,84
26.3991,63
26.4362,59
26.4734,66
26.5105,66
26.5477,75
26.5848,56
26.6220,70
26.6591,67
26.6963,71
26.7335,59
26.7706,77
26.8078,77
26.8449,89
26.8821,83
26.9192,63
26.9564,81
26.9935,65
27.0307,88
27.0678,73
27.1050,82
27.1421,75
27.1793,69
27.2164,85
27.2536,82
27.2907,75
27.3279,62
27.3650,71
27.4022,56
27.4393,68
27.4765,58
27.5136,88
27.5508,60
27.5879,61
27.6251,63
27.6622,71
27.6994,59
27.7365,60
27.7737,62
27.8108,59
27.8480,58
27.8851,72
27.9223,68
27.9594,63
27.9966,49
28.0337,63
28.0709,70
28.1080,51
28.1452,70
28.1823,77
28.2195,66
28.2567,64
28.2938,74
28.3310,74
28.3681,64
28.4053,54
28.4424,63
28.4796,50
28.5167,59
28.5539,60
28.5910,58
28.6282,67
28.6653,56
28.7025,55
28.7396,66
28.7768,68
28.8139,59
28.8511,45
28.8882,63
28.9254,69
28.9625,57
28.9997,63
29.0368,60
29.0740,53
29.1111,47
29.1483,58
29.1854,56
29.2226,66
29.2597,48
29.2969,63
29.3340,60
29.3712,67
29.4083,56
29.4455,60
29.4826,55
29.5198,49
29.5569,43
29.5941,63
29.6312,62
29.6684,55
29.7055,48
29.7427,47
29.7799,65
29.8170,47
29.8542,61
29.8913,61
29.9285,63
29.9656,65
30.0028,44
30.0399,48
30.0771,63
30.1142,59
30.1514,60
30.1885,68
30.2257,50
30.2628,66
30.3000,65
30.3371,85
30.3743,82
30.4114,110
30.4486,82
30.4857,79
30.5229,52
30.5600,59
30.5972,60
30.6343,52
30.6715,42
30.7086,52
30.7458,55
30.7829,48
30.8201,59
30.8572,51
30.8944,41
30.9315,50
30.9687,62
31.0058,63
31.0430,65
31.0801,55
31.1173,50
31.1544,45
31.1916,46
31.2287,56
31.2659,47
31.3030,60
31.3402,60
31.3774,53
31.4145,54
31.4517,50
31.4888,46
31.5260,50
31.5631,44
31.6003,45
31.6374,37
31.6746,54
31.7117,50
31.7489,50
31.7860,57
31.8232,59
31.8603,44
31.8975,44
31.9346,42
31.9718,56
32.0089,61
32.0461,54
32.0832,49
32.1204,61
32.1575,34
32.1947,59
32.2318,52
32.2690,48
32.3061,47
32.3433,52
32.3804,45
32.4176,42
32.4547,72
32.4919,58
32.5290,49
32.5662,56
32.6033,56
32.6405,65
32.6776,49
32.7148,32
32.7519,42
32.7891,37
32.8262,47
32.8634,41
32.9006,37
32.9377,49
32.9749,29
33.0120,52
33.0492,55
33.0863,48
33.1235,61
33.1606,41
33.1978,45
33.2349,36
33.2721,36
33.3092,44
33.3464,43
33.3835,32
33.4207,33
33.4578,53
33.4950,40
33.5321,44
33.5693,35
33.6064,54
33.6436,46
33.6807,51
33.7179,40
33.7550,34
33.7922,43
33.8293,39
33.8665,51
33.9036,49
33.9408,44
33.9779,52
34.0151,56
34.0522,43
34.0894,48
34.1265,44
34.1637,41
34.2008,44
34.2380,33
34.2751,35
34.3123,36
34.3494,38
34.3866,37
34.4238,49
34.4609,40
34.4981,37
34.5352,45
34.5724,42
34.6095,52
34.6467,44
34.6838,57
34.7210,58
34.7581,62
34.7953,65
34.8324,58
34.8696,44
34.9067,54
34.9439,41
34.9810,40
35.0182,28
35.0553,39
35.0925,40
35.1296,31
35.1668,41
35.2039,46
35.2411,46
35.2782,37
35.3154,30
35.3525,37
35.3897,34
35.4268,44
35.4640,33
35.5011,38
35.5383,38
35.5754,40
35.6126,32
35.6497,31
35.6869,39
35.7240,40
35.7612,43
35.7983,41
35.8355,29
35.8726,41
35.9098,23
35.9469,38
35.9841,31
36.0213,43
36.0584,35
36.0956,38
36.1327,40
36.1699,34
36.2070,45
36.2442,32
36.2813,27
36.3185,41
36.3556,37
36.3928,37
36.4299,33
36.4671,36
36.5042,36
36.5414,30
36.5785,33
36.6157,36
36.6528,41
36.6900,30
36.7271,36
36.7643,32
36.8014,36
36.8386,28
36.8757,24
36.9129,35
36.9500,30
36.9872,37
37.0243,37
37.0615,30
37.0986,28
37.1358,40
37.1729,34
37.2101,33
37.2472,30
37.2844,39
37.3215,42
37.3587,31
37.3958,41
37.4330,60
37.4701,42
37.5073,40
37.5445,54
37.5816,48
37.6188,27
37.6559,24
37.6931,33
37.7302,33
37.7674,32
37.8045,36
37.8417,29
37.8788,36
37.9160,48
37.9531,28
37.9903,35
38.0274,34
38.0646,26
38.1017,36
38.1389,26
38.1760,39
38.2132,29
38.2503,28
38.2875,38
38.3246,33
38.3618,31
38.3989,35
38.4361,28
38.4732,35
38.5104,27
38.5475,36
38.5847,40
38.6218,38
38.6590,26
38.6961,37
38.7333,36
38.7704,32
38.8076,31
38.8447,26
38.8819,33
38.9190,36
38.9562,24
38.9933,30
39.0305,35
39.0677,18
39.1048,32
39.1420,33
39.1791,24
39.2163,24
39.2534,28
39.2906,27
39.3277,31
39.3649,33
39.4020,20
39.4392,22
39.4763,29
39.5135,35
39.5506,33
39.5878,31
39.6249,30
39.6621,29
39.6992,34
39.7364,24
39.7735,26
39.8107,34
39.8478,24
39.8850,27
39.9221,39
39.9593,27
39.9964,25
40.0336,21
40.0707,31
40.1079,38
40.1450,37
40.1822,31
40.2193,24
40.2565,19
40.2936,28
40.3308,29
40.3679,21
40.4051,25
40.4422,26
40.4794,28
40.5165,20
40.5537,30
40.5908,31
40.6280,35
40.6652,37
40.7023,29
40.7395,37
40.7766,25
40.8138,26
40.8509,33
40.8881,36
40.9252,33
40.9624,29
40.9995,41
41.0367,25
41.0738,21
41.1110,37
41.1481,35
41.1853,22
41.2224,24
41.2596,25
41.2967,24
41.3339,25
41.3710,42
41.4082,31
41.4453,29
41.4825,36
41.5196,23
41.5568,22
41.5939,25
41.6311,20
41.6682,37
41.7054,22
41.7425,21
41.7797,21
41.8168,39
41.8540,24
41.8911,31
41.9283,25
41.9654,29
42.0026,30
42.0397,27
42.0769,38
42.1140,30
42.1512,36
42.1884,25
42.2255,25
42.2627,21
42.2998,32
42.3370,23
42.3741,31
42.4113,32
42.4484,30
42.4856,24
42.5227,28
42.5599,32
42.5970,20
42.6342,30
42.6713,34
42.7085,25
42.7456,20
42.7828,31
42.8199,16
42.8571,25
42.8942,27
42.9314,29
42.9685,24
43.0057,25
43.0428,24
43.0800,28
43.1171,35
43.1543,25
43.1914,14
43.2286,20
43.2657,31
43.3029,27
43.3400,29
43.3772,35
43.4143,33
43.4515,35
43.4886,49
43.5258,51
43.5629,40
43.6001,47
43.6372,31
43.6744,39
43.7116,33
43.7487,26
43.7859,37
43.8230,29
43.8602,26
43.8973,34
43.9345,27
43.9716,35
44.0088,27
44.0459,19
44.0831,25
44.1202,33
44.1574,22
44.1945,28
44.2317,26
44.2688,27
44.3060,31
44.3431,25
44.3803,40
44.4174,31
44.4546,29
44.4917,33
44.5289,20
44.5660,20
44.6032,30
44.6403,26
44.6775,29
44.7146,27
44.7518,26
44.7889,37
44.8261,33
44.8632,22
44.9004,41
44.9375,25
44.9747,18
45.0118,22
45.0490,24
45.0861,19
45.1233,25
45.1604,22
45.1976,24
45.2347,28
45.2719,21
45.3091,37
45.3462,20
45.3834,29
45.4205,23
45.4577,20
45.4948,21
45.5320,25
45.5691,20
45.6063,21
45.6434,19
45.6806,23
45.7177,22
45.7549,17
45.7920,34
45.8292,32
45.8663,32
45.9035,17
45.9406,23
45.9778,25
46.0149,28
46.0521,28
46.0892,29
46.1264,20
46.1635,25
46.2007,27
46.2378,29
46.2750,29
46.3121,20
46.3493,20
46.3864,25
46.4236,20
46.4607,25
46.4979,29
46.5350,28
46.5722,24
46.6093,18
46.6465,29
46.6836,28
46.7208,32
46.7579,26
46.7951,34
46.8323,23
46.8694,30
46.9066,21
46.9437,23
46.9809,18
47.0180,19
47.0552,20
47.0923,27
47.1295,21
47.1666,29
47.2038,31
47.2409,21
47.2781,21
47.3152,29
47.3524,23
47.3895,31
47.4267,32
47.4638,22
47.5010,20
47.5381,23
47.5753,28
47.6124,18
47.6496,15
47.6867,18
47.7239,29
47.7610,32
47.7982,18
47.8353,16
47.8725,29
47.9096,19
47.9468,18
47.9839,22
48.0211,21
48.0582,28
48.0954,24
48.1325,23
48.1697,22
48.2068,22
48.2440,16
48.2811,20
48.3183,21
48.3555,20
48.3926,26
48.4298,25
48.4669,17
48.5041,29
48.5412,24
48.5784,18
48.6155,19
48.6527,25
48.6898,27
48.7270,20
48.7641,18
48.8013,18
48.8384,23
48.8756,24
48.9127,32
48.9499,24
48.9870,42
49.0242,29
49.0613,24
49.0985,32
49.1356,32
49.1728,19
49.2099,26
49.2471,35
49.2842,18
49.3214,17
49.3585,19
49.3957,16
49.4328,21
49.4700,22
49.5071,27
49.5443,24
49.5814,17
49.6186,23
49.6557,21
49.6929,24
49.7300,26
49.7672,30
49.8043,17
49.8415,29
49.8786,18
49.9158,28
49.9530,26
49.9901,19
50.0273,19
50.0644,16
50.1016,24
50.1387,29
50.1759,27
50.2130,20
50.2502,32
50.2873,25
50.3245,24
50.3616,19
50.3988,27
50.4359,19
50.4731,16
50.5102,20
50.5474,20
50.5845,18
50.6217,19
50.6588,26
50.6960,22
50.7331,21
50.7703,27
50.8074,17
50.8446,24
50.8817,19
50.9189,25
50.9560,18
50.9932,16
51.0303,17
51.0675,21
51.1046,19
51.1418,26
51.1789,24
51.2161,17
51.2532,24
51.2904,29
51.3275,12
51.3647,23
51.4018,20
51.4390,29
51.4762,20
51.5133,31
51.5505,18
51.5876,31
51.6248,20
51.6619,22
51.6991,29
51.7362,28
51.7734,23
51.8105,28
51.8477,32
51.8848,21
51.9220,24
51.9591,28
51.9963,17
52.0334,31
52.0706,32
52.1077,14
52.1449,21
52.1820,21
52.2192,24
52.2563,15
52.2935,13
52.3306,23
52.3678,26
52.4049,31
52.4421,27
52.4792,22
52.5164,17
52.5535,24
52.5907,21
52.6278,22
52.6650,25
52.7021,21
52.7393,19
52.7764,26
52.8136,22
52.8507,25
52.8879,17
52.9250,21
52.9622,21
52.9994,25
53.0365,21
53.0737,22
53.1108,33
53.1480,32
53.1851,19
53.2223,11
53.2594,20
53.2966,27
53.3337,16
53.3709,33
53.4080,23
53.4452,19
53.4823,23
53.5195,20
53.5566,16
53.5938,16
53.6309,21
53.6681,20
53.7052,15
53.7424,20
53.7795,24
53.8167,29
53.8538,21
53.8910,15
53.9281,25
53.9653,22
54.0024,30
54.0396,27
54.0767,23
54.1139,23
54.1510,33
54.1882,21
54.2253,19
54.2625,28
54.2996,28
54.3368,24
54.3739,27
54.4111,28
54.4482,19
54.4854,23
54.5225,28
54.5597,20
54.5969,17
54.6340,21
54.6712,32
54.7083,25
54.7455,21
54.7826,21
54.8198,19
54.8569,22
54.8941,15
54.9312,25
54.9684,19
55.0055,32
55.0427,15
55.0798,27
55.1170,23
55.1541,17
55.1913,24
55.2284,21
55.2656,18
55.3027,24
55.3399,21
55.3770,12
55.4142,17
55.4513,18
55.4885,22
55.5256,26
55.5628,18
55.5999,22
55.6371,22
55.6742,17
55.7114,22
55.7485,19
55.7857,19
55.8228,29
55.8600,23
55.8971,16
55.9343,18
55.9714,17
56.0086,18
56.0457,29
56.0829,22
56.1201,18
56.1572,18
56.1944,16
56.2315,24
56.2687,26
56.3058,23
56.3430,23
56.3801,22
56.4173,19
56.4544,18
56.4916,18
56.5287,26
56.5659,19
56.6030,15
56.6402,20
56.6773,17
56.7145,26
56.7516,31
56.7888,16
56.8259,17
56.8631,22
56.9002,22
56.9374,23
56.9745,21
57.0117,15
57.0488,19
57.0860,25
57.1231,22
57.1603,18
57.1974,15
57.2346,20
57.2717,23
57.3089,19
57.3460,18
57.3832,25
57.4203,21
57.4575,19
57.4946,16
57.5318,16
57.5689,17
57.6061,22
57.6433,24
57.6804,25
57.7176,26
57.7547,13
57.7919,19
57.8290,18
57.8662,21
57.9033,21
57.9405,26
57.9776,17
58.0148,17
58.0519,21
58.0891,17
58.1262,15
58.1634,29
58.2005,17
58.2377,20
58.2748,24
58.3120,20
58.3491,18
58.3863,22
58.4234,28
58.4606,16
58.4977,17
58.5349,19
58.5720,20
58.6092,19
58.6463,12
58.6835,17
58.7206,25
58.7578,22
58.7949,13
58.8321,25
58.8692,24
58.9064,16
58.9435,19
58.9807,17
59.0178,16
59.0550,28
59.0921,11
59.1293,19
59.1664,13
59.2036,22
59.2408,12
59.2779,13
59.3151,14
59.3522,20
59.3894,17
59.4265,10
59.4637,18
59.5008,30
59.5380,16
59.5751,22
59.6123,19
59.6494,19
59.6866,17
59.7237,17
59.7609,18
59.7980,18
59.8352,24
59.8723,18
59.9095,27
59.9466,19
59.9838,19
60.0024,20