File: notebooks/data/xrd_data/ML_20220718_16_SJD_4_LaB6-2min.csv
;,2THETA,
5.0000,136
5.0372,126
5.0743,120
5.1115,130
5.1486,138
5.1858,121
5.2229,120
5.2601,123
5.2972,126
5.3344,124
5.3715,123
5.4087,111
5.4458,96
5.4830,108
5.5201,130
5.5573,123
5.5944,101
5.6316,109
5.6687,99
5.7059,121
5.7430,106
5.7802,101
5.8173,105
5.8545,118
5.8916,89
5.9288,101
5.9659,113
6.0031,96
6.0402,84
6.0774,98
6.1145,92
6.1517,89
6.1888,98
6.2260,84
6.2631,79
6.3003,91
6.3374,97
6.3746,91
6.4117,104
6.4489,106
6.4860,76
6.5232,88
6.5604,77
6.5975,93
6.6347,84
6.6718,93
6.7090,87
6.7461,71
6.7833,76
6.8204,81
6.8576,86
6.8947,77
6.9319,75
6.9690,104
7.0062,85
7.0433,76
7.0805,83
7.1176,76
7.1548,87
7.1919,90
7.2291,75
7.2662,93
7.3034,83
7.3405,65
7.3777,85
7.4148,75
7.4520,92
7.4891,75
7.5263,88
7.5634,74
7.6006,89
7.6377,79
7.6749,72
7.7120,89
7.7492,86
7.7863,113
7.8235,99
7.8606,98
7.8978,85
7.9349,104
7.9721,113
8.0092,94
8.0464,93
8.0835,86
8.1207,91
8.1579,96
8.1950,110
8.2322,99
8.2693,96
8.3065,101
8.3436,96
8.3808,104
8.4179,98
8.4551,99
8.4922,95
8.5294,94
8.5665,101
8.6037,84
8.6408,99
8.6780,99
8.7151,92
8.7523,114
8.7894,119
8.8266,101
8.8637,103
8.9009,109
8.9380,106
8.9752,94
9.0123,109
9.0495,121
9.0866,126
9.1238,107
9.1609,110
9.1981,117
9.2352,115
9.2724,104
9.3095,98
9.3467,127
9.3838,94
9.4210,101
9.4581,125
9.4953,125
9.5324,114
9.5696,115
9.6067,113
9.6439,106
9.6811,120
9.7182,126
9.7554,103
9.7925,106
9.8297,108
9.8668,120
9.9040,101
9.9411,125
9.9783,117
10.0154,113
10.0526,122
10.0897,112
10.1269,140
10.1640,121
10.2012,117
10.2383,112
10.2755,132
10.3126,117
10.3498,111
10.3869,111
10.4241,119
10.4612,121
10.4984,135
10.5355,122
10.5727,119
10.6098,145
10.6470,116
10.6841,128
10.7213,135
10.7584,133
10.7956,107
10.8327,101
10.8699,133
10.9070,136
10.9442,122
10.9813,137
11.0185,103
11.0556,117
11.0928,109
11.1299,110
11.1671,123
11.2043,133
11.2414,102
11.2786,113
11.3157,135
11.3529,99
11.3900,103
11.4272,97
11.4643,121
11.5015,137
11.5386,119
11.5758,118
11.6129,125
11.6501,109
11.6872,110
11.7244,133
11.7615,102
11.7987,122
11.8358,117
11.8730,98
11.9101,115
11.9473,101
11.9844,120
12.0216,130
12.0587,114
12.0959,95
12.1330,116
12.1702,130
12.2073,117
12.2445,86
12.2816,104
12.3188,121
12.3559,96
12.3931,110
12.4302,101
12.4674,123
12.5045,97
12.5417,100
12.5788,99
12.6160,108
12.6531,93
12.6903,140
12.7274,105
12.7646,98
12.8018,100
12.8389,119
12.8761,97
12.9132,98
12.9504,106
12.9875,93
13.0247,105
13.0618,104
13.0990,83
13.1361,107
13.1733,101
13.2104,97
13.2476,109
13.2847,121
13.3219,86
13.3590,85
13.3962,95
13.4333,112
13.4705,93
13.5076,94
13.5448,99
13.5819,103
13.6191,94
13.6562,96
13.6934,90
13.7305,91
13.7677,102
13.8048,101
13.8420,99
13.8791,95
13.9163,99
13.9534,85
13.9906,83
14.0277,101
14.0649,89
14.1020,84
14.1392,82
14.1763,88
14.2135,71
14.2506,81
14.2878,82
14.3250,91
14.3621,77
14.3993,92
14.4364,63
14.4736,81
14.5107,71
14.5479,80
14.5850,89
14.6222,85
14.6593,88
14.6965,82
14.7336,76
14.7708,80
14.8079,73
14.8451,96
14.8822,72
14.9194,82
14.9565,86
14.9937,82
15.0308,84
15.0680,77
15.1051,91
15.1423,94
15.1794,70
15.2166,88
15.2537,79
15.2909,79
15.3280,62
15.3652,92
15.4023,90
15.4395,110
15.4766,90
15.5138,68
15.5509,71
15.5881,86
15.6252,79
15.6624,97
15.6995,77
15.7367,92
15.7738,86
15.8110,69
15.8482,83
15.8853,57
15.9225,82
15.9596,80
15.9968,70
16.0339,86
16.0711,86
16.1082,84
16.1454,76
16.1825,90
16.2197,74
16.2568,88
16.2940,75
16.3311,77
16.3683,101
16.4054,94
16.4426,86
16.4797,81
16.5169,82
16.5540,85
16.5912,79
16.6283,95
16.6655,75
16.7026,77
16.7398,79
16.7769,85
16.8141,83
16.8512,85
16.8884,68
16.9255,80
16.9627,87
16.9998,84
17.0370,76
17.0741,80
17.1113,76
17.1484,74
17.1856,81
17.2227,80
17.2599,73
17.2970,61
17.3342,82
17.3713,81
17.4085,81
17.4457,70
17.4828,79
17.5200,73
17.5571,87
17.5943,91
17.6314,86
17.6686,89
17.7057,78
17.7429,88
17.7800,69
17.8172,93
17.8543,83
17.8915,91
17.9286,70
17.9658,65
18.0029,89
18.0401,66
18.0772,78
18.1144,82
18.1515,89
18.1887,78
18.2258,81
18.2630,71
18.3001,77
18.3373,87
18.3744,89
18.4116,86
18.4487,93
18.4859,89
18.5230,107
18.5602,71
18.5973,87
18.6345,69
18.6716,85
18.7088,81
18.7459,88
18.7831,82
18.8202,78
18.8574,81
18.8945,96
18.9317,100
18.9689,98
19.0060,75
19.0432,92
19.0803,76
19.1175,98
19.1546,95
19.1918,90
19.2289,82
19.2661,73
19.3032,94
19.3404,90
19.3775,78
19.4147,81
19.4518,98
19.4890,81
19.5261,90
19.5633,73
19.6004,89
19.6376,82
19.6747,88
19.7119,91
19.7490,79
19.7862,76
19.8233,79
19.8605,86
19.8976,70
19.9348,71
19.9719,102
20.0091,76
20.0462,81
20.0834,99
20.1205,87
20.1577,84
20.1948,89
20.2320,84
20.2691,83
20.3063,106
20.3434,78
20.3806,91
20.4177,77
20.4549,97
20.4921,104
20.5292,101
20.5664,96
20.6035,104
20.6407,104
20.6778,83
20.7150,82
20.7521,94
20.7893,87
20.8264,105
20.8636,112
20.9007,111
20.9379,114
20.9750,101
21.0122,79
21.0493,92
21.0865,92
21.1236,118
21.1608,117
21.1979,143
21.2351,171
21.2722,138
21.3094,174
21.3465,248
21.3837,200
21.4208,159
21.4580,124
21.4951,98
21.5323,110
21.5694,118
21.6066,86
21.6437,123
21.6809,117
21.7180,94
21.7552,94
21.7923,89
21.8295,109
21.8666,81
21.9038,106
21.9409,87
21.9781,93
22.0152,92
22.0524,100
22.0896,100
22.1267,122
22.1639,78
22.2010,97
22.2382,95
22.2753,90
22.3125,107
22.3496,102
22.3868,91
22.4239,98
22.4611,97
22.4982,83
22.5354,88
22.5725,99
22.6097,90
22.6468,79
22.6840,107
22.7211,83
22.7583,92
22.7954,79
22.8326,86
22.8697,90
22.9069,97
22.9440,100
22.9812,94
23.0183,102
23.0555,99
23.0926,106
23.1298,106
23.1669,99
23.2041,86
23.2412,94
23.2784,93
23.3155,103
23.3527,116
23.3898,75
23.4270,116
23.4641,88
23.5013,88
23.5384,109
23.5756,82
23.6128,91
23.6499,108
23.6871,105
23.7242,79
23.7614,97
23.7985,94
23.8357,91
23.8728,119
23.9100,108
23.9471,97
23.9843,105
24.0214,104
24.0586,94
24.0957,106
24.1329,113
24.1700,100
24.2072,107
24.2443,114
24.2815,111
24.3186,108
24.3558,114
24.3929,84
24.4301,87
24.4672,81
24.5044,96
24.5415,112
24.5787,110
24.6158,107
24.6530,92
24.6901,90
24.7273,93
24.7644,95
24.8016,92
24.8387,99
24.8759,103
24.9130,113
24.9502,109
24.9873,106
25.0245,95
25.0616,100
25.0988,92
25.1360,110
25.1731,75
25.2103,121
25.2474,101
25.2846,98
25.3217,91
25.3589,103
25.3960,106
25.4332,91
25.4703,77
25.5075,85
25.5446,86
25.5818,112
25.6189,87
25.6561,99
25.6932,106
25.7304,100
25.7675,90
25.8047,99
25.8418,107
25.8790,97
25.9161,101
25.9533,75
25.9904,84
26.0276,100
26.0647,92
26.1019,98
26.1390,92
26.1762,102
26.2133,95
26.2505,91
26.2876,103
26.3248,88
26.3619,103
26.3991,94
26.4362,97
26.4734,89
26.5105,75
26.5477,86
26.5848,100
26.6220,91
26.6591,92
26.6963,95
26.7335,87
26.7706,118
26.8078,97
26.8449,93
26.8821,89
26.9192,95
26.9564,102
26.9935,97
27.0307,85
27.0678,89
27.1050,116
27.1421,104
27.1793,121
27.2164,130
27.2536,99
27.2907,104
27.3279,84
27.3650,83
27.4022,90
27.4393,88
27.4765,81
27.5136,93
27.5508,93
27.5879,80
27.6251,96
27.6622,81
27.6994,87
27.7365,79
27.7737,94
27.8108,81
27.8480,94
27.8851,75
27.9223,105
27.9594,82
27.9966,85
28.0337,81
28.0709,96
28.1080,75
28.1452,86
28.1823,82
28.2195,75
28.2567,85
28.2938,81
28.3310,91
28.3681,82
28.4053,88
28.4424,79
28.4796,84
28.5167,87
28.5539,76
28.5910,99
28.6282,72
28.6653,85
28.7025,80
28.7396,73
28.7768,99
28.8139,85
28.8511,80
28.8882,77
28.9254,85
28.9625,80
28.9997,85
29.0368,87
29.0740,81
29.1111,92
29.1483,62
29.1854,66
29.2226,84
29.2597,94
29.2969,87
29.3340,62
29.3712,78
29.4083,66
29.4455,79
29.4826,73
29.5198,86
29.5569,66
29.5941,84
29.6312,64
29.6684,75
29.7055,82
29.7427,84
29.7799,80
29.8170,85
29.8542,82
29.8913,83
29.9285,79
29.9656,79
30.0028,59
30.0399,80
30.0771,83
30.1142,82
30.1514,73
30.1885,76
30.2257,90
30.2628,81
30.3000,77
30.3371,84
30.3743,169
30.4114,160
30.4486,122
30.4857,111
30.5229,78
30.5600,73
30.5972,90
30.6343,85
30.6715,70
30.7086,74
30.7458,63
30.7829,80
30.8201,86
30.8572,56
30.8944,71
30.9315,66
30.9687,68
31.0058,78
31.0430,78
31.0801,62
31.1173,59
31.1544,80
31.1916,86
31.2287,60
31.2659,72
31.3030,69
31.3402,78
31.3774,75
31.4145,69
31.4517,71
31.4888,81
31.5260,76
31.5631,84
31.6003,77
31.6374,63
31.6746,71
31.7117,72
31.7489,76
31.7860,66
31.8232,60
31.8603,76
31.8975,69
31.9346,55
31.9718,67
32.0089,68
32.0461,77
32.0832,75
32.1204,62
32.1575,70
32.1947,70
32.2318,64
32.2690,78
32.3061,53
32.3433,72
32.3804,62
32.4176,60
32.4547,70
32.4919,87
32.5290,74
32.5662,82
32.6033,72
32.6405,74
32.6776,64
32.7148,64
32.7519,61
32.7891,72
32.8262,63
32.8634,66
32.9006,69
32.9377,62
32.9749,83
33.0120,67
33.0492,60
33.0863,54
33.1235,54
33.1606,62
33.1978,68
33.2349,47
33.2721,56
33.3092,73
33.3464,60
33.3835,57
33.4207,61
33.4578,57
33.4950,74
33.5321,69
33.5693,58
33.6064,54
33.6436,51
33.6807,62
33.7179,68
33.7550,60
33.7922,57
33.8293,66
33.8665,61
33.9036,61
33.9408,60
33.9779,68
34.0151,51
34.0522,69
34.0894,54
34.1265,64
34.1637,53
34.2008,50
34.2380,60
34.2751,52
34.3123,55
34.3494,55
34.3866,56
34.4238,63
34.4609,46
34.4981,56
34.5352,61
34.5724,63
34.6095,70
34.6467,62
34.6838,78
34.7210,65
34.7581,85
34.7953,73
34.8324,85
34.8696,71
34.9067,63
34.9439,71
34.9810,53
35.0182,54
35.0553,58
35.0925,63
35.1296,48
35.1668,64
35.2039,54
35.2411,53
35.2782,47
35.3154,57
35.3525,45
35.3897,49
35.4268,62
35.4640,47
35.5011,57
35.5383,47
35.5754,54
35.6126,41
35.6497,45
35.6869,54
35.7240,41
35.7612,53
35.7983,39
35.8355,46
35.8726,39
35.9098,65
35.9469,67
35.9841,49
36.0213,43
36.0584,43
36.0956,46
36.1327,44
36.1699,47
36.2070,43
36.2442,43
36.2813,51
36.3185,43
36.3556,46
36.3928,51
36.4299,61
36.4671,43
36.5042,50
36.5414,43
36.5785,49
36.6157,43
36.6528,45
36.6900,54
36.7271,43
36.7643,48
36.8014,54
36.8386,55
36.8757,38
36.9129,40
36.9500,48
36.9872,36
37.0243,48
37.0615,47
37.0986,33
37.1358,58
37.1729,50
37.2101,51
37.2472,49
37.2844,35
37.3215,49
37.3587,53
37.3958,60
37.4330,77
37.4701,76
37.5073,49
37.5445,63
37.5816,56
37.6188,44
37.6559,33
37.6931,53
37.7302,34
37.7674,48
37.8045,55
37.8417,34
37.8788,34
37.9160,45
37.9531,44
37.9903,32
38.0274,32
38.0646,38
38.1017,44
38.1389,39
38.1760,33
38.2132,34
38.2503,46
38.2875,44
38.3246,42
38.3618,49
38.3989,47
38.4361,39
38.4732,42
38.5104,35
38.5475,47
38.5847,47
38.6218,35
38.6590,29
38.6961,44
38.7333,38
38.7704,35
38.8076,48
38.8447,49
38.8819,43
38.9190,39
38.9562,38
38.9933,36
39.0305,45
39.0677,42
39.1048,39
39.1420,36
39.1791,26
39.2163,48
39.2534,44
39.2906,40
39.3277,38
39.3649,44
39.4020,40
39.4392,56
39.4763,45
39.5135,44
39.5506,44
39.5878,36
39.6249,39
39.6621,40
39.6992,46
39.7364,46
39.7735,44
39.8107,38
39.8478,33
39.8850,41
39.9221,33
39.9593,36
39.9964,37
40.0336,43
40.0707,46
40.1079,36
40.1450,37
40.1822,36
40.2193,36
40.2565,45
40.2936,34
40.3308,37
40.3679,42
40.4051,42
40.4422,32
40.4794,32
40.5165,46
40.5537,44
40.5908,34
40.6280,44
40.6652,32
40.7023,35
40.7395,38
40.7766,31
40.8138,42
40.8509,47
40.8881,25
40.9252,45
40.9624,36
40.9995,48
41.0367,43
41.0738,43
41.1110,35
41.1481,44
41.1853,42
41.2224,48
41.2596,37
41.2967,36
41.3339,39
41.3710,39
41.4082,36
41.4453,44
41.4825,43
41.5196,34
41.5568,41
41.5939,34
41.6311,40
41.6682,38
41.7054,35
41.7425,29
41.7797,36
41.8168,30
41.8540,37
41.8911,41
41.9283,43
41.9654,41
42.0026,46
42.0397,47
42.0769,47
42.1140,43
42.1512,44
42.1884,29
42.2255,37
42.2627,32
42.2998,42
42.3370,41
42.3741,35
42.4113,38
42.4484,35
42.4856,41
42.5227,31
42.5599,30
42.5970,35
42.6342,38
42.6713,34
42.7085,27
42.7456,36
42.7828,30
42.8199,29
42.8571,28
42.8942,33
42.9314,28
42.9685,28
43.0057,28
43.0428,42
43.0800,34
43.1171,46
43.1543,38
43.1914,56
43.2286,44
43.2657,41
43.3029,51
43.3400,41
43.3772,50
43.4143,37
43.4515,42
43.4886,67
43.5258,62
43.5629,36
43.6001,66
43.6372,63
43.6744,38
43.7116,39
43.7487,47
43.7859,38
43.8230,51
43.8602,44
43.8973,35
43.9345,38
43.9716,36
44.0088,30
44.0459,40
44.0831,46
44.1202,33
44.1574,28
44.1945,29
44.2317,26
44.2688,34
44.3060,42
44.3431,43
44.3803,50
44.4174,36
44.4546,42
44.4917,42
44.5289,36
44.5660,38
44.6032,45
44.6403,44
44.6775,40
44.7146,34
44.7518,45
44.7889,30
44.8261,47
44.8632,33
44.9004,39
44.9375,40
44.9747,34
45.0118,29
45.0490,33
45.0861,28
45.1233,40
45.1604,36
45.1976,35
45.2347,30
45.2719,33
45.3091,31
45.3462,34
45.3834,34
45.4205,27
45.4577,33
45.4948,19
45.5320,23
45.5691,34
45.6063,37
45.6434,32
45.6806,26
45.7177,28
45.7549,41
45.7920,30
45.8292,26
45.8663,31
45.9035,37
45.9406,36
45.9778,32
46.0149,37
46.0521,39
46.0892,26
46.1264,29
46.1635,27
46.2007,32
46.2378,36
46.2750,30
46.3121,26
46.3493,33
46.3864,35
46.4236,29
46.4607,37
46.4979,31
46.5350,33
46.5722,30
46.6093,32
46.6465,26
46.6836,29
46.7208,43
46.7579,31
46.7951,30
46.8323,30
46.8694,31
46.9066,21
46.9437,29
46.9809,34
47.0180,34
47.0552,41
47.0923,45
47.1295,34
47.1666,40
47.2038,35
47.2409,36
47.2781,32
47.3152,34
47.3524,34
47.3895,30
47.4267,27
47.4638,31
47.5010,36
47.5381,36
47.5753,32
47.6124,33
47.6496,33
47.6867,20
47.7239,28
47.7610,32
47.7982,34
47.8353,27
47.8725,30
47.9096,26
47.9468,39
47.9839,32
48.0211,33
48.0582,48
48.0954,28
48.1325,31
48.1697,34
48.2068,48
48.2440,32
48.2811,25
48.3183,30
48.3555,26
48.3926,32
48.4298,39
48.4669,33
48.5041,31
48.5412,33
48.5784,28
48.6155,27
48.6527,28
48.6898,37
48.7270,24
48.7641,36
48.8013,34
48.8384,31
48.8756,32
48.9127,44
48.9499,63
48.9870,49
49.0242,34
49.0613,40
49.0985,42
49.1356,43
49.1728,36
49.2099,33
49.2471,42
49.2842,30
49.3214,34
49.3585,30
49.3957,26
49.4328,30
49.4700,49
49.5071,20
49.5443,27
49.5814,34
49.6186,37
49.6557,39
49.6929,30
49.7300,28
49.7672,33
49.8043,33
49.8415,38
49.8786,22
49.9158,27
49.9530,32
49.9901,24
50.0273,30
50.0644,31
50.1016,27
50.1387,33
50.1759,30
50.2130,39
50.2502,39
50.2873,29
50.3245,31
50.3616,29
50.3988,39
50.4359,23
50.4731,22
50.5102,31
50.5474,23
50.5845,26
50.6217,29
50.6588,27
50.6960,30
50.7331,29
50.7703,33
50.8074,40
50.8446,22
50.8817,23
50.9189,29
50.9560,30
50.9932,25
51.0303,32
51.0675,26
51.1046,41
51.1418,31
51.1789,28
51.2161,21
51.2532,29
51.2904,25
51.3275,28
51.3647,34
51.4018,35
51.4390,46
51.4762,36
51.5133,33
51.5505,39
51.5876,30
51.6248,26
51.6619,32
51.6991,24
51.7362,26
51.7734,33
51.8105,42
51.8477,28
51.8848,36
51.9220,45
51.9591,30
51.9963,32
52.0334,21
52.0706,34
52.1077,33
52.1449,36
52.1820,19
52.2192,28
52.2563,26
52.2935,28
52.3306,27
52.3678,32
52.4049,31
52.4421,20
52.4792,31
52.5164,33
52.5535,34
52.5907,27
52.6278,37
52.6650,36
52.7021,28
52.7393,19
52.7764,25
52.8136,35
52.8507,41
52.8879,23
52.9250,34
52.9622,25
52.9994,35
53.0365,29
53.0737,32
53.1108,27
53.1480,31
53.1851,34
53.2223,18
53.2594,32
53.2966,29
53.3337,23
53.3709,24
53.4080,37
53.4452,33
53.4823,27
53.5195,32
53.5566,31
53.5938,38
53.6309,19
53.6681,33
53.7052,31
53.7424,29
53.7795,31
53.8167,35
53.8538,22
53.8910,38
53.9281,30
53.9653,41
54.0024,31
54.0396,40
54.0767,34
54.1139,27
54.1510,40
54.1882,31
54.2253,27
54.2625,30
54.2996,33
54.3368,27
54.3739,28
54.4111,25
54.4482,22
54.4854,29
54.5225,27
54.5597,33
54.5969,39
54.6340,19
54.6712,27
54.7083,33
54.7455,17
54.7826,31
54.8198,34
54.8569,27
54.8941,24
54.9312,19
54.9684,35
55.0055,27
55.0427,22
55.0798,22
55.1170,25
55.1541,16
55.1913,22
55.2284,30
55.2656,19
55.3027,23
55.3399,36
55.3770,32
55.4142,33
55.4513,36
55.4885,26
55.5256,35
55.5628,28
55.5999,22
55.6371,20
55.6742,28
55.7114,31
55.7485,22
55.7857,30
55.8228,28
55.8600,19
55.8971,30
55.9343,33
55.9714,41
56.0086,35
56.0457,29
56.0829,34
56.1201,31
56.1572,36
56.1944,27
56.2315,34
56.2687,28
56.3058,24
56.3430,39
56.3801,39
56.4173,27
56.4544,23
56.4916,26
56.5287,29
56.5659,31
56.6030,30
56.6402,30
56.6773,28
56.7145,28
56.7516,25
56.7888,35
56.8259,24
56.8631,30
56.9002,29
56.9374,21
56.9745,33
57.0117,21
57.0488,35
57.0860,27
57.1231,26
57.1603,19
57.1974,26
57.2346,19
57.2717,27
57.3089,35
57.3460,30
57.3832,30
57.4203,25
57.4575,24
57.4946,37
57.5318,35
57.5689,34
57.6061,19
57.6433,26
57.6804,20
57.7176,32
57.7547,29
57.7919,42
57.8290,29
57.8662,39
57.9033,30
57.9405,33
57.9776,28
58.0148,25
58.0519,24
58.0891,27
58.1262,30
58.1634,24
58.2005,24
58.2377,29
58.2748,29
58.3120,24
58.3491,30
58.3863,32
58.4234,30
58.4606,28
58.4977,25
58.5349,30
58.5720,23
58.6092,34
58.6463,23
58.6835,22
58.7206,34
58.7578,33
58.7949,31
58.8321,23
58.8692,26
58.9064,27
58.9435,33
58.9807,23
59.0178,21
59.0550,20
59.0921,30
59.1293,27
59.1664,29
59.2036,38
59.2408,26
59.2779,28
59.3151,28
59.3522,25
59.3894,25
59.4265,32
59.4637,29
59.5008,17
59.5380,23
59.5751,30
59.6123,28
59.6494,24
59.6866,29
59.7237,23
59.7609,27
59.7980,24
59.8352,34
59.8723,33
59.9095,24
59.9466,28
59.9838,21
60.0024,29