File: notebooks/data/xrd_data/ML_20220721_31_SJD_4_LaB6-4min.uxd
; (content of file Y:\Sam\Apurva-07-20-2022\puck1\ML_20220721_31_SJD_0_LaB6-4min.raw)
_FILEVERSION = 3
_SAMPLE = ML_20220721_31_SJD_0_LaB6-4min
_+SAMPLE =
_SITE = USA
_USER = Administrator
_GONIOMETER_CODE = 20
; Goniometer : D8 theta/2theta, stage : Unknown
_ATTACHMENTS_CODE = 0
_GONIOMETER_RADIUS = 200.5
_FIXED_DIVSLIT = 0.6
_FIXED_SAMPLESLIT = 0
_SOLLER_SLITS = 2
_FIXED_DETSLIT = 9.55
_MONOCHROMATOR = 0
; Incident beam monochromator : None
_SOLLER_SLITS_2 = N
_THIN_FILM = N
_BETA_FILTER = Y
_FIXED_ANTISLIT = 5.89
_ANALYZER_CODE = 0
; Received beam analyzer : None
_DATEMEASURED = "25-Jul-2022 16:11:29"
_WL_UNIT = A
_WL1 = 1.5406
_WL2 = 1.54439
_WL3 = 1.39222
_WLRATIO = 0.5
_ANODE = Cu
_V4_INF_CREATOR = XRDWizard
_V4_INF_CREATOR_VERSION = V2.9.0.22
_V4_INF_WIZARD_VERSION = V2.9.0.22
_V4_INF_WIZARD_ADDINS = V2.9.0.22
_V4_INF_WIZARD_DOCTYPE = XRD
_V4_INF_OSUSER = McQueenLab
_V4_INF_USER = Administrator
_V4_INF_SITE = USA
_V4_INF_SAMPLEID = ML_20220721_31_SJD_0_LaB6-4min

; Data for range 1
_DRIVE = COUPLED
_STEPTIME = 11.28
_STEPSIZE = 0.0185756
_STEPMODE = C
_START = 5
_THETA = 2.5
_2THETA = 5
_KHI = 0
_PHI = 0
_X = 0
_Y = 0
_Z = 0
_DETECTOR = 5
; Detector type : Unknown
_DETECTORSLIT = unkn
_AUX1 = 0
_AUX2 = 0
_AUX3 = 0
_TIMESTARTED = 15
_TEMP_RATE = -1
_TEMP_DELAY = -1
_KV = 40
_MA = 40
_RANGE_WL = 1.5406
_3DPLANE = 0
_V4_ADDITIONALDETECTOR = 257
_V4_PSD2THETA = 3.365
_V4_PSDCHANNEL1 = 0
_V4_PSDAPERTURE = 12.68
_V4_PSDTYPE = 5
_V4_PSDFIXED = 0
_V4_COUNTERS_MASK = 4096
_V4_DRIVES_MASK = 0
_V4_ENCODERS_MASK = 0
_2THETACOUNTS = 1
; 2THETA  PSD
   5.0000        275
   5.0372        265
   5.0743        253
   5.1115        244
   5.1486        239
   5.1858        272
   5.2229        259
   5.2601        257
   5.2972        271
   5.3344        256
   5.3715        209
   5.4087        235
   5.4458        232
   5.4830        238
   5.5201        211
   5.5573        204
   5.5944        235
   5.6316        199
   5.6687        228
   5.7059        228
   5.7430        223
   5.7802        209
   5.8173        216
   5.8545        210
   5.8916        222
   5.9288        187
   5.9659        211
   6.0031        202
   6.0402        191
   6.0774        213
   6.1145        194
   6.1517        204
   6.1888        183
   6.2260        202
   6.2631        204
   6.3003        182
   6.3374        153
   6.3746        157
   6.4117        186
   6.4489        170
   6.4860        215
   6.5232        197
   6.5604        178
   6.5975        146
   6.6347        167
   6.6718        163
   6.7090        162
   6.7461        152
   6.7833        171
   6.8204        150
   6.8576        177
   6.8947        167
   6.9319        132
   6.9690        156
   7.0062        142
   7.0433        155
   7.0805        171
   7.1176        166
   7.1548        179
   7.1919        176
   7.2291        149
   7.2662        182
   7.3034        162
   7.3405        156
   7.3777        192
   7.4148        160
   7.4520        160
   7.4891        153
   7.5263        145
   7.5634        174
   7.6006        152
   7.6377        185
   7.6749        162
   7.7120        165
   7.7492        172
   7.7863        180
   7.8235        179
   7.8606        173
   7.8978        192
   7.9349        163
   7.9721        199
   8.0092        176
   8.0464        199
   8.0835        166
   8.1207        189
   8.1579        196
   8.1950        210
   8.2322        192
   8.2693        236
   8.3065        204
   8.3436        195
   8.3808        214
   8.4179        173
   8.4551        229
   8.4922        215
   8.5294        190
   8.5665        221
   8.6037        200
   8.6408        192
   8.6780        217
   8.7151        191
   8.7523        190
   8.7894        226
   8.8266        205
   8.8637        258
   8.9009        236
   8.9380        227
   8.9752        229
   9.0123        190
   9.0495        208
   9.0866        213
   9.1238        248
   9.1609        222
   9.1981        215
   9.2352        227
   9.2724        211
   9.3095        191
   9.3467        222
   9.3838        263
   9.4210        222
   9.4581        227
   9.4953        221
   9.5324        231
   9.5696        254
   9.6067        227
   9.6439        205
   9.6811        214
   9.7182        244
   9.7554        221
   9.7925        225
   9.8297        246
   9.8668        220
   9.9040        216
   9.9411        228
   9.9783        251
  10.0154        226
  10.0526        237
  10.0897        254
  10.1269        242
  10.1640        241
  10.2012        253
  10.2383        257
  10.2755        268
  10.3126        231
  10.3498        217
  10.3869        208
  10.4241        244
  10.4612        233
  10.4984        250
  10.5355        245
  10.5727        241
  10.6098        240
  10.6470        262
  10.6841        253
  10.7213        253
  10.7584        239
  10.7956        236
  10.8327        278
  10.8699        254
  10.9070        230
  10.9442        189
  10.9813        228
  11.0185        262
  11.0556        219
  11.0928        214
  11.1299        260
  11.1671        217
  11.2043        265
  11.2414        230
  11.2786        238
  11.3157        243
  11.3529        203
  11.3900        241
  11.4272        237
  11.4643        218
  11.5015        246
  11.5386        232
  11.5758        258
  11.6129        216
  11.6501        221
  11.6872        229
  11.7244        218
  11.7615        245
  11.7987        226
  11.8358        222
  11.8730        235
  11.9101        211
  11.9473        193
  11.9844        202
  12.0216        252
  12.0587        233
  12.0959        211
  12.1330        256
  12.1702        234
  12.2073        217
  12.2445        207
  12.2816        252
  12.3188        236
  12.3559        205
  12.3931        215
  12.4302        199
  12.4674        225
  12.5045        225
  12.5417        200
  12.5788        230
  12.6160        227
  12.6531        212
  12.6903        203
  12.7274        214
  12.7646        208
  12.8018        229
  12.8389        203
  12.8761        222
  12.9132        228
  12.9504        220
  12.9875        225
  13.0247        216
  13.0618        204
  13.0990        192
  13.1361        202
  13.1733        201
  13.2104        201
  13.2476        207
  13.2847        209
  13.3219        188
  13.3590        227
  13.3962        202
  13.4333        203
  13.4705        202
  13.5076        205
  13.5448        200
  13.5819        202
  13.6191        168
  13.6562        203
  13.6934        171
  13.7305        207
  13.7677        190
  13.8048        210
  13.8420        168
  13.8791        196
  13.9163        183
  13.9534        186
  13.9906        188
  14.0277        200
  14.0649        189
  14.1020        176
  14.1392        176
  14.1763        164
  14.2135        179
  14.2506        164
  14.2878        183
  14.3250        195
  14.3621        187
  14.3993        165
  14.4364        181
  14.4736        186
  14.5107        188
  14.5479        170
  14.5850        177
  14.6222        175
  14.6593        173
  14.6965        173
  14.7336        153
  14.7708        158
  14.8079        167
  14.8451        148
  14.8822        178
  14.9194        187
  14.9565        160
  14.9937        181
  15.0308        142
  15.0680        153
  15.1051        163
  15.1423        183
  15.1794        169
  15.2166        162
  15.2537        177
  15.2909        189
  15.3280        165
  15.3652        182
  15.4023        156
  15.4395        158
  15.4766        161
  15.5138        151
  15.5509        162
  15.5881        166
  15.6252        155
  15.6624        169
  15.6995        184
  15.7367        163
  15.7738        164
  15.8110        155
  15.8482        150
  15.8853        157
  15.9225        189
  15.9596        155
  15.9968        190
  16.0339        170
  16.0711        183
  16.1082        174
  16.1454        153
  16.1825        160
  16.2197        170
  16.2568        166
  16.2940        143
  16.3311        161
  16.3683        165
  16.4054        155
  16.4426        176
  16.4797        151
  16.5169        148
  16.5540        156
  16.5912        143
  16.6283        155
  16.6655        179
  16.7026        170
  16.7398        151
  16.7769        153
  16.8141        174
  16.8512        141
  16.8884        160
  16.9255        165
  16.9627        177
  16.9998        170
  17.0370        153
  17.0741        178
  17.1113        188
  17.1484        159
  17.1856        173
  17.2227        160
  17.2599        173
  17.2970        184
  17.3342        180
  17.3713        172
  17.4085        152
  17.4457        165
  17.4828        161
  17.5200        182
  17.5571        160
  17.5943        158
  17.6314        155
  17.6686        159
  17.7057        197
  17.7429        173
  17.7800        158
  17.8172        173
  17.8543        172
  17.8915        167
  17.9286        178
  17.9658        178
  18.0029        143
  18.0401        171
  18.0772        158
  18.1144        142
  18.1515        175
  18.1887        159
  18.2258        182
  18.2630        157
  18.3001        181
  18.3373        169
  18.3744        172
  18.4116        160
  18.4487        158
  18.4859        161
  18.5230        178
  18.5602        161
  18.5973        176
  18.6345        173
  18.6716        159
  18.7088        173
  18.7459        184
  18.7831        172
  18.8202        179
  18.8574        175
  18.8945        138
  18.9317        168
  18.9689        164
  19.0060        156
  19.0432        151
  19.0803        172
  19.1175        160
  19.1546        167
  19.1918        189
  19.2289        174
  19.2661        160
  19.3032        159
  19.3404        149
  19.3775        181
  19.4147        159
  19.4518        176
  19.4890        196
  19.5261        178
  19.5633        191
  19.6004        154
  19.6376        179
  19.6747        161
  19.7119        199
  19.7490        170
  19.7862        173
  19.8233        187
  19.8605        157
  19.8976        179
  19.9348        160
  19.9719        182
  20.0091        177
  20.0462        204
  20.0834        187
  20.1205        188
  20.1577        168
  20.1948        175
  20.2320        163
  20.2691        204
  20.3063        192
  20.3434        177
  20.3806        189
  20.4177        181
  20.4549        190
  20.4921        177
  20.5292        182
  20.5664        165
  20.6035        158
  20.6407        186
  20.6778        191
  20.7150        208
  20.7521        193
  20.7893        191
  20.8264        207
  20.8636        179
  20.9007        199
  20.9379        210
  20.9750        219
  21.0122        209
  21.0493        207
  21.0865        210
  21.1236        205
  21.1608        246
  21.1979        307
  21.2351        334
  21.2722        310
  21.3094        318
  21.3465        543
  21.3837        443
  21.4208        323
  21.4580        220
  21.4951        208
  21.5323        244
  21.5694        212
  21.6066        202
  21.6437        196
  21.6809        213
  21.7180        204
  21.7552        180
  21.7923        209
  21.8295        191
  21.8666        201
  21.9038        172
  21.9409        180
  21.9781        201
  22.0152        196
  22.0524        165
  22.0896        199
  22.1267        189
  22.1639        200
  22.2010        183
  22.2382        196
  22.2753        217
  22.3125        182
  22.3496        191
  22.3868        197
  22.4239        190
  22.4611        183
  22.4982        209
  22.5354        204
  22.5725        182
  22.6097        175
  22.6468        206
  22.6840        179
  22.7211        196
  22.7583        207
  22.7954        200
  22.8326        202
  22.8697        199
  22.9069        191
  22.9440        174
  22.9812        208
  23.0183        200
  23.0555        210
  23.0926        211
  23.1298        176
  23.1669        212
  23.2041        218
  23.2412        229
  23.2784        223
  23.3155        204
  23.3527        206
  23.3898        204
  23.4270        206
  23.4641        206
  23.5013        207
  23.5384        217
  23.5756        202
  23.6128        205
  23.6499        209
  23.6871        197
  23.7242        221
  23.7614        197
  23.7985        200
  23.8357        199
  23.8728        199
  23.9100        215
  23.9471        211
  23.9843        204
  24.0214        212
  24.0586        204
  24.0957        204
  24.1329        233
  24.1700        202
  24.2072        221
  24.2443        250
  24.2815        259
  24.3186        217
  24.3558        211
  24.3929        211
  24.4301        227
  24.4672        209
  24.5044        199
  24.5415        186
  24.5787        211
  24.6158        194
  24.6530        203
  24.6901        201
  24.7273        202
  24.7644        215
  24.8016        213
  24.8387        181
  24.8759        214
  24.9130        205
  24.9502        207
  24.9873        215
  25.0245        185
  25.0616        185
  25.0988        184
  25.1360        201
  25.1731        174
  25.2103        193
  25.2474        209
  25.2846        232
  25.3217        209
  25.3589        204
  25.3960        204
  25.4332        197
  25.4703        207
  25.5075        188
  25.5446        170
  25.5818        205
  25.6189        189
  25.6561        168
  25.6932        195
  25.7304        205
  25.7675        195
  25.8047        215
  25.8418        182
  25.8790        218
  25.9161        220
  25.9533        175
  25.9904        188
  26.0276        183
  26.0647        198
  26.1019        176
  26.1390        183
  26.1762        172
  26.2133        153
  26.2505        201
  26.2876        181
  26.3248        194
  26.3619        189
  26.3991        194
  26.4362        199
  26.4734        179
  26.5105        183
  26.5477        209
  26.5848        207
  26.6220        213
  26.6591        206
  26.6963        193
  26.7335        184
  26.7706        200
  26.8078        214
  26.8449        211
  26.8821        177
  26.9192        177
  26.9564        192
  26.9935        188
  27.0307        195
  27.0678        182
  27.1050        183
  27.1421        198
  27.1793        200
  27.2164        231
  27.2536        239
  27.2907        195
  27.3279        175
  27.3650        198
  27.4022        179
  27.4393        204
  27.4765        181
  27.5136        189
  27.5508        183
  27.5879        197
  27.6251        156
  27.6622        161
  27.6994        192
  27.7365        176
  27.7737        178
  27.8108        187
  27.8480        157
  27.8851        192
  27.9223        170
  27.9594        184
  27.9966        193
  28.0337        195
  28.0709        175
  28.1080        179
  28.1452        162
  28.1823        182
  28.2195        175
  28.2567        173
  28.2938        168
  28.3310        177
  28.3681        158
  28.4053        165
  28.4424        204
  28.4796        162
  28.5167        170
  28.5539        181
  28.5910        163
  28.6282        164
  28.6653        152
  28.7025        196
  28.7396        199
  28.7768        177
  28.8139        175
  28.8511        177
  28.8882        178
  28.9254        170
  28.9625        170
  28.9997        151
  29.0368        153
  29.0740        162
  29.1111        153
  29.1483        155
  29.1854        169
  29.2226        160
  29.2597        132
  29.2969        160
  29.3340        156
  29.3712        169
  29.4083        166
  29.4455        164
  29.4826        182
  29.5198        149
  29.5569        178
  29.5941        171
  29.6312        167
  29.6684        160
  29.7055        149
  29.7427        176
  29.7799        141
  29.8170        177
  29.8542        150
  29.8913        151
  29.9285        156
  29.9656        173
  30.0028        138
  30.0399        135
  30.0771        160
  30.1142        181
  30.1514        151
  30.1885        131
  30.2257        161
  30.2628        175
  30.3000        176
  30.3371        229
  30.3743        290
  30.4114        268
  30.4486        242
  30.4857        229
  30.5229        160
  30.5600        159
  30.5972        129
  30.6343        164
  30.6715        147
  30.7086        144
  30.7458        159
  30.7829        169
  30.8201        141
  30.8572        164
  30.8944        143
  30.9315        139
  30.9687        143
  31.0058        155
  31.0430        175
  31.0801        135
  31.1173        147
  31.1544        150
  31.1916        140
  31.2287        127
  31.2659        138
  31.3030        144
  31.3402        141
  31.3774        146
  31.4145        149
  31.4517        138
  31.4888        146
  31.5260        109
  31.5631        144
  31.6003        130
  31.6374        132
  31.6746        158
  31.7117        138
  31.7489        125
  31.7860        129
  31.8232        146
  31.8603        134
  31.8975        127
  31.9346        150
  31.9718        141
  32.0089        136
  32.0461        119
  32.0832        149
  32.1204        116
  32.1575        151
  32.1947        145
  32.2318        124
  32.2690        155
  32.3061        146
  32.3433        117
  32.3804        142
  32.4176        126
  32.4547        123
  32.4919        148
  32.5290        148
  32.5662        149
  32.6033        136
  32.6405        128
  32.6776        122
  32.7148        132
  32.7519        115
  32.7891        128
  32.8262        137
  32.8634        113
  32.9006        145
  32.9377        113
  32.9749        135
  33.0120        107
  33.0492        123
  33.0863        109
  33.1235        125
  33.1606        133
  33.1978        132
  33.2349        123
  33.2721        115
  33.3092        113
  33.3464        106
  33.3835        140
  33.4207        135
  33.4578        115
  33.4950        102
  33.5321        118
  33.5693        115
  33.6064        108
  33.6436        109
  33.6807        120
  33.7179        137
  33.7550        117
  33.7922        145
  33.8293        112
  33.8665        121
  33.9036        109
  33.9408        106
  33.9779        112
  34.0151        114
  34.0522        117
  34.0894        119
  34.1265        106
  34.1637        117
  34.2008        123
  34.2380        123
  34.2751        127
  34.3123        115
  34.3494        111
  34.3866        100
  34.4238        118
  34.4609        123
  34.4981        124
  34.5352        129
  34.5724        129
  34.6095        142
  34.6467        131
  34.6838        127
  34.7210        146
  34.7581        172
  34.7953        148
  34.8324        134
  34.8696        135
  34.9067        130
  34.9439        116
  34.9810        120
  35.0182        116
  35.0553        112
  35.0925        116
  35.1296        109
  35.1668        122
  35.2039        109
  35.2411         95
  35.2782        100
  35.3154        104
  35.3525        115
  35.3897         92
  35.4268        110
  35.4640        117
  35.5011        100
  35.5383        116
  35.5754        107
  35.6126        106
  35.6497        106
  35.6869        106
  35.7240         88
  35.7612         79
  35.7983        117
  35.8355        101
  35.8726        106
  35.9098        103
  35.9469         93
  35.9841        110
  36.0213        134
  36.0584        102
  36.0956        104
  36.1327        110
  36.1699         87
  36.2070        104
  36.2442        103
  36.2813        103
  36.3185        104
  36.3556        118
  36.3928        103
  36.4299         81
  36.4671        102
  36.5042         99
  36.5414         83
  36.5785         90
  36.6157        104
  36.6528        102
  36.6900        104
  36.7271        111
  36.7643         87
  36.8014         94
  36.8386         91
  36.8757         85
  36.9129         92
  36.9500         86
  36.9872        104
  37.0243         93
  37.0615         88
  37.0986        103
  37.1358         74
  37.1729         82
  37.2101         98
  37.2472         79
  37.2844         83
  37.3215        111
  37.3587        122
  37.3958        122
  37.4330        141
  37.4701        120
  37.5073        110
  37.5445        111
  37.5816         94
  37.6188         76
  37.6559        101
  37.6931         73
  37.7302        103
  37.7674        101
  37.8045         69
  37.8417         95
  37.8788         78
  37.9160         83
  37.9531         88
  37.9903         71
  38.0274         84
  38.0646         83
  38.1017         81
  38.1389         80
  38.1760         80
  38.2132         89
  38.2503         80
  38.2875         84
  38.3246         91
  38.3618         94
  38.3989         92
  38.4361         86
  38.4732         79
  38.5104         89
  38.5475         85
  38.5847         87
  38.6218         78
  38.6590         86
  38.6961         86
  38.7333         90
  38.7704         82
  38.8076         91
  38.8447         86
  38.8819         76
  38.9190        105
  38.9562         87
  38.9933         76
  39.0305         78
  39.0677         96
  39.1048         93
  39.1420         90
  39.1791        101
  39.2163         80
  39.2534         70
  39.2906         88
  39.3277         92
  39.3649         85
  39.4020         61
  39.4392         88
  39.4763         89
  39.5135         91
  39.5506         94
  39.5878         72
  39.6249         70
  39.6621         74
  39.6992         77
  39.7364         82
  39.7735         88
  39.8107         78
  39.8478         88
  39.8850         73
  39.9221         88
  39.9593         86
  39.9964         80
  40.0336         82
  40.0707         84
  40.1079         76
  40.1450         84
  40.1822         71
  40.2193         77
  40.2565         96
  40.2936         86
  40.3308         65
  40.3679         76
  40.4051         88
  40.4422         79
  40.4794         76
  40.5165         86
  40.5537         80
  40.5908         67
  40.6280         90
  40.6652         85
  40.7023         69
  40.7395         67
  40.7766         76
  40.8138         69
  40.8509         89
  40.8881         76
  40.9252        102
  40.9624         86
  40.9995         79
  41.0367         86
  41.0738         77
  41.1110         83
  41.1481         77
  41.1853         69
  41.2224         80
  41.2596         77
  41.2967         71
  41.3339         76
  41.3710         77
  41.4082         79
  41.4453         78
  41.4825         90
  41.5196         74
  41.5568         82
  41.5939         96
  41.6311         70
  41.6682         89
  41.7054         74
  41.7425         89
  41.7797         76
  41.8168         78
  41.8540         68
  41.8911         67
  41.9283         58
  41.9654         93
  42.0026         65
  42.0397         89
  42.0769         89
  42.1140         70
  42.1512         91
  42.1884         89
  42.2255         72
  42.2627         71
  42.2998         71
  42.3370         66
  42.3741         89
  42.4113         72
  42.4484         73
  42.4856         72
  42.5227         78
  42.5599         76
  42.5970         94
  42.6342         89
  42.6713         70
  42.7085         70
  42.7456         72
  42.7828         76
  42.8199         71
  42.8571         74
  42.8942         75
  42.9314         74
  42.9685         77
  43.0057         82
  43.0428         82
  43.0800         83
  43.1171         74
  43.1543         99
  43.1914         83
  43.2286         96
  43.2657         90
  43.3029         81
  43.3400         85
  43.3772         89
  43.4143         99
  43.4515         96
  43.4886        113
  43.5258        129
  43.5629         88
  43.6001        102
  43.6372        108
  43.6744         72
  43.7116         72
  43.7487         81
  43.7859         94
  43.8230         79
  43.8602         81
  43.8973         90
  43.9345         69
  43.9716         74
  44.0088         90
  44.0459         73
  44.0831         82
  44.1202         64
  44.1574         77
  44.1945         74
  44.2317         83
  44.2688         63
  44.3060         69
  44.3431         95
  44.3803         64
  44.4174         81
  44.4546         57
  44.4917         90
  44.5289         75
  44.5660         64
  44.6032         93
  44.6403         78
  44.6775         82
  44.7146         76
  44.7518         74
  44.7889         74
  44.8261         69
  44.8632         84
  44.9004         61
  44.9375         78
  44.9747         60
  45.0118         59
  45.0490         76
  45.0861         71
  45.1233         69
  45.1604         89
  45.1976         58
  45.2347         67
  45.2719         76
  45.3091         55
  45.3462         72
  45.3834         70
  45.4205         60
  45.4577         83
  45.4948         78
  45.5320         75
  45.5691         58
  45.6063         75
  45.6434         59
  45.6806         66
  45.7177         54
  45.7549         64
  45.7920         66
  45.8292         80
  45.8663         65
  45.9035         63
  45.9406         74
  45.9778         62
  46.0149         74
  46.0521         58
  46.0892         65
  46.1264         61
  46.1635         70
  46.2007         73
  46.2378         71
  46.2750         63
  46.3121         80
  46.3493         71
  46.3864         65
  46.4236         42
  46.4607         80
  46.4979         70
  46.5350         70
  46.5722         64
  46.6093         69
  46.6465         68
  46.6836         73
  46.7208         63
  46.7579         59
  46.7951         76
  46.8323         54
  46.8694         52
  46.9066         79
  46.9437         62
  46.9809         58
  47.0180         70
  47.0552         70
  47.0923         66
  47.1295         61
  47.1666         66
  47.2038         61
  47.2409         77
  47.2781         68
  47.3152         66
  47.3524         78
  47.3895         63
  47.4267         68
  47.4638         79
  47.5010         56
  47.5381         66
  47.5753         74
  47.6124         66
  47.6496         76
  47.6867         58
  47.7239         57
  47.7610         62
  47.7982         77
  47.8353         53
  47.8725         67
  47.9096         61
  47.9468         66
  47.9839         53
  48.0211         51
  48.0582         55
  48.0954         63
  48.1325         63
  48.1697         66
  48.2068         61
  48.2440         78
  48.2811         77
  48.3183         62
  48.3555         67
  48.3926         71
  48.4298         66
  48.4669         65
  48.5041         73
  48.5412         62
  48.5784         70
  48.6155         67
  48.6527         72
  48.6898         62
  48.7270         66
  48.7641         80
  48.8013         74
  48.8384         70
  48.8756         80
  48.9127         73
  48.9499        137
  48.9870        103
  49.0242         77
  49.0613         78
  49.0985        107
  49.1356         65
  49.1728         66
  49.2099         76
  49.2471         72
  49.2842         68
  49.3214         64
  49.3585         66
  49.3957         65
  49.4328         60
  49.4700         71
  49.5071         65
  49.5443         52
  49.5814         60
  49.6186         39
  49.6557         66
  49.6929         55
  49.7300         61
  49.7672         49
  49.8043         52
  49.8415         79
  49.8786         69
  49.9158         68
  49.9530         68
  49.9901         69
  50.0273         86
  50.0644         61
  50.1016         65
  50.1387         60
  50.1759         67
  50.2130         54
  50.2502         56
  50.2873         59
  50.3245         61
  50.3616         63
  50.3988         68
  50.4359         66
  50.4731         68
  50.5102         59
  50.5474         52
  50.5845         51
  50.6217         61
  50.6588         51
  50.6960         79
  50.7331         56
  50.7703         60
  50.8074         64
  50.8446         58
  50.8817         59
  50.9189         62
  50.9560         64
  50.9932         61
  51.0303         61
  51.0675         62
  51.1046         62
  51.1418         65
  51.1789         61
  51.2161         45
  51.2532         47
  51.2904         58
  51.3275         63
  51.3647         69
  51.4018         73
  51.4390         60
  51.4762         64
  51.5133         59
  51.5505         69
  51.5876         71
  51.6248         73
  51.6619         70
  51.6991         62
  51.7362         70
  51.7734         46
  51.8105         68
  51.8477         69
  51.8848         72
  51.9220         60
  51.9591         72
  51.9963         60
  52.0334         71
  52.0706         54
  52.1077         54
  52.1449         51
  52.1820         54
  52.2192         61
  52.2563         43
  52.2935         65
  52.3306         46
  52.3678         61
  52.4049         53
  52.4421         53
  52.4792         58
  52.5164         62
  52.5535         63
  52.5907         56
  52.6278         50
  52.6650         53
  52.7021         69
  52.7393         58
  52.7764         68
  52.8136         55
  52.8507         42
  52.8879         63
  52.9250         63
  52.9622         63
  52.9994         73
  53.0365         73
  53.0737         53
  53.1108         58
  53.1480         65
  53.1851         60
  53.2223         59
  53.2594         62
  53.2966         43
  53.3337         68
  53.3709         61
  53.4080         62
  53.4452         68
  53.4823         66
  53.5195         47
  53.5566         58
  53.5938         66
  53.6309         49
  53.6681         56
  53.7052         67
  53.7424         63
  53.7795         55
  53.8167         55
  53.8538         72
  53.8910         51
  53.9281         67
  53.9653         74
  54.0024         78
  54.0396         51
  54.0767         62
  54.1139         79
  54.1510         72
  54.1882         67
  54.2253         67
  54.2625         78
  54.2996         62
  54.3368         73
  54.3739         53
  54.4111         65
  54.4482         49
  54.4854         51
  54.5225         68
  54.5597         68
  54.5969         60
  54.6340         56
  54.6712         62
  54.7083         63
  54.7455         53
  54.7826         57
  54.8198         58
  54.8569         58
  54.8941         52
  54.9312         65
  54.9684         56
  55.0055         54
  55.0427         59
  55.0798         58
  55.1170         52
  55.1541         60
  55.1913         45
  55.2284         57
  55.2656         56
  55.3027         53
  55.3399         53
  55.3770         47
  55.4142         65
  55.4513         51
  55.4885         51
  55.5256         50
  55.5628         57
  55.5999         54
  55.6371         55
  55.6742         52
  55.7114         71
  55.7485         53
  55.7857         68
  55.8228         56
  55.8600         62
  55.8971         64
  55.9343         57
  55.9714         65
  56.0086         54
  56.0457         56
  56.0829         56
  56.1201         57
  56.1572         64
  56.1944         69
  56.2315         55
  56.2687         53
  56.3058         59
  56.3430         62
  56.3801         70
  56.4173         74
  56.4544         63
  56.4916         54
  56.5287         59
  56.5659         59
  56.6030         53
  56.6402         62
  56.6773         60
  56.7145         58
  56.7516         68
  56.7888         64
  56.8259         54
  56.8631         49
  56.9002         54
  56.9374         59
  56.9745         64
  57.0117         63
  57.0488         57
  57.0860         57
  57.1231         49
  57.1603         64
  57.1974         55
  57.2346         59
  57.2717         39
  57.3089         66
  57.3460         57
  57.3832         43
  57.4203         54
  57.4575         57
  57.4946         64
  57.5318         64
  57.5689         52
  57.6061         57
  57.6433         57
  57.6804         59
  57.7176         51
  57.7547         59
  57.7919         58
  57.8290         60
  57.8662         71
  57.9033         47
  57.9405         68
  57.9776         63
  58.0148         70
  58.0519         65
  58.0891         60
  58.1262         60
  58.1634         53
  58.2005         66
  58.2377         60
  58.2748         57
  58.3120         36
  58.3491         66
  58.3863         60
  58.4234         53
  58.4606         47
  58.4977         43
  58.5349         49
  58.5720         54
  58.6092         45
  58.6463         64
  58.6835         37
  58.7206         48
  58.7578         53
  58.7949         56
  58.8321         44
  58.8692         70
  58.9064         50
  58.9435         59
  58.9807         64
  59.0178         55
  59.0550         64
  59.0921         49
  59.1293         45
  59.1664         79
  59.2036         47
  59.2408         54
  59.2779         60
  59.3151         50
  59.3522         61
  59.3894         52
  59.4265         66
  59.4637         60
  59.5008         46
  59.5380         69
  59.5751         56
  59.6123         54
  59.6494         47
  59.6866         63
  59.7237         57
  59.7609         49
  59.7980         41
  59.8352         51
  59.8723         59
  59.9095         58
  59.9466         57
  59.9838         42
  60.0024         70