File: notebooks/data/xrd_data/ML_20220718_46_SJD_4_LaB6-1min.csv
;,2THETA,
5.0000,93
5.0372,97
5.0743,111
5.1115,81
5.1486,96
5.1858,103
5.2229,84
5.2601,95
5.2972,75
5.3344,91
5.3715,80
5.4087,94
5.4458,76
5.4830,96
5.5201,71
5.5573,78
5.5944,76
5.6316,69
5.6687,83
5.7059,77
5.7430,77
5.7802,72
5.8173,81
5.8545,73
5.8916,61
5.9288,81
5.9659,58
6.0031,54
6.0402,72
6.0774,76
6.1145,60
6.1517,71
6.1888,66
6.2260,60
6.2631,73
6.3003,77
6.3374,71
6.3746,61
6.4117,60
6.4489,70
6.4860,59
6.5232,66
6.5604,67
6.5975,74
6.6347,50
6.6718,51
6.7090,64
6.7461,65
6.7833,64
6.8204,54
6.8576,71
6.8947,47
6.9319,66
6.9690,59
7.0062,68
7.0433,63
7.0805,70
7.1176,57
7.1548,60
7.1919,53
7.2291,70
7.2662,68
7.3034,64
7.3405,64
7.3777,52
7.4148,60
7.4520,61
7.4891,61
7.5263,71
7.5634,74
7.6006,53
7.6377,75
7.6749,72
7.7120,71
7.7492,59
7.7863,65
7.8235,71
7.8606,79
7.8978,76
7.9349,67
7.9721,70
8.0092,83
8.0464,57
8.0835,51
8.1207,73
8.1579,65
8.1950,76
8.2322,63
8.2693,88
8.3065,49
8.3436,66
8.3808,60
8.4179,59
8.4551,74
8.4922,76
8.5294,68
8.5665,77
8.6037,87
8.6408,71
8.6780,66
8.7151,73
8.7523,77
8.7894,62
8.8266,81
8.8637,84
8.9009,88
8.9380,87
8.9752,84
9.0123,76
9.0495,70
9.0866,67
9.1238,76
9.1609,68
9.1981,86
9.2352,68
9.2724,67
9.3095,71
9.3467,80
9.3838,72
9.4210,78
9.4581,88
9.4953,67
9.5324,75
9.5696,92
9.6067,91
9.6439,75
9.6811,88
9.7182,88
9.7554,87
9.7925,72
9.8297,75
9.8668,80
9.9040,91
9.9411,86
9.9783,81
10.0154,96
10.0526,82
10.0897,89
10.1269,89
10.1640,99
10.2012,93
10.2383,86
10.2755,91
10.3126,94
10.3498,87
10.3869,100
10.4241,89
10.4612,95
10.4984,88
10.5355,97
10.5727,85
10.6098,93
10.6470,97
10.6841,77
10.7213,76
10.7584,81
10.7956,95
10.8327,82
10.8699,98
10.9070,70
10.9442,68
10.9813,92
11.0185,89
11.0556,88
11.0928,69
11.1299,71
11.1671,86
11.2043,70
11.2414,94
11.2786,85
11.3157,84
11.3529,98
11.3900,73
11.4272,76
11.4643,88
11.5015,99
11.5386,83
11.5758,86
11.6129,94
11.6501,82
11.6872,87
11.7244,93
11.7615,85
11.7987,82
11.8358,76
11.8730,78
11.9101,92
11.9473,77
11.9844,79
12.0216,82
12.0587,81
12.0959,75
12.1330,77
12.1702,85
12.2073,68
12.2445,81
12.2816,81
12.3188,81
12.3559,87
12.3931,96
12.4302,78
12.4674,65
12.5045,88
12.5417,68
12.5788,61
12.6160,90
12.6531,54
12.6903,73
12.7274,76
12.7646,65
12.8018,85
12.8389,69
12.8761,84
12.9132,84
12.9504,93
12.9875,95
13.0247,77
13.0618,83
13.0990,70
13.1361,81
13.1733,77
13.2104,85
13.2476,91
13.2847,75
13.3219,72
13.3590,70
13.3962,88
13.4333,70
13.4705,67
13.5076,77
13.5448,63
13.5819,68
13.6191,63
13.6562,96
13.6934,82
13.7305,49
13.7677,70
13.8048,76
13.8420,65
13.8791,77
13.9163,89
13.9534,69
13.9906,70
14.0277,69
14.0649,67
14.1020,68
14.1392,70
14.1763,73
14.2135,58
14.2506,70
14.2878,74
14.3250,78
14.3621,63
14.3993,78
14.4364,75
14.4736,62
14.5107,56
14.5479,50
14.5850,56
14.6222,50
14.6593,55
14.6965,58
14.7336,73
14.7708,78
14.8079,46
14.8451,58
14.8822,52
14.9194,75
14.9565,63
14.9937,63
15.0308,55
15.0680,60
15.1051,71
15.1423,62
15.1794,66
15.2166,56
15.2537,65
15.2909,62
15.3280,62
15.3652,62
15.4023,56
15.4395,67
15.4766,47
15.5138,68
15.5509,58
15.5881,60
15.6252,58
15.6624,59
15.6995,63
15.7367,53
15.7738,56
15.8110,52
15.8482,59
15.8853,65
15.9225,72
15.9596,65
15.9968,55
16.0339,64
16.0711,66
16.1082,47
16.1454,55
16.1825,48
16.2197,55
16.2568,63
16.2940,64
16.3311,58
16.3683,70
16.4054,57
16.4426,46
16.4797,60
16.5169,60
16.5540,59
16.5912,56
16.6283,64
16.6655,58
16.7026,70
16.7398,41
16.7769,82
16.8141,61
16.8512,53
16.8884,58
16.9255,54
16.9627,68
16.9998,51
17.0370,57
17.0741,57
17.1113,54
17.1484,47
17.1856,66
17.2227,60
17.2599,56
17.2970,66
17.3342,60
17.3713,53
17.4085,64
17.4457,54
17.4828,60
17.5200,69
17.5571,56
17.5943,57
17.6314,61
17.6686,52
17.7057,55
17.7429,59
17.7800,52
17.8172,66
17.8543,51
17.8915,48
17.9286,65
17.9658,58
18.0029,60
18.0401,68
18.0772,54
18.1144,73
18.1515,55
18.1887,65
18.2258,56
18.2630,49
18.3001,64
18.3373,68
18.3744,70
18.4116,55
18.4487,52
18.4859,54
18.5230,54
18.5602,48
18.5973,74
18.6345,77
18.6716,72
18.7088,63
18.7459,74
18.7831,65
18.8202,61
18.8574,54
18.8945,50
18.9317,53
18.9689,70
19.0060,60
19.0432,58
19.0803,57
19.1175,60
19.1546,70
19.1918,58
19.2289,82
19.2661,63
19.3032,59
19.3404,70
19.3775,57
19.4147,57
19.4518,50
19.4890,65
19.5261,63
19.5633,54
19.6004,68
19.6376,62
19.6747,61
19.7119,81
19.7490,58
19.7862,64
19.8233,57
19.8605,60
19.8976,91
19.9348,51
19.9719,69
20.0091,51
20.0462,82
20.0834,74
20.1205,74
20.1577,65
20.1948,81
20.2320,73
20.2691,66
20.3063,72
20.3434,75
20.3806,83
20.4177,69
20.4549,67
20.4921,70
20.5292,64
20.5664,80
20.6035,64
20.6407,63
20.6778,76
20.7150,73
20.7521,62
20.7893,69
20.8264,75
20.8636,72
20.9007,64
20.9379,76
20.9750,76
21.0122,61
21.0493,79
21.0865,76
21.1236,85
21.1608,97
21.1979,115
21.2351,114
21.2722,106
21.3094,145
21.3465,192
21.3837,161
21.4208,122
21.4580,64
21.4951,83
21.5323,81
21.5694,65
21.6066,82
21.6437,64
21.6809,73
21.7180,71
21.7552,67
21.7923,51
21.8295,91
21.8666,68
21.9038,76
21.9409,67
21.9781,82
22.0152,71
22.0524,78
22.0896,68
22.1267,64
22.1639,68
22.2010,64
22.2382,66
22.2753,61
22.3125,63
22.3496,74
22.3868,64
22.4239,71
22.4611,90
22.4982,57
22.5354,79
22.5725,87
22.6097,85
22.6468,72
22.6840,82
22.7211,61
22.7583,64
22.7954,75
22.8326,78
22.8697,60
22.9069,82
22.9440,74
22.9812,69
23.0183,65
23.0555,76
23.0926,73
23.1298,74
23.1669,65
23.2041,73
23.2412,70
23.2784,72
23.3155,83
23.3527,76
23.3898,71
23.4270,68
23.4641,89
23.5013,60
23.5384,73
23.5756,77
23.6128,69
23.6499,86
23.6871,66
23.7242,95
23.7614,77
23.7985,67
23.8357,87
23.8728,69
23.9100,80
23.9471,73
23.9843,99
24.0214,82
24.0586,81
24.0957,61
24.1329,84
24.1700,76
24.2072,70
24.2443,83
24.2815,82
24.3186,77
24.3558,61
24.3929,64
24.4301,77
24.4672,80
24.5044,80
24.5415,79
24.5787,77
24.6158,83
24.6530,75
24.6901,69
24.7273,85
24.7644,69
24.8016,58
24.8387,64
24.8759,78
24.9130,78
24.9502,85
24.9873,74
25.0245,82
25.0616,80
25.0988,77
25.1360,69
25.1731,69
25.2103,74
25.2474,78
25.2846,72
25.3217,72
25.3589,80
25.3960,68
25.4332,74
25.4703,77
25.5075,85
25.5446,84
25.5818,74
25.6189,78
25.6561,68
25.6932,67
25.7304,75
25.7675,60
25.8047,70
25.8418,72
25.8790,63
25.9161,61
25.9533,74
25.9904,65
26.0276,76
26.0647,76
26.1019,65
26.1390,78
26.1762,67
26.2133,68
26.2505,80
26.2876,70
26.3248,72
26.3619,75
26.3991,74
26.4362,65
26.4734,82
26.5105,72
26.5477,76
26.5848,68
26.6220,68
26.6591,67
26.6963,71
26.7335,65
26.7706,60
26.8078,80
26.8449,52
26.8821,78
26.9192,74
26.9564,67
26.9935,75
27.0307,79
27.0678,63
27.1050,75
27.1421,78
27.1793,89
27.2164,97
27.2536,92
27.2907,77
27.3279,76
27.3650,68
27.4022,67
27.4393,57
27.4765,75
27.5136,65
27.5508,63
27.5879,79
27.6251,68
27.6622,64
27.6994,69
27.7365,56
27.7737,79
27.8108,68
27.8480,67
27.8851,60
27.9223,59
27.9594,66
27.9966,47
28.0337,70
28.0709,73
28.1080,68
28.1452,61
28.1823,47
28.2195,64
28.2567,45
28.2938,66
28.3310,58
28.3681,64
28.4053,59
28.4424,62
28.4796,51
28.5167,62
28.5539,57
28.5910,53
28.6282,56
28.6653,70
28.7025,71
28.7396,63
28.7768,81
28.8139,59
28.8511,64
28.8882,61
28.9254,59
28.9625,55
28.9997,67
29.0368,52
29.0740,72
29.1111,60
29.1483,57
29.1854,49
29.2226,55
29.2597,60
29.2969,51
29.3340,62
29.3712,64
29.4083,65
29.4455,52
29.4826,73
29.5198,57
29.5569,51
29.5941,76
29.6312,52
29.6684,54
29.7055,50
29.7427,62
29.7799,52
29.8170,44
29.8542,57
29.8913,48
29.9285,50
29.9656,68
30.0028,45
30.0399,52
30.0771,45
30.1142,58
30.1514,42
30.1885,66
30.2257,68
30.2628,63
30.3000,57
30.3371,58
30.3743,108
30.4114,98
30.4486,86
30.4857,76
30.5229,83
30.5600,68
30.5972,50
30.6343,58
30.6715,74
30.7086,52
30.7458,75
30.7829,48
30.8201,59
30.8572,51
30.8944,58
30.9315,47
30.9687,51
31.0058,63
31.0430,51
31.0801,57
31.1173,43
31.1544,45
31.1916,52
31.2287,60
31.2659,43
31.3030,61
31.3402,63
31.3774,51
31.4145,49
31.4517,61
31.4888,60
31.5260,47
31.5631,46
31.6003,62
31.6374,53
31.6746,59
31.7117,48
31.7489,57
31.7860,58
31.8232,57
31.8603,46
31.8975,55
31.9346,50
31.9718,59
32.0089,56
32.0461,55
32.0832,69
32.1204,43
32.1575,44
32.1947,57
32.2318,62
32.2690,54
32.3061,54
32.3433,55
32.3804,59
32.4176,41
32.4547,54
32.4919,49
32.5290,47
32.5662,61
32.6033,56
32.6405,47
32.6776,44
32.7148,39
32.7519,51
32.7891,36
32.8262,45
32.8634,43
32.9006,43
32.9377,39
32.9749,45
33.0120,59
33.0492,38
33.0863,64
33.1235,59
33.1606,46
33.1978,48
33.2349,43
33.2721,40
33.3092,39
33.3464,45
33.3835,49
33.4207,44
33.4578,54
33.4950,41
33.5321,37
33.5693,46
33.6064,49
33.6436,36
33.6807,36
33.7179,40
33.7550,44
33.7922,54
33.8293,53
33.8665,39
33.9036,40
33.9408,45
33.9779,39
34.0151,46
34.0522,28
34.0894,30
34.1265,42
34.1637,51
34.2008,45
34.2380,36
34.2751,38
34.3123,43
34.3494,39
34.3866,29
34.4238,41
34.4609,46
34.4981,42
34.5352,51
34.5724,47
34.6095,46
34.6467,38
34.6838,49
34.7210,51
34.7581,60
34.7953,63
34.8324,49
34.8696,47
34.9067,44
34.9439,39
34.9810,40
35.0182,44
35.0553,33
35.0925,49
35.1296,45
35.1668,38
35.2039,42
35.2411,33
35.2782,26
35.3154,37
35.3525,34
35.3897,39
35.4268,36
35.4640,35
35.5011,43
35.5383,33
35.5754,40
35.6126,46
35.6497,37
35.6869,40
35.7240,36
35.7612,44
35.7983,39
35.8355,37
35.8726,36
35.9098,39
35.9469,32
35.9841,33
36.0213,32
36.0584,39
36.0956,29
36.1327,41
36.1699,33
36.2070,38
36.2442,34
36.2813,33
36.3185,32
36.3556,22
36.3928,42
36.4299,43
36.4671,40
36.5042,33
36.5414,34
36.5785,38
36.6157,28
36.6528,46
36.6900,34
36.7271,41
36.7643,40
36.8014,22
36.8386,42
36.8757,25
36.9129,24
36.9500,41
36.9872,37
37.0243,37
37.0615,34
37.0986,26
37.1358,42
37.1729,34
37.2101,31
37.2472,42
37.2844,33
37.3215,37
37.3587,39
37.3958,34
37.4330,48
37.4701,45
37.5073,56
37.5445,47
37.5816,35
37.6188,27
37.6559,36
37.6931,30
37.7302,38
37.7674,33
37.8045,32
37.8417,35
37.8788,25
37.9160,28
37.9531,31
37.9903,24
38.0274,32
38.0646,44
38.1017,30
38.1389,24
38.1760,23
38.2132,31
38.2503,32
38.2875,30
38.3246,30
38.3618,34
38.3989,26
38.4361,26
38.4732,30
38.5104,28
38.5475,29
38.5847,30
38.6218,28
38.6590,35
38.6961,41
38.7333,38
38.7704,33
38.8076,46
38.8447,37
38.8819,44
38.9190,29
38.9562,29
38.9933,24
39.0305,28
39.0677,31
39.1048,38
39.1420,50
39.1791,27
39.2163,24
39.2534,24
39.2906,35
39.3277,31
39.3649,26
39.4020,19
39.4392,31
39.4763,22
39.5135,35
39.5506,24
39.5878,25
39.6249,24
39.6621,32
39.6992,29
39.7364,29
39.7735,25
39.8107,27
39.8478,24
39.8850,40
39.9221,35
39.9593,26
39.9964,37
40.0336,32
40.0707,22
40.1079,24
40.1450,32
40.1822,17
40.2193,34
40.2565,32
40.2936,32
40.3308,39
40.3679,23
40.4051,20
40.4422,23
40.4794,20
40.5165,32
40.5537,25
40.5908,21
40.6280,25
40.6652,25
40.7023,37
40.7395,30
40.7766,29
40.8138,24
40.8509,33
40.8881,24
40.9252,30
40.9624,32
40.9995,36
41.0367,27
41.0738,38
41.1110,26
41.1481,23
41.1853,26
41.2224,25
41.2596,28
41.2967,27
41.3339,31
41.3710,23
41.4082,25
41.4453,24
41.4825,31
41.5196,25
41.5568,31
41.5939,21
41.6311,24
41.6682,24
41.7054,34
41.7425,31
41.7797,22
41.8168,25
41.8540,20
41.8911,28
41.9283,30
41.9654,35
42.0026,27
42.0397,30
42.0769,31
42.1140,27
42.1512,27
42.1884,17
42.2255,20
42.2627,21
42.2998,34
42.3370,29
42.3741,15
42.4113,29
42.4484,35
42.4856,19
42.5227,27
42.5599,30
42.5970,18
42.6342,28
42.6713,28
42.7085,28
42.7456,24
42.7828,27
42.8199,36
42.8571,31
42.8942,26
42.9314,30
42.9685,36
43.0057,35
43.0428,25
43.0800,31
43.1171,26
43.1543,47
43.1914,29
43.2286,22
43.2657,36
43.3029,29
43.3400,42
43.3772,29
43.4143,25
43.4515,41
43.4886,47
43.5258,36
43.5629,35
43.6001,39
43.6372,34
43.6744,31
43.7116,21
43.7487,35
43.7859,27
43.8230,23
43.8602,31
43.8973,29
43.9345,17
43.9716,17
44.0088,20
44.0459,21
44.0831,28
44.1202,20
44.1574,30
44.1945,25
44.2317,30
44.2688,28
44.3060,20
44.3431,14
44.3803,31
44.4174,25
44.4546,23
44.4917,22
44.5289,38
44.5660,27
44.6032,41
44.6403,39
44.6775,39
44.7146,28
44.7518,24
44.7889,31
44.8261,29
44.8632,25
44.9004,25
44.9375,24
44.9747,24
45.0118,23
45.0490,21
45.0861,21
45.1233,30
45.1604,25
45.1976,25
45.2347,27
45.2719,33
45.3091,27
45.3462,25
45.3834,17
45.4205,27
45.4577,29
45.4948,28
45.5320,27
45.5691,23
45.6063,16
45.6434,24
45.6806,30
45.7177,24
45.7549,26
45.7920,25
45.8292,16
45.8663,17
45.9035,18
45.9406,17
45.9778,17
46.0149,16
46.0521,21
46.0892,20
46.1264,20
46.1635,28
46.2007,18
46.2378,14
46.2750,33
46.3121,20
46.3493,22
46.3864,26
46.4236,20
46.4607,26
46.4979,24
46.5350,21
46.5722,29
46.6093,23
46.6465,29
46.6836,25
46.7208,26
46.7579,25
46.7951,22
46.8323,26
46.8694,26
46.9066,25
46.9437,33
46.9809,18
47.0180,24
47.0552,32
47.0923,17
47.1295,25
47.1666,23
47.2038,29
47.2409,15
47.2781,23
47.3152,22
47.3524,26
47.3895,16
47.4267,19
47.4638,29
47.5010,23
47.5381,14
47.5753,26
47.6124,25
47.6496,28
47.6867,25
47.7239,37
47.7610,19
47.7982,28
47.8353,25
47.8725,21
47.9096,18
47.9468,19
47.9839,20
48.0211,30
48.0582,20
48.0954,17
48.1325,13
48.1697,18
48.2068,25
48.2440,29
48.2811,21
48.3183,22
48.3555,22
48.3926,23
48.4298,30
48.4669,25
48.5041,19
48.5412,30
48.5784,25
48.6155,26
48.6527,16
48.6898,26
48.7270,23
48.7641,23
48.8013,24
48.8384,24
48.8756,27
48.9127,23
48.9499,48
48.9870,34
49.0242,32
49.0613,24
49.0985,35
49.1356,28
49.1728,26
49.2099,28
49.2471,32
49.2842,9
49.3214,22
49.3585,19
49.3957,29
49.4328,20
49.4700,28
49.5071,22
49.5443,15
49.5814,23
49.6186,16
49.6557,17
49.6929,26
49.7300,24
49.7672,25
49.8043,21
49.8415,19
49.8786,23
49.9158,19
49.9530,18
49.9901,25
50.0273,23
50.0644,15
50.1016,18
50.1387,23
50.1759,28
50.2130,23
50.2502,25
50.2873,25
50.3245,20
50.3616,18
50.3988,21
50.4359,24
50.4731,19
50.5102,21
50.5474,19
50.5845,20
50.6217,26
50.6588,22
50.6960,20
50.7331,16
50.7703,30
50.8074,13
50.8446,19
50.8817,16
50.9189,13
50.9560,18
50.9932,15
51.0303,17
51.0675,23
51.1046,27
51.1418,26
51.1789,16
51.2161,23
51.2532,27
51.2904,22
51.3275,26
51.3647,23
51.4018,28
51.4390,25
51.4762,23
51.5133,19
51.5505,24
51.5876,34
51.6248,16
51.6619,27
51.6991,34
51.7362,20
51.7734,22
51.8105,21
51.8477,30
51.8848,24
51.9220,20
51.9591,25
51.9963,20
52.0334,23
52.0706,18
52.1077,6
52.1449,27
52.1820,18
52.2192,30
52.2563,21
52.2935,25
52.3306,19
52.3678,25
52.4049,23
52.4421,26
52.4792,22
52.5164,30
52.5535,21
52.5907,30
52.6278,24
52.6650,21
52.7021,20
52.7393,18
52.7764,19
52.8136,28
52.8507,25
52.8879,27
52.9250,17
52.9622,21
52.9994,30
53.0365,20
53.0737,21
53.1108,15
53.1480,30
53.1851,16
53.2223,20
53.2594,22
53.2966,16
53.3337,18
53.3709,19
53.4080,22
53.4452,26
53.4823,16
53.5195,25
53.5566,13
53.5938,24
53.6309,24
53.6681,30
53.7052,25
53.7424,32
53.7795,17
53.8167,31
53.8538,22
53.8910,14
53.9281,20
53.9653,31
54.0024,26
54.0396,22
54.0767,21
54.1139,17
54.1510,14
54.1882,31
54.2253,27
54.2625,12
54.2996,23
54.3368,31
54.3739,19
54.4111,23
54.4482,19
54.4854,18
54.5225,23
54.5597,8
54.5969,21
54.6340,21
54.6712,17
54.7083,25
54.7455,21
54.7826,14
54.8198,17
54.8569,18
54.8941,20
54.9312,15
54.9684,13
55.0055,26
55.0427,24
55.0798,26
55.1170,28
55.1541,25
55.1913,17
55.2284,13
55.2656,24
55.3027,19
55.3399,20
55.3770,30
55.4142,21
55.4513,24
55.4885,23
55.5256,12
55.5628,20
55.5999,25
55.6371,20
55.6742,24
55.7114,20
55.7485,27
55.7857,24
55.8228,24
55.8600,18
55.8971,21
55.9343,14
55.9714,23
56.0086,32
56.0457,27
56.0829,18
56.1201,17
56.1572,26
56.1944,18
56.2315,27
56.2687,20
56.3058,28
56.3430,27
56.3801,23
56.4173,17
56.4544,16
56.4916,15
56.5287,13
56.5659,19
56.6030,19
56.6402,26
56.6773,22
56.7145,20
56.7516,23
56.7888,22
56.8259,12
56.8631,19
56.9002,23
56.9374,12
56.9745,19
57.0117,24
57.0488,24
57.0860,22
57.1231,18
57.1603,14
57.1974,16
57.2346,19
57.2717,19
57.3089,19
57.3460,26
57.3832,17
57.4203,20
57.4575,20
57.4946,29
57.5318,11
57.5689,25
57.6061,17
57.6433,31
57.6804,23
57.7176,21
57.7547,17
57.7919,14
57.8290,19
57.8662,19
57.9033,25
57.9405,15
57.9776,27
58.0148,17
58.0519,21
58.0891,28
58.1262,17
58.1634,28
58.2005,18
58.2377,23
58.2748,20
58.3120,27
58.3491,22
58.3863,23
58.4234,23
58.4606,20
58.4977,23
58.5349,17
58.5720,18
58.6092,16
58.6463,28
58.6835,24
58.7206,14
58.7578,18
58.7949,13
58.8321,30
58.8692,16
58.9064,23
58.9435,21
58.9807,26
59.0178,15
59.0550,24
59.0921,18
59.1293,15
59.1664,21
59.2036,17
59.2408,24
59.2779,28
59.3151,16
59.3522,19
59.3894,19
59.4265,20
59.4637,19
59.5008,14
59.5380,22
59.5751,19
59.6123,23
59.6494,26
59.6866,19
59.7237,18
59.7609,22
59.7980,22
59.8352,16
59.8723,18
59.9095,17
59.9466,23
59.9838,19
60.0024,21