File: notebooks/data/xrd_data/ML_20220720_24_SJD_4_LaB6-1min.uxd
; (content of file Y:\Sam\Apurva-07-20-2022\puck2\ML_20220720_24_SJD_0_LaB6-1min.raw)
_FILEVERSION = 3
_SAMPLE = ML_20220720_24_SJD_0_LaB6-1min
_+SAMPLE =
_SITE = USA
_USER = Administrator
_GONIOMETER_CODE = 20
; Goniometer : D8 theta/2theta, stage : Unknown
_ATTACHMENTS_CODE = 0
_GONIOMETER_RADIUS = 200.5
_FIXED_DIVSLIT = 0.6
_FIXED_SAMPLESLIT = 0
_SOLLER_SLITS = 2
_FIXED_DETSLIT = 9.55
_MONOCHROMATOR = 0
; Incident beam monochromator : None
_SOLLER_SLITS_2 = N
_THIN_FILM = N
_BETA_FILTER = Y
_FIXED_ANTISLIT = 5.89
_ANALYZER_CODE = 0
; Received beam analyzer : None
_DATEMEASURED = "25-Jul-2022 18:31:09"
_WL_UNIT = A
_WL1 = 1.5406
_WL2 = 1.54439
_WL3 = 1.39222
_WLRATIO = 0.5
_ANODE = Cu
_V4_INF_CREATOR = XRDWizard
_V4_INF_CREATOR_VERSION = V2.9.0.22
_V4_INF_WIZARD_VERSION = V2.9.0.22
_V4_INF_WIZARD_ADDINS = V2.9.0.22
_V4_INF_WIZARD_DOCTYPE = XRD
_V4_INF_OSUSER = McQueenLab
_V4_INF_USER = Administrator
_V4_INF_SITE = USA
_V4_INF_SAMPLEID = ML_20220720_24_SJD_0_LaB6-1min

; Data for range 1
_DRIVE = COUPLED
_STEPTIME = 4.23
_STEPSIZE = 0.0185756
_STEPMODE = C
_START = 5
_THETA = 2.5
_2THETA = 5
_KHI = 0
_PHI = 0
_X = 0
_Y = 0
_Z = 0
_DETECTOR = 5
; Detector type : Unknown
_DETECTORSLIT = unkn
_AUX1 = 0
_AUX2 = 0
_AUX3 = 0
_TIMESTARTED = 14
_TEMP_RATE = -1
_TEMP_DELAY = -1
_KV = 40
_MA = 40
_RANGE_WL = 1.5406
_3DPLANE = 0
_V4_ADDITIONALDETECTOR = 257
_V4_PSD2THETA = 3.3766
_V4_PSDCHANNEL1 = 0
_V4_PSDAPERTURE = 12.68
_V4_PSDTYPE = 5
_V4_PSDFIXED = 0
_V4_COUNTERS_MASK = 4096
_V4_DRIVES_MASK = 0
_V4_ENCODERS_MASK = 0
_2THETACOUNTS = 1
; 2THETA  PSD
   5.0000         85
   5.0372         96
   5.0743         87
   5.1115         80
   5.1486         98
   5.1858         82
   5.2229        105
   5.2601         93
   5.2972         89
   5.3344        106
   5.3715         76
   5.4087         79
   5.4458         70
   5.4830         89
   5.5201         71
   5.5573         69
   5.5944         77
   5.6316         92
   5.6687         78
   5.7059         87
   5.7430         74
   5.7802         83
   5.8173         85
   5.8545         83
   5.8916         60
   5.9288         84
   5.9659         75
   6.0031         66
   6.0402         79
   6.0774         65
   6.1145         84
   6.1517         78
   6.1888         88
   6.2260         65
   6.2631         47
   6.3003         76
   6.3374         81
   6.3746         65
   6.4117         54
   6.4489         69
   6.4860         64
   6.5232         59
   6.5604         74
   6.5975         76
   6.6347         69
   6.6718         61
   6.7090         56
   6.7461         61
   6.7833         61
   6.8204         53
   6.8576         58
   6.8947         59
   6.9319         78
   6.9690         55
   7.0062         61
   7.0433         54
   7.0805         44
   7.1176         64
   7.1548         55
   7.1919         61
   7.2291         70
   7.2662         52
   7.3034         57
   7.3405         70
   7.3777         55
   7.4148         52
   7.4520         57
   7.4891         66
   7.5263         65
   7.5634         51
   7.6006         56
   7.6377         64
   7.6749         77
   7.7120         65
   7.7492         68
   7.7863         50
   7.8235         52
   7.8606         69
   7.8978         56
   7.9349         59
   7.9721         72
   8.0092         78
   8.0464         63
   8.0835         82
   8.1207         75
   8.1579         62
   8.1950         80
   8.2322         77
   8.2693         67
   8.3065         69
   8.3436         64
   8.3808         75
   8.4179         85
   8.4551         66
   8.4922         72
   8.5294         98
   8.5665         72
   8.6037         83
   8.6408         65
   8.6780         63
   8.7151         71
   8.7523         68
   8.7894         63
   8.8266         73
   8.8637         71
   8.9009         89
   8.9380         78
   8.9752         84
   9.0123         76
   9.0495         71
   9.0866         92
   9.1238         70
   9.1609         85
   9.1981         73
   9.2352         84
   9.2724         96
   9.3095         90
   9.3467         85
   9.3838         84
   9.4210         73
   9.4581         83
   9.4953         85
   9.5324         81
   9.5696         88
   9.6067         86
   9.6439         74
   9.6811         81
   9.7182         77
   9.7554         85
   9.7925         77
   9.8297         84
   9.8668         90
   9.9040         87
   9.9411         90
   9.9783         89
  10.0154         93
  10.0526         96
  10.0897         87
  10.1269         89
  10.1640         98
  10.2012         96
  10.2383         93
  10.2755         88
  10.3126         94
  10.3498         92
  10.3869         93
  10.4241         92
  10.4612         80
  10.4984         94
  10.5355         96
  10.5727         81
  10.6098         78
  10.6470         99
  10.6841         94
  10.7213         71
  10.7584         81
  10.7956         91
  10.8327         85
  10.8699         91
  10.9070         77
  10.9442         89
  10.9813         80
  11.0185         80
  11.0556         92
  11.0928         87
  11.1299         83
  11.1671         96
  11.2043        104
  11.2414         85
  11.2786         86
  11.3157         87
  11.3529         96
  11.3900         71
  11.4272         71
  11.4643         74
  11.5015         86
  11.5386         83
  11.5758         79
  11.6129         74
  11.6501         92
  11.6872         69
  11.7244         85
  11.7615         84
  11.7987         77
  11.8358         73
  11.8730         92
  11.9101         89
  11.9473         70
  11.9844         66
  12.0216         91
  12.0587         90
  12.0959         81
  12.1330         87
  12.1702         93
  12.2073         91
  12.2445         85
  12.2816         69
  12.3188        104
  12.3559         76
  12.3931         74
  12.4302         81
  12.4674         77
  12.5045         77
  12.5417         64
  12.5788         89
  12.6160         81
  12.6531         72
  12.6903         65
  12.7274         83
  12.7646         86
  12.8018         75
  12.8389         78
  12.8761         61
  12.9132         77
  12.9504         66
  12.9875         78
  13.0247         73
  13.0618         71
  13.0990        100
  13.1361         84
  13.1733         81
  13.2104         78
  13.2476         70
  13.2847         73
  13.3219         71
  13.3590         69
  13.3962         66
  13.4333         59
  13.4705         69
  13.5076         64
  13.5448         81
  13.5819         70
  13.6191         93
  13.6562         67
  13.6934         73
  13.7305         68
  13.7677         76
  13.8048         81
  13.8420         57
  13.8791         62
  13.9163         74
  13.9534         88
  13.9906         74
  14.0277         76
  14.0649         70
  14.1020         64
  14.1392         70
  14.1763         71
  14.2135         83
  14.2506         56
  14.2878         68
  14.3250         77
  14.3621         71
  14.3993         62
  14.4364         65
  14.4736         65
  14.5107         69
  14.5479         60
  14.5850         61
  14.6222         53
  14.6593         60
  14.6965         71
  14.7336         59
  14.7708         57
  14.8079         70
  14.8451         53
  14.8822         59
  14.9194         57
  14.9565         58
  14.9937         53
  15.0308         56
  15.0680         52
  15.1051         54
  15.1423         61
  15.1794         69
  15.2166         64
  15.2537         51
  15.2909         56
  15.3280         53
  15.3652         59
  15.4023         64
  15.4395         57
  15.4766         42
  15.5138         49
  15.5509         63
  15.5881         63
  15.6252         53
  15.6624         74
  15.6995         68
  15.7367         71
  15.7738         73
  15.8110         44
  15.8482         62
  15.8853         64
  15.9225         67
  15.9596         59
  15.9968         50
  16.0339         41
  16.0711         56
  16.1082         67
  16.1454         63
  16.1825         51
  16.2197         63
  16.2568         54
  16.2940         51
  16.3311         63
  16.3683         60
  16.4054         46
  16.4426         77
  16.4797         63
  16.5169         59
  16.5540         64
  16.5912         52
  16.6283         66
  16.6655         77
  16.7026         62
  16.7398         55
  16.7769         58
  16.8141         53
  16.8512         85
  16.8884         50
  16.9255         55
  16.9627         70
  16.9998         71
  17.0370         52
  17.0741         61
  17.1113         53
  17.1484         55
  17.1856         54
  17.2227         62
  17.2599         64
  17.2970         43
  17.3342         61
  17.3713         66
  17.4085         48
  17.4457         63
  17.4828         55
  17.5200         51
  17.5571         55
  17.5943         77
  17.6314         58
  17.6686         77
  17.7057         51
  17.7429         62
  17.7800         45
  17.8172         59
  17.8543         48
  17.8915         64
  17.9286         55
  17.9658         48
  18.0029         59
  18.0401         67
  18.0772         51
  18.1144         59
  18.1515         47
  18.1887         52
  18.2258         51
  18.2630         49
  18.3001         64
  18.3373         58
  18.3744         64
  18.4116         59
  18.4487         69
  18.4859         49
  18.5230         72
  18.5602         64
  18.5973         59
  18.6345         44
  18.6716         63
  18.7088         60
  18.7459         64
  18.7831         64
  18.8202         63
  18.8574         58
  18.8945         81
  18.9317         65
  18.9689         42
  19.0060         61
  19.0432         65
  19.0803         65
  19.1175         50
  19.1546         70
  19.1918         72
  19.2289         67
  19.2661         68
  19.3032         61
  19.3404         60
  19.3775         53
  19.4147         67
  19.4518         49
  19.4890         67
  19.5261         66
  19.5633         57
  19.6004         49
  19.6376         60
  19.6747         63
  19.7119         58
  19.7490         76
  19.7862         61
  19.8233         79
  19.8605         77
  19.8976         68
  19.9348         65
  19.9719         59
  20.0091         65
  20.0462         55
  20.0834         76
  20.1205         78
  20.1577         51
  20.1948         70
  20.2320         66
  20.2691         69
  20.3063         80
  20.3434         72
  20.3806         84
  20.4177         52
  20.4549         68
  20.4921         62
  20.5292         80
  20.5664         71
  20.6035         72
  20.6407         71
  20.6778         61
  20.7150         70
  20.7521         66
  20.7893         59
  20.8264         78
  20.8636         85
  20.9007         63
  20.9379         73
  20.9750         80
  21.0122         73
  21.0493         64
  21.0865         84
  21.1236         87
  21.1608         76
  21.1979         94
  21.2351        111
  21.2722        128
  21.3094        118
  21.3465        174
  21.3837        127
  21.4208        139
  21.4580         81
  21.4951         75
  21.5323         78
  21.5694         74
  21.6066         68
  21.6437         76
  21.6809         77
  21.7180         80
  21.7552         63
  21.7923         67
  21.8295         67
  21.8666         61
  21.9038         75
  21.9409         74
  21.9781         76
  22.0152         76
  22.0524         66
  22.0896         93
  22.1267         65
  22.1639         66
  22.2010         74
  22.2382         68
  22.2753         70
  22.3125         64
  22.3496         78
  22.3868         80
  22.4239         70
  22.4611         72
  22.4982         71
  22.5354         63
  22.5725         61
  22.6097         68
  22.6468         63
  22.6840         66
  22.7211         70
  22.7583         57
  22.7954         62
  22.8326         70
  22.8697         81
  22.9069         74
  22.9440         81
  22.9812         68
  23.0183         77
  23.0555         60
  23.0926         79
  23.1298         79
  23.1669         81
  23.2041         64
  23.2412         62
  23.2784         65
  23.3155         78
  23.3527         69
  23.3898         66
  23.4270         67
  23.4641         81
  23.5013         69
  23.5384         70
  23.5756         67
  23.6128         59
  23.6499         73
  23.6871         71
  23.7242         65
  23.7614         84
  23.7985         64
  23.8357         89
  23.8728         79
  23.9100         87
  23.9471         83
  23.9843         66
  24.0214         86
  24.0586         62
  24.0957         77
  24.1329         86
  24.1700         84
  24.2072         97
  24.2443         74
  24.2815         92
  24.3186         78
  24.3558         64
  24.3929         67
  24.4301         65
  24.4672         76
  24.5044         75
  24.5415         76
  24.5787         76
  24.6158         59
  24.6530         80
  24.6901         71
  24.7273         74
  24.7644         72
  24.8016         66
  24.8387         72
  24.8759         68
  24.9130         76
  24.9502         88
  24.9873         75
  25.0245         78
  25.0616         75
  25.0988         84
  25.1360         87
  25.1731         56
  25.2103         69
  25.2474         64
  25.2846         60
  25.3217         61
  25.3589         87
  25.3960         68
  25.4332         62
  25.4703         64
  25.5075         65
  25.5446         73
  25.5818         67
  25.6189         51
  25.6561         70
  25.6932         62
  25.7304         75
  25.7675         51
  25.8047         87
  25.8418         68
  25.8790         64
  25.9161         71
  25.9533         58
  25.9904         70
  26.0276         70
  26.0647         84
  26.1019         66
  26.1390         61
  26.1762         68
  26.2133         59
  26.2505         73
  26.2876         75
  26.3248         99
  26.3619         65
  26.3991         69
  26.4362         81
  26.4734         68
  26.5105         78
  26.5477         78
  26.5848         59
  26.6220         78
  26.6591         64
  26.6963         63
  26.7335         71
  26.7706         88
  26.8078         64
  26.8449         63
  26.8821         75
  26.9192         76
  26.9564         67
  26.9935         72
  27.0307         72
  27.0678         67
  27.1050         81
  27.1421         68
  27.1793         81
  27.2164         92
  27.2536         78
  27.2907         71
  27.3279         61
  27.3650         51
  27.4022         69
  27.4393         76
  27.4765         80
  27.5136         74
  27.5508         63
  27.5879         70
  27.6251         57
  27.6622         74
  27.6994         56
  27.7365         59
  27.7737         57
  27.8108         64
  27.8480         55
  27.8851         62
  27.9223         88
  27.9594         82
  27.9966         59
  28.0337         63
  28.0709         52
  28.1080         54
  28.1452         72
  28.1823         60
  28.2195         56
  28.2567         66
  28.2938         62
  28.3310         67
  28.3681         57
  28.4053         54
  28.4424         45
  28.4796         71
  28.5167         67
  28.5539         56
  28.5910         52
  28.6282         58
  28.6653         49
  28.7025         57
  28.7396         56
  28.7768         54
  28.8139         68
  28.8511         78
  28.8882         58
  28.9254         64
  28.9625         70
  28.9997         58
  29.0368         40
  29.0740         61
  29.1111         58
  29.1483         69
  29.1854         71
  29.2226         63
  29.2597         57
  29.2969         62
  29.3340         64
  29.3712         57
  29.4083         64
  29.4455         46
  29.4826         51
  29.5198         57
  29.5569         58
  29.5941         65
  29.6312         52
  29.6684         57
  29.7055         59
  29.7427         53
  29.7799         69
  29.8170         56
  29.8542         59
  29.8913         53
  29.9285         53
  29.9656         61
  30.0028         56
  30.0399         47
  30.0771         63
  30.1142         69
  30.1514         74
  30.1885         71
  30.2257         62
  30.2628         71
  30.3000         83
  30.3371         68
  30.3743        123
  30.4114         91
  30.4486         96
  30.4857         73
  30.5229         58
  30.5600         58
  30.5972         60
  30.6343         66
  30.6715         58
  30.7086         53
  30.7458         61
  30.7829         57
  30.8201         55
  30.8572         67
  30.8944         54
  30.9315         37
  30.9687         38
  31.0058         63
  31.0430         44
  31.0801         46
  31.1173         62
  31.1544         46
  31.1916         56
  31.2287         48
  31.2659         51
  31.3030         44
  31.3402         45
  31.3774         50
  31.4145         57
  31.4517         67
  31.4888         60
  31.5260         45
  31.5631         54
  31.6003         42
  31.6374         43
  31.6746         54
  31.7117         48
  31.7489         36
  31.7860         37
  31.8232         47
  31.8603         46
  31.8975         48
  31.9346         41
  31.9718         56
  32.0089         55
  32.0461         45
  32.0832         58
  32.1204         43
  32.1575         62
  32.1947         53
  32.2318         35
  32.2690         51
  32.3061         54
  32.3433         59
  32.3804         50
  32.4176         43
  32.4547         62
  32.4919         45
  32.5290         51
  32.5662         53
  32.6033         50
  32.6405         46
  32.6776         45
  32.7148         45
  32.7519         56
  32.7891         35
  32.8262         49
  32.8634         51
  32.9006         40
  32.9377         43
  32.9749         43
  33.0120         41
  33.0492         43
  33.0863         43
  33.1235         54
  33.1606         45
  33.1978         39
  33.2349         49
  33.2721         35
  33.3092         35
  33.3464         46
  33.3835         44
  33.4207         47
  33.4578         45
  33.4950         32
  33.5321         45
  33.5693         49
  33.6064         37
  33.6436         47
  33.6807         40
  33.7179         45
  33.7550         32
  33.7922         31
  33.8293         28
  33.8665         40
  33.9036         49
  33.9408         41
  33.9779         44
  34.0151         51
  34.0522         56
  34.0894         32
  34.1265         46
  34.1637         38
  34.2008         37
  34.2380         30
  34.2751         47
  34.3123         51
  34.3494         39
  34.3866         45
  34.4238         32
  34.4609         50
  34.4981         42
  34.5352         46
  34.5724         46
  34.6095         47
  34.6467         43
  34.6838         52
  34.7210         43
  34.7581         51
  34.7953         47
  34.8324         62
  34.8696         42
  34.9067         45
  34.9439         34
  34.9810         49
  35.0182         24
  35.0553         38
  35.0925         48
  35.1296         46
  35.1668         44
  35.2039         42
  35.2411         33
  35.2782         30
  35.3154         47
  35.3525         35
  35.3897         38
  35.4268         39
  35.4640         42
  35.5011         38
  35.5383         44
  35.5754         32
  35.6126         42
  35.6497         28
  35.6869         38
  35.7240         33
  35.7612         36
  35.7983         38
  35.8355         44
  35.8726         41
  35.9098         32
  35.9469         42
  35.9841         39
  36.0213         36
  36.0584         35
  36.0956         31
  36.1327         33
  36.1699         27
  36.2070         42
  36.2442         27
  36.2813         33
  36.3185         44
  36.3556         33
  36.3928         30
  36.4299         45
  36.4671         43
  36.5042         36
  36.5414         34
  36.5785         30
  36.6157         31
  36.6528         27
  36.6900         33
  36.7271         36
  36.7643         33
  36.8014         39
  36.8386         30
  36.8757         23
  36.9129         30
  36.9500         35
  36.9872         32
  37.0243         38
  37.0615         39
  37.0986         37
  37.1358         44
  37.1729         38
  37.2101         26
  37.2472         46
  37.2844         39
  37.3215         38
  37.3587         36
  37.3958         33
  37.4330         50
  37.4701         48
  37.5073         42
  37.5445         44
  37.5816         28
  37.6188         34
  37.6559         34
  37.6931         22
  37.7302         30
  37.7674         32
  37.8045         44
  37.8417         27
  37.8788         26
  37.9160         37
  37.9531         30
  37.9903         30
  38.0274         37
  38.0646         33
  38.1017         34
  38.1389         29
  38.1760         27
  38.2132         27
  38.2503         33
  38.2875         38
  38.3246         32
  38.3618         27
  38.3989         38
  38.4361         28
  38.4732         31
  38.5104         35
  38.5475         28
  38.5847         25
  38.6218         33
  38.6590         32
  38.6961         22
  38.7333         30
  38.7704         28
  38.8076         29
  38.8447         32
  38.8819         25
  38.9190         47
  38.9562         40
  38.9933         26
  39.0305         22
  39.0677         23
  39.1048         37
  39.1420         27
  39.1791         38
  39.2163         26
  39.2534         34
  39.2906         28
  39.3277         32
  39.3649         23
  39.4020         26
  39.4392         33
  39.4763         26
  39.5135         36
  39.5506         35
  39.5878         40
  39.6249         27
  39.6621         27
  39.6992         28
  39.7364         37
  39.7735         36
  39.8107         24
  39.8478         31
  39.8850         32
  39.9221         34
  39.9593         23
  39.9964         23
  40.0336         27
  40.0707         29
  40.1079         31
  40.1450         27
  40.1822         30
  40.2193         27
  40.2565         33
  40.2936         29
  40.3308         24
  40.3679         24
  40.4051         26
  40.4422         35
  40.4794         24
  40.5165         30
  40.5537         33
  40.5908         26
  40.6280         27
  40.6652         27
  40.7023         39
  40.7395         23
  40.7766         31
  40.8138         25
  40.8509         26
  40.8881         25
  40.9252         25
  40.9624         30
  40.9995         25
  41.0367         32
  41.0738         24
  41.1110         30
  41.1481         28
  41.1853         26
  41.2224         23
  41.2596         28
  41.2967         33
  41.3339         25
  41.3710         27
  41.4082         38
  41.4453         30
  41.4825         29
  41.5196         18
  41.5568         29
  41.5939         33
  41.6311         30
  41.6682         36
  41.7054         32
  41.7425         24
  41.7797         28
  41.8168         25
  41.8540         31
  41.8911         26
  41.9283         27
  41.9654         25
  42.0026         31
  42.0397         33
  42.0769         30
  42.1140         36
  42.1512         24
  42.1884         20
  42.2255         26
  42.2627         27
  42.2998         29
  42.3370         27
  42.3741         25
  42.4113         26
  42.4484         32
  42.4856         26
  42.5227         22
  42.5599         36
  42.5970         22
  42.6342         39
  42.6713         26
  42.7085         30
  42.7456         26
  42.7828         17
  42.8199         25
  42.8571         30
  42.8942         24
  42.9314         37
  42.9685         19
  43.0057         30
  43.0428         29
  43.0800         29
  43.1171         33
  43.1543         30
  43.1914         27
  43.2286         37
  43.2657         32
  43.3029         30
  43.3400         34
  43.3772         32
  43.4143         43
  43.4515         34
  43.4886         50
  43.5258         48
  43.5629         28
  43.6001         33
  43.6372         37
  43.6744         32
  43.7116         20
  43.7487         24
  43.7859         22
  43.8230         20
  43.8602         33
  43.8973         24
  43.9345         30
  43.9716         27
  44.0088         26
  44.0459         23
  44.0831         25
  44.1202         23
  44.1574         36
  44.1945         21
  44.2317         13
  44.2688         23
  44.3060         27
  44.3431         26
  44.3803         26
  44.4174         31
  44.4546         30
  44.4917         25
  44.5289         24
  44.5660         32
  44.6032         35
  44.6403         36
  44.6775         26
  44.7146         27
  44.7518         27
  44.7889         32
  44.8261         28
  44.8632         24
  44.9004         31
  44.9375         25
  44.9747         30
  45.0118         27
  45.0490         27
  45.0861         20
  45.1233         24
  45.1604         27
  45.1976         18
  45.2347         28
  45.2719         29
  45.3091         20
  45.3462         30
  45.3834         25
  45.4205         20
  45.4577         18
  45.4948         21
  45.5320         29
  45.5691         31
  45.6063         22
  45.6434         28
  45.6806         29
  45.7177         24
  45.7549         31
  45.7920         34
  45.8292         22
  45.8663         23
  45.9035         25
  45.9406         31
  45.9778         18
  46.0149         27
  46.0521         32
  46.0892         28
  46.1264         29
  46.1635         36
  46.2007         27
  46.2378         23
  46.2750         18
  46.3121         26
  46.3493         25
  46.3864         24
  46.4236         24
  46.4607         22
  46.4979         35
  46.5350         21
  46.5722         33
  46.6093         18
  46.6465         27
  46.6836         23
  46.7208         25
  46.7579         27
  46.7951         30
  46.8323         29
  46.8694         29
  46.9066         28
  46.9437         16
  46.9809         25
  47.0180         24
  47.0552         17
  47.0923         23
  47.1295         26
  47.1666         20
  47.2038         26
  47.2409         31
  47.2781         29
  47.3152         24
  47.3524         25
  47.3895         20
  47.4267         29
  47.4638         30
  47.5010         22
  47.5381         29
  47.5753         30
  47.6124         30
  47.6496         25
  47.6867         24
  47.7239         22
  47.7610         23
  47.7982         23
  47.8353         27
  47.8725         11
  47.9096         23
  47.9468         25
  47.9839         28
  48.0211         25
  48.0582         23
  48.0954         25
  48.1325         30
  48.1697         25
  48.2068         29
  48.2440         15
  48.2811         15
  48.3183         25
  48.3555         22
  48.3926         23
  48.4298         13
  48.4669         23
  48.5041         25
  48.5412         20
  48.5784         33
  48.6155         41
  48.6527         21
  48.6898         21
  48.7270         28
  48.7641         16
  48.8013         22
  48.8384         23
  48.8756         29
  48.9127         31
  48.9499         57
  48.9870         32
  49.0242         26
  49.0613         36
  49.0985         32
  49.1356         30
  49.1728         18
  49.2099         21
  49.2471         23
  49.2842         21
  49.3214         22
  49.3585         26
  49.3957         25
  49.4328         17
  49.4700         30
  49.5071         21
  49.5443         26
  49.5814         14
  49.6186         24
  49.6557         18
  49.6929         14
  49.7300         22
  49.7672         24
  49.8043         20
  49.8415         24
  49.8786         26
  49.9158         19
  49.9530         25
  49.9901         26
  50.0273         23
  50.0644         22
  50.1016         31
  50.1387         25
  50.1759         22
  50.2130         29
  50.2502         23
  50.2873         20
  50.3245         14
  50.3616         23
  50.3988         16
  50.4359         28
  50.4731         29
  50.5102         30
  50.5474         18
  50.5845         22
  50.6217         23
  50.6588         24
  50.6960         13
  50.7331         27
  50.7703         24
  50.8074         35
  50.8446         21
  50.8817         19
  50.9189         25
  50.9560         27
  50.9932         20
  51.0303         22
  51.0675         19
  51.1046         23
  51.1418         28
  51.1789         23
  51.2161         22
  51.2532         23
  51.2904         19
  51.3275         24
  51.3647         19
  51.4018         25
  51.4390         24
  51.4762         28
  51.5133         26
  51.5505         14
  51.5876         26
  51.6248         29
  51.6619         22
  51.6991         22
  51.7362         24
  51.7734         16
  51.8105         28
  51.8477         23
  51.8848         24
  51.9220         24
  51.9591         23
  51.9963         20
  52.0334         24
  52.0706         23
  52.1077         14
  52.1449         25
  52.1820         25
  52.2192         20
  52.2563         30
  52.2935         16
  52.3306         20
  52.3678         24
  52.4049         17
  52.4421         15
  52.4792         22
  52.5164         28
  52.5535         14
  52.5907         18
  52.6278         21
  52.6650         23
  52.7021         26
  52.7393         15
  52.7764         25
  52.8136         18
  52.8507         16
  52.8879         23
  52.9250         25
  52.9622         27
  52.9994         33
  53.0365         15
  53.0737         21
  53.1108         18
  53.1480         22
  53.1851         21
  53.2223         27
  53.2594         22
  53.2966         26
  53.3337         17
  53.3709         25
  53.4080         23
  53.4452         17
  53.4823         14
  53.5195         20
  53.5566         16
  53.5938         18
  53.6309         25
  53.6681         22
  53.7052         14
  53.7424         21
  53.7795         19
  53.8167         25
  53.8538         20
  53.8910         15
  53.9281         19
  53.9653         23
  54.0024         38
  54.0396         23
  54.0767         30
  54.1139         25
  54.1510         20
  54.1882         18
  54.2253         16
  54.2625         23
  54.2996         13
  54.3368         16
  54.3739         31
  54.4111         24
  54.4482         20
  54.4854         27
  54.5225         27
  54.5597         19
  54.5969         20
  54.6340         18
  54.6712         16
  54.7083         19
  54.7455         26
  54.7826         23
  54.8198         19
  54.8569         17
  54.8941         27
  54.9312         21
  54.9684         20
  55.0055         32
  55.0427         16
  55.0798         17
  55.1170         27
  55.1541         18
  55.1913         15
  55.2284         26
  55.2656         26
  55.3027         20
  55.3399         28
  55.3770         21
  55.4142         19
  55.4513         28
  55.4885         22
  55.5256         24
  55.5628         22
  55.5999         21
  55.6371         20
  55.6742         21
  55.7114         27
  55.7485         28
  55.7857         25
  55.8228         23
  55.8600         20
  55.8971         18
  55.9343         22
  55.9714         19
  56.0086         20
  56.0457         16
  56.0829         22
  56.1201         21
  56.1572         22
  56.1944         29
  56.2315         28
  56.2687         22
  56.3058         23
  56.3430         38
  56.3801         20
  56.4173         23
  56.4544         29
  56.4916         21
  56.5287         22
  56.5659         25
  56.6030         22
  56.6402         21
  56.6773         20
  56.7145         17
  56.7516         24
  56.7888         24
  56.8259         16
  56.8631         21
  56.9002         17
  56.9374         20
  56.9745         25
  57.0117         18
  57.0488         13
  57.0860         15
  57.1231         23
  57.1603         17
  57.1974         26
  57.2346         22
  57.2717         20
  57.3089         19
  57.3460         16
  57.3832         16
  57.4203         16
  57.4575         20
  57.4946         24
  57.5318         19
  57.5689         19
  57.6061         27
  57.6433         18
  57.6804         29
  57.7176         30
  57.7547         19
  57.7919         17
  57.8290         21
  57.8662         23
  57.9033         16
  57.9405         16
  57.9776         25
  58.0148         17
  58.0519         18
  58.0891         27
  58.1262         23
  58.1634         20
  58.2005         18
  58.2377         21
  58.2748         14
  58.3120         21
  58.3491         28
  58.3863         22
  58.4234         20
  58.4606         20
  58.4977         16
  58.5349         27
  58.5720         21
  58.6092         21
  58.6463         11
  58.6835         15
  58.7206         15
  58.7578         22
  58.7949         18
  58.8321         31
  58.8692         16
  58.9064         14
  58.9435         19
  58.9807         13
  59.0178         22
  59.0550         18
  59.0921         28
  59.1293         21
  59.1664         22
  59.2036         21
  59.2408         24
  59.2779         20
  59.3151         20
  59.3522         25
  59.3894         18
  59.4265         25
  59.4637         16
  59.5008         20
  59.5380         22
  59.5751         22
  59.6123         18
  59.6494         30
  59.6866         19
  59.7237         20
  59.7609         28
  59.7980         20
  59.8352         26
  59.8723         19
  59.9095         13
  59.9466         16
  59.9838         24
  60.0024         22