File: notebooks/data/xrd_data/ML_20220720_20_SJD_4_LaB6-1min.uxd
; (content of file Y:\Sam\Apurva-07-20-2022\puck2\ML_20220720_20_SJD_0_LaB6-1min.raw)
_FILEVERSION = 3
_SAMPLE = ML_20220720_20_SJD_0_LaB6-1min
_+SAMPLE =
_SITE = USA
_USER = Administrator
_GONIOMETER_CODE = 20
; Goniometer : D8 theta/2theta, stage : Unknown
_ATTACHMENTS_CODE = 0
_GONIOMETER_RADIUS = 200.5
_FIXED_DIVSLIT = 0.6
_FIXED_SAMPLESLIT = 0
_SOLLER_SLITS = 2
_FIXED_DETSLIT = 9.55
_MONOCHROMATOR = 0
; Incident beam monochromator : None
_SOLLER_SLITS_2 = N
_THIN_FILM = N
_BETA_FILTER = Y
_FIXED_ANTISLIT = 5.89
_ANALYZER_CODE = 0
; Received beam analyzer : None
_DATEMEASURED = "25-Jul-2022 18:23:39"
_WL_UNIT = A
_WL1 = 1.5406
_WL2 = 1.54439
_WL3 = 1.39222
_WLRATIO = 0.5
_ANODE = Cu
_V4_INF_CREATOR = XRDWizard
_V4_INF_CREATOR_VERSION = V2.9.0.22
_V4_INF_WIZARD_VERSION = V2.9.0.22
_V4_INF_WIZARD_ADDINS = V2.9.0.22
_V4_INF_WIZARD_DOCTYPE = XRD
_V4_INF_OSUSER = McQueenLab
_V4_INF_USER = Administrator
_V4_INF_SITE = USA
_V4_INF_SAMPLEID = ML_20220720_20_SJD_0_LaB6-1min

; Data for range 1
_DRIVE = COUPLED
_STEPTIME = 4.23
_STEPSIZE = 0.0185756
_STEPMODE = C
_START = 5
_THETA = 2.5
_2THETA = 5
_KHI = 0
_PHI = 0
_X = 0
_Y = 0
_Z = 0
_DETECTOR = 5
; Detector type : Unknown
_DETECTORSLIT = unkn
_AUX1 = 0
_AUX2 = 0
_AUX3 = 0
_TIMESTARTED = 14
_TEMP_RATE = -1
_TEMP_DELAY = -1
_KV = 40
_MA = 40
_RANGE_WL = 1.5406
_3DPLANE = 0
_V4_ADDITIONALDETECTOR = 257
_V4_PSD2THETA = 3.3766
_V4_PSDCHANNEL1 = 0
_V4_PSDAPERTURE = 12.68
_V4_PSDTYPE = 5
_V4_PSDFIXED = 0
_V4_COUNTERS_MASK = 4096
_V4_DRIVES_MASK = 0
_V4_ENCODERS_MASK = 0
_2THETACOUNTS = 1
; 2THETA  PSD
   5.0000        102
   5.0372         96
   5.0743        101
   5.1115         83
   5.1486        105
   5.1858        100
   5.2229         98
   5.2601        107
   5.2972         90
   5.3344         90
   5.3715         87
   5.4087         86
   5.4458         88
   5.4830         77
   5.5201         94
   5.5573         78
   5.5944         70
   5.6316         79
   5.6687         68
   5.7059         73
   5.7430         69
   5.7802         75
   5.8173         79
   5.8545         52
   5.8916         91
   5.9288         81
   5.9659         64
   6.0031         68
   6.0402         80
   6.0774         66
   6.1145         69
   6.1517         77
   6.1888         79
   6.2260         61
   6.2631         60
   6.3003         50
   6.3374         56
   6.3746         67
   6.4117         50
   6.4489         66
   6.4860         58
   6.5232         69
   6.5604         59
   6.5975         66
   6.6347         74
   6.6718         71
   6.7090         63
   6.7461         69
   6.7833         81
   6.8204         52
   6.8576         58
   6.8947         57
   6.9319         49
   6.9690         69
   7.0062         67
   7.0433         49
   7.0805         56
   7.1176         56
   7.1548         53
   7.1919         63
   7.2291         71
   7.2662         59
   7.3034         60
   7.3405         53
   7.3777         49
   7.4148         63
   7.4520         52
   7.4891         67
   7.5263         56
   7.5634         55
   7.6006         62
   7.6377         53
   7.6749         59
   7.7120         61
   7.7492         73
   7.7863         68
   7.8235         69
   7.8606         56
   7.8978         61
   7.9349         67
   7.9721         81
   8.0092         68
   8.0464         66
   8.0835         78
   8.1207         75
   8.1579         91
   8.1950         71
   8.2322         75
   8.2693         81
   8.3065         62
   8.3436         71
   8.3808         75
   8.4179         63
   8.4551         55
   8.4922         60
   8.5294         81
   8.5665         71
   8.6037         78
   8.6408         84
   8.6780         66
   8.7151         77
   8.7523         80
   8.7894         62
   8.8266         71
   8.8637         61
   8.9009         68
   8.9380         64
   8.9752         82
   9.0123         67
   9.0495         81
   9.0866         88
   9.1238         81
   9.1609         91
   9.1981         83
   9.2352         69
   9.2724         74
   9.3095         79
   9.3467         97
   9.3838         90
   9.4210         88
   9.4581         73
   9.4953         89
   9.5324         79
   9.5696         78
   9.6067         81
   9.6439         55
   9.6811         90
   9.7182         96
   9.7554         87
   9.7925         66
   9.8297         71
   9.8668         86
   9.9040         89
   9.9411         94
   9.9783         90
  10.0154        100
  10.0526         81
  10.0897         97
  10.1269         90
  10.1640         73
  10.2012         86
  10.2383        103
  10.2755         84
  10.3126         74
  10.3498         79
  10.3869         88
  10.4241         91
  10.4612         76
  10.4984         87
  10.5355        101
  10.5727         77
  10.6098         76
  10.6470         90
  10.6841         65
  10.7213         83
  10.7584         83
  10.7956        105
  10.8327         67
  10.8699         79
  10.9070         80
  10.9442         93
  10.9813         82
  11.0185         97
  11.0556         90
  11.0928         88
  11.1299        112
  11.1671         81
  11.2043         88
  11.2414         89
  11.2786         63
  11.3157        105
  11.3529         97
  11.3900         84
  11.4272         91
  11.4643         89
  11.5015         90
  11.5386         83
  11.5758         95
  11.6129         91
  11.6501         93
  11.6872         90
  11.7244         85
  11.7615         91
  11.7987         99
  11.8358        102
  11.8730         70
  11.9101         72
  11.9473         79
  11.9844         73
  12.0216         80
  12.0587         89
  12.0959         66
  12.1330         75
  12.1702         72
  12.2073         83
  12.2445         77
  12.2816         83
  12.3188         89
  12.3559         64
  12.3931         83
  12.4302         92
  12.4674         60
  12.5045         86
  12.5417         65
  12.5788         85
  12.6160         91
  12.6531         81
  12.6903         60
  12.7274         74
  12.7646         61
  12.8018         72
  12.8389         82
  12.8761         76
  12.9132         71
  12.9504         79
  12.9875         76
  13.0247         57
  13.0618         83
  13.0990         68
  13.1361         57
  13.1733         51
  13.2104         67
  13.2476         76
  13.2847         63
  13.3219         81
  13.3590         83
  13.3962         71
  13.4333         63
  13.4705         68
  13.5076         63
  13.5448         94
  13.5819         79
  13.6191         67
  13.6562         67
  13.6934         68
  13.7305         61
  13.7677         61
  13.8048         71
  13.8420         88
  13.8791         65
  13.9163         79
  13.9534         68
  13.9906         71
  14.0277         93
  14.0649         61
  14.1020         84
  14.1392         70
  14.1763         85
  14.2135         70
  14.2506         46
  14.2878         64
  14.3250         63
  14.3621         63
  14.3993         70
  14.4364         71
  14.4736         70
  14.5107         57
  14.5479         72
  14.5850         55
  14.6222         52
  14.6593         63
  14.6965         66
  14.7336         72
  14.7708         62
  14.8079         77
  14.8451         52
  14.8822         46
  14.9194         58
  14.9565         56
  14.9937         53
  15.0308         68
  15.0680         51
  15.1051         64
  15.1423         77
  15.1794         49
  15.2166         57
  15.2537         75
  15.2909         52
  15.3280         61
  15.3652         59
  15.4023         66
  15.4395         61
  15.4766         51
  15.5138         59
  15.5509         52
  15.5881         68
  15.6252         58
  15.6624         63
  15.6995         45
  15.7367         50
  15.7738         70
  15.8110         75
  15.8482         64
  15.8853         52
  15.9225         67
  15.9596         57
  15.9968         67
  16.0339         53
  16.0711         46
  16.1082         54
  16.1454         56
  16.1825         72
  16.2197         53
  16.2568         59
  16.2940         61
  16.3311         52
  16.3683         59
  16.4054         60
  16.4426         61
  16.4797         57
  16.5169         53
  16.5540         58
  16.5912         64
  16.6283         62
  16.6655         55
  16.7026         53
  16.7398         51
  16.7769         65
  16.8141         59
  16.8512         74
  16.8884         66
  16.9255         55
  16.9627         50
  16.9998         52
  17.0370         60
  17.0741         63
  17.1113         58
  17.1484         55
  17.1856         72
  17.2227         56
  17.2599         63
  17.2970         56
  17.3342         66
  17.3713         69
  17.4085         77
  17.4457         69
  17.4828         47
  17.5200         54
  17.5571         59
  17.5943         48
  17.6314         64
  17.6686         68
  17.7057         64
  17.7429         59
  17.7800         75
  17.8172         66
  17.8543         51
  17.8915         70
  17.9286         64
  17.9658         65
  18.0029         61
  18.0401         61
  18.0772         61
  18.1144         52
  18.1515         60
  18.1887         50
  18.2258         63
  18.2630         62
  18.3001         61
  18.3373         69
  18.3744         64
  18.4116         55
  18.4487         61
  18.4859         51
  18.5230         63
  18.5602         67
  18.5973         47
  18.6345         54
  18.6716         55
  18.7088         53
  18.7459         81
  18.7831         66
  18.8202         62
  18.8574         51
  18.8945         65
  18.9317         60
  18.9689         74
  19.0060         62
  19.0432         68
  19.0803         72
  19.1175         53
  19.1546         67
  19.1918         62
  19.2289         52
  19.2661         70
  19.3032         79
  19.3404         59
  19.3775         55
  19.4147         61
  19.4518         60
  19.4890         66
  19.5261         61
  19.5633         66
  19.6004         64
  19.6376         73
  19.6747         62
  19.7119         63
  19.7490         62
  19.7862         90
  19.8233         61
  19.8605         60
  19.8976         70
  19.9348         80
  19.9719         79
  20.0091         57
  20.0462         56
  20.0834         66
  20.1205         60
  20.1577         74
  20.1948         74
  20.2320         82
  20.2691         66
  20.3063         64
  20.3434         75
  20.3806         64
  20.4177         63
  20.4549         73
  20.4921         61
  20.5292         71
  20.5664         70
  20.6035         74
  20.6407         73
  20.6778         63
  20.7150         72
  20.7521         81
  20.7893         54
  20.8264         61
  20.8636         77
  20.9007         72
  20.9379         71
  20.9750         78
  21.0122         84
  21.0493         77
  21.0865         84
  21.1236        105
  21.1608         83
  21.1979        101
  21.2351        126
  21.2722        125
  21.3094        111
  21.3465        188
  21.3837        175
  21.4208        124
  21.4580         90
  21.4951         71
  21.5323         79
  21.5694         71
  21.6066         68
  21.6437         76
  21.6809         76
  21.7180         74
  21.7552         64
  21.7923         67
  21.8295         75
  21.8666         69
  21.9038         61
  21.9409         59
  21.9781         66
  22.0152         74
  22.0524         74
  22.0896         83
  22.1267         68
  22.1639         68
  22.2010         78
  22.2382         70
  22.2753         76
  22.3125         70
  22.3496         67
  22.3868         68
  22.4239         72
  22.4611         65
  22.4982         52
  22.5354         57
  22.5725         72
  22.6097         71
  22.6468         66
  22.6840         62
  22.7211         86
  22.7583         83
  22.7954         73
  22.8326         71
  22.8697         75
  22.9069         77
  22.9440         82
  22.9812         87
  23.0183         75
  23.0555         79
  23.0926         73
  23.1298         65
  23.1669         78
  23.2041         92
  23.2412         59
  23.2784         66
  23.3155         73
  23.3527         81
  23.3898         73
  23.4270         79
  23.4641         61
  23.5013         58
  23.5384         63
  23.5756         49
  23.6128         91
  23.6499         84
  23.6871         78
  23.7242         63
  23.7614         72
  23.7985         76
  23.8357         78
  23.8728         79
  23.9100         64
  23.9471         86
  23.9843         87
  24.0214         60
  24.0586         79
  24.0957         81
  24.1329         78
  24.1700         65
  24.2072         78
  24.2443         80
  24.2815         96
  24.3186         83
  24.3558         82
  24.3929         90
  24.4301         75
  24.4672         85
  24.5044         74
  24.5415         64
  24.5787         87
  24.6158         86
  24.6530         86
  24.6901         70
  24.7273         65
  24.7644         62
  24.8016         85
  24.8387         87
  24.8759         67
  24.9130         70
  24.9502         67
  24.9873         61
  25.0245         79
  25.0616         76
  25.0988         79
  25.1360         81
  25.1731         68
  25.2103         69
  25.2474         82
  25.2846         76
  25.3217         77
  25.3589         80
  25.3960         60
  25.4332         70
  25.4703         57
  25.5075         73
  25.5446         68
  25.5818         68
  25.6189         88
  25.6561         72
  25.6932         89
  25.7304         76
  25.7675         72
  25.8047         64
  25.8418         49
  25.8790         73
  25.9161         71
  25.9533         78
  25.9904         80
  26.0276         80
  26.0647         55
  26.1019         69
  26.1390         64
  26.1762         70
  26.2133         71
  26.2505         76
  26.2876         53
  26.3248         62
  26.3619         71
  26.3991         67
  26.4362         72
  26.4734         68
  26.5105         61
  26.5477         81
  26.5848         83
  26.6220         55
  26.6591         60
  26.6963         72
  26.7335         70
  26.7706         65
  26.8078         79
  26.8449         67
  26.8821         77
  26.9192         62
  26.9564         68
  26.9935         69
  27.0307         55
  27.0678         66
  27.1050         57
  27.1421         75
  27.1793         86
  27.2164         93
  27.2536         81
  27.2907         71
  27.3279         81
  27.3650         66
  27.4022         71
  27.4393         55
  27.4765         79
  27.5136         73
  27.5508         67
  27.5879         80
  27.6251         66
  27.6622         66
  27.6994         67
  27.7365         67
  27.7737         68
  27.8108         66
  27.8480         60
  27.8851         70
  27.9223         64
  27.9594         72
  27.9966         70
  28.0337         72
  28.0709         55
  28.1080         58
  28.1452         64
  28.1823         62
  28.2195         63
  28.2567         69
  28.2938         61
  28.3310         64
  28.3681         65
  28.4053         53
  28.4424         64
  28.4796         45
  28.5167         65
  28.5539         66
  28.5910         63
  28.6282         55
  28.6653         57
  28.7025         78
  28.7396         64
  28.7768         55
  28.8139         64
  28.8511         60
  28.8882         68
  28.9254         44
  28.9625         59
  28.9997         56
  29.0368         67
  29.0740         58
  29.1111         51
  29.1483         63
  29.1854         56
  29.2226         60
  29.2597         54
  29.2969         68
  29.3340         56
  29.3712         66
  29.4083         57
  29.4455         67
  29.4826         62
  29.5198         60
  29.5569         50
  29.5941         73
  29.6312         56
  29.6684         62
  29.7055         68
  29.7427         50
  29.7799         59
  29.8170         48
  29.8542         59
  29.8913         43
  29.9285         55
  29.9656         54
  30.0028         52
  30.0399         57
  30.0771         46
  30.1142         47
  30.1514         61
  30.1885         61
  30.2257         61
  30.2628         58
  30.3000         88
  30.3371         86
  30.3743        125
  30.4114         97
  30.4486         82
  30.4857         93
  30.5229         71
  30.5600         49
  30.5972         57
  30.6343         71
  30.6715         47
  30.7086         49
  30.7458         62
  30.7829         61
  30.8201         47
  30.8572         47
  30.8944         59
  30.9315         54
  30.9687         50
  31.0058         44
  31.0430         49
  31.0801         56
  31.1173         43
  31.1544         57
  31.1916         49
  31.2287         57
  31.2659         59
  31.3030         44
  31.3402         49
  31.3774         54
  31.4145         45
  31.4517         48
  31.4888         55
  31.5260         56
  31.5631         59
  31.6003         37
  31.6374         62
  31.6746         63
  31.7117         54
  31.7489         48
  31.7860         47
  31.8232         56
  31.8603         42
  31.8975         61
  31.9346         54
  31.9718         54
  32.0089         46
  32.0461         48
  32.0832         49
  32.1204         46
  32.1575         57
  32.1947         47
  32.2318         48
  32.2690         54
  32.3061         52
  32.3433         58
  32.3804         39
  32.4176         54
  32.4547         42
  32.4919         49
  32.5290         51
  32.5662         60
  32.6033         44
  32.6405         33
  32.6776         47
  32.7148         43
  32.7519         56
  32.7891         56
  32.8262         45
  32.8634         55
  32.9006         43
  32.9377         45
  32.9749         43
  33.0120         51
  33.0492         51
  33.0863         46
  33.1235         60
  33.1606         60
  33.1978         38
  33.2349         40
  33.2721         35
  33.3092         55
  33.3464         50
  33.3835         41
  33.4207         42
  33.4578         32
  33.4950         54
  33.5321         48
  33.5693         52
  33.6064         37
  33.6436         42
  33.6807         28
  33.7179         42
  33.7550         40
  33.7922         38
  33.8293         53
  33.8665         57
  33.9036         35
  33.9408         37
  33.9779         50
  34.0151         41
  34.0522         41
  34.0894         42
  34.1265         46
  34.1637         40
  34.2008         45
  34.2380         51
  34.2751         49
  34.3123         44
  34.3494         44
  34.3866         60
  34.4238         48
  34.4609         34
  34.4981         43
  34.5352         41
  34.5724         29
  34.6095         56
  34.6467         52
  34.6838         48
  34.7210         62
  34.7581         65
  34.7953         46
  34.8324         51
  34.8696         59
  34.9067         41
  34.9439         50
  34.9810         45
  35.0182         43
  35.0553         36
  35.0925         40
  35.1296         41
  35.1668         53
  35.2039         25
  35.2411         35
  35.2782         33
  35.3154         37
  35.3525         43
  35.3897         26
  35.4268         47
  35.4640         47
  35.5011         32
  35.5383         32
  35.5754         33
  35.6126         29
  35.6497         35
  35.6869         34
  35.7240         42
  35.7612         50
  35.7983         32
  35.8355         42
  35.8726         41
  35.9098         35
  35.9469         42
  35.9841         45
  36.0213         34
  36.0584         37
  36.0956         36
  36.1327         26
  36.1699         29
  36.2070         48
  36.2442         40
  36.2813         33
  36.3185         30
  36.3556         29
  36.3928         39
  36.4299         40
  36.4671         39
  36.5042         39
  36.5414         25
  36.5785         26
  36.6157         30
  36.6528         35
  36.6900         43
  36.7271         41
  36.7643         35
  36.8014         29
  36.8386         34
  36.8757         34
  36.9129         37
  36.9500         33
  36.9872         45
  37.0243         26
  37.0615         29
  37.0986         33
  37.1358         35
  37.1729         25
  37.2101         41
  37.2472         33
  37.2844         38
  37.3215         34
  37.3587         40
  37.3958         36
  37.4330         58
  37.4701         43
  37.5073         47
  37.5445         64
  37.5816         34
  37.6188         46
  37.6559         30
  37.6931         39
  37.7302         36
  37.7674         29
  37.8045         27
  37.8417         34
  37.8788         30
  37.9160         26
  37.9531         36
  37.9903         32
  38.0274         28
  38.0646         26
  38.1017         37
  38.1389         36
  38.1760         32
  38.2132         32
  38.2503         24
  38.2875         32
  38.3246         28
  38.3618         26
  38.3989         30
  38.4361         31
  38.4732         33
  38.5104         33
  38.5475         38
  38.5847         34
  38.6218         36
  38.6590         28
  38.6961         28
  38.7333         24
  38.7704         24
  38.8076         35
  38.8447         23
  38.8819         32
  38.9190         40
  38.9562         43
  38.9933         32
  39.0305         40
  39.0677         37
  39.1048         29
  39.1420         29
  39.1791         31
  39.2163         27
  39.2534         18
  39.2906         30
  39.3277         28
  39.3649         30
  39.4020         46
  39.4392         28
  39.4763         29
  39.5135         19
  39.5506         17
  39.5878         23
  39.6249         34
  39.6621         32
  39.6992         38
  39.7364         30
  39.7735         27
  39.8107         24
  39.8478         27
  39.8850         28
  39.9221         33
  39.9593         27
  39.9964         28
  40.0336         20
  40.0707         29
  40.1079         25
  40.1450         26
  40.1822         28
  40.2193         18
  40.2565         36
  40.2936         35
  40.3308         30
  40.3679         32
  40.4051         31
  40.4422         26
  40.4794         27
  40.5165         26
  40.5537         41
  40.5908         28
  40.6280         35
  40.6652         30
  40.7023         23
  40.7395         34
  40.7766         24
  40.8138         26
  40.8509         21
  40.8881         35
  40.9252         25
  40.9624         36
  40.9995         31
  41.0367         29
  41.0738         31
  41.1110         31
  41.1481         27
  41.1853         33
  41.2224         25
  41.2596         22
  41.2967         35
  41.3339         31
  41.3710         25
  41.4082         29
  41.4453         25
  41.4825         32
  41.5196         26
  41.5568         27
  41.5939         34
  41.6311         27
  41.6682         28
  41.7054         30
  41.7425         30
  41.7797         30
  41.8168         37
  41.8540         36
  41.8911         22
  41.9283         26
  41.9654         26
  42.0026         23
  42.0397         29
  42.0769         36
  42.1140         26
  42.1512         23
  42.1884         26
  42.2255         29
  42.2627         31
  42.2998         20
  42.3370         25
  42.3741         24
  42.4113         38
  42.4484         35
  42.4856         35
  42.5227         27
  42.5599         31
  42.5970         28
  42.6342         31
  42.6713         30
  42.7085         24
  42.7456         27
  42.7828         22
  42.8199         28
  42.8571         30
  42.8942         25
  42.9314         27
  42.9685         26
  43.0057         31
  43.0428         37
  43.0800         30
  43.1171         18
  43.1543         23
  43.1914         40
  43.2286         39
  43.2657         40
  43.3029         30
  43.3400         30
  43.3772         32
  43.4143         36
  43.4515         33
  43.4886         42
  43.5258         40
  43.5629         29
  43.6001         38
  43.6372         30
  43.6744         30
  43.7116         30
  43.7487         41
  43.7859         21
  43.8230         34
  43.8602         34
  43.8973         19
  43.9345         26
  43.9716         27
  44.0088         30
  44.0459         32
  44.0831         32
  44.1202         26
  44.1574         31
  44.1945         28
  44.2317         27
  44.2688         25
  44.3060         30
  44.3431         25
  44.3803         30
  44.4174         28
  44.4546         23
  44.4917         26
  44.5289         34
  44.5660         27
  44.6032         31
  44.6403         39
  44.6775         35
  44.7146         22
  44.7518         35
  44.7889         25
  44.8261         33
  44.8632         28
  44.9004         21
  44.9375         21
  44.9747         28
  45.0118         30
  45.0490         27
  45.0861         20
  45.1233         27
  45.1604         25
  45.1976         21
  45.2347         20
  45.2719         24
  45.3091         20
  45.3462         24
  45.3834         31
  45.4205         29
  45.4577         21
  45.4948         19
  45.5320         32
  45.5691         24
  45.6063         25
  45.6434         18
  45.6806         22
  45.7177         16
  45.7549         27
  45.7920         18
  45.8292         24
  45.8663         24
  45.9035         19
  45.9406         26
  45.9778         26
  46.0149         25
  46.0521         18
  46.0892         23
  46.1264         22
  46.1635         21
  46.2007         31
  46.2378         28
  46.2750         31
  46.3121         30
  46.3493         20
  46.3864         24
  46.4236         26
  46.4607         37
  46.4979         19
  46.5350         21
  46.5722         25
  46.6093         29
  46.6465         26
  46.6836         27
  46.7208         22
  46.7579         24
  46.7951         14
  46.8323         22
  46.8694         35
  46.9066         26
  46.9437         23
  46.9809         26
  47.0180         28
  47.0552         28
  47.0923         28
  47.1295         22
  47.1666         21
  47.2038         17
  47.2409         14
  47.2781         19
  47.3152         20
  47.3524         23
  47.3895         25
  47.4267         19
  47.4638         31
  47.5010         24
  47.5381         28
  47.5753         22
  47.6124         21
  47.6496         26
  47.6867         17
  47.7239         22
  47.7610         20
  47.7982         28
  47.8353         22
  47.8725         20
  47.9096         21
  47.9468         21
  47.9839         26
  48.0211         18
  48.0582         24
  48.0954         21
  48.1325         20
  48.1697         17
  48.2068         18
  48.2440         10
  48.2811         28
  48.3183         20
  48.3555         22
  48.3926         19
  48.4298         26
  48.4669         19
  48.5041         22
  48.5412         25
  48.5784         24
  48.6155         17
  48.6527         21
  48.6898         23
  48.7270         30
  48.7641         31
  48.8013         22
  48.8384         28
  48.8756         29
  48.9127         30
  48.9499         47
  48.9870         23
  49.0242         34
  49.0613         24
  49.0985         26
  49.1356         27
  49.1728         22
  49.2099         29
  49.2471         17
  49.2842         22
  49.3214         22
  49.3585         26
  49.3957         30
  49.4328         21
  49.4700         25
  49.5071         16
  49.5443         20
  49.5814         16
  49.6186         25
  49.6557         24
  49.6929         28
  49.7300         30
  49.7672         24
  49.8043         24
  49.8415         25
  49.8786         14
  49.9158         19
  49.9530         18
  49.9901         27
  50.0273         20
  50.0644         20
  50.1016         18
  50.1387         25
  50.1759         27
  50.2130         27
  50.2502         21
  50.2873         28
  50.3245         28
  50.3616         29
  50.3988         19
  50.4359         26
  50.4731         19
  50.5102         22
  50.5474         20
  50.5845         24
  50.6217         18
  50.6588         19
  50.6960         21
  50.7331         35
  50.7703         26
  50.8074         16
  50.8446         18
  50.8817         25
  50.9189         22
  50.9560         24
  50.9932         21
  51.0303         23
  51.0675         21
  51.1046         24
  51.1418         22
  51.1789         24
  51.2161         24
  51.2532         20
  51.2904         20
  51.3275         21
  51.3647         34
  51.4018         24
  51.4390         30
  51.4762         24
  51.5133         22
  51.5505         24
  51.5876         20
  51.6248         30
  51.6619         24
  51.6991         27
  51.7362         26
  51.7734         26
  51.8105         24
  51.8477         17
  51.8848         22
  51.9220         22
  51.9591         27
  51.9963         19
  52.0334         21
  52.0706         24
  52.1077         23
  52.1449         20
  52.1820         21
  52.2192         27
  52.2563         24
  52.2935         17
  52.3306         13
  52.3678         29
  52.4049         24
  52.4421         18
  52.4792         28
  52.5164         19
  52.5535         21
  52.5907         19
  52.6278         21
  52.6650         30
  52.7021         30
  52.7393         20
  52.7764         12
  52.8136         27
  52.8507         23
  52.8879         20
  52.9250         18
  52.9622         23
  52.9994         31
  53.0365         23
  53.0737         24
  53.1108         22
  53.1480         30
  53.1851         32
  53.2223         17
  53.2594         15
  53.2966         17
  53.3337         19
  53.3709         20
  53.4080         16
  53.4452         26
  53.4823         17
  53.5195         11
  53.5566         15
  53.5938         14
  53.6309         19
  53.6681         19
  53.7052         19
  53.7424         22
  53.7795         14
  53.8167         22
  53.8538         26
  53.8910         25
  53.9281         23
  53.9653         33
  54.0024         27
  54.0396         21
  54.0767         16
  54.1139         29
  54.1510         19
  54.1882         19
  54.2253         18
  54.2625         31
  54.2996         20
  54.3368         21
  54.3739         21
  54.4111         24
  54.4482         21
  54.4854         22
  54.5225         31
  54.5597         25
  54.5969         23
  54.6340         22
  54.6712         27
  54.7083         22
  54.7455         18
  54.7826         18
  54.8198         17
  54.8569         23
  54.8941         19
  54.9312         24
  54.9684         18
  55.0055         22
  55.0427         23
  55.0798         22
  55.1170         21
  55.1541         24
  55.1913         18
  55.2284         22
  55.2656         17
  55.3027         18
  55.3399         22
  55.3770         20
  55.4142         17
  55.4513         27
  55.4885         27
  55.5256         15
  55.5628         15
  55.5999         26
  55.6371         23
  55.6742         23
  55.7114         21
  55.7485         22
  55.7857         25
  55.8228         23
  55.8600         16
  55.8971         20
  55.9343         19
  55.9714         23
  56.0086         17
  56.0457         27
  56.0829         17
  56.1201         29
  56.1572         22
  56.1944         28
  56.2315         19
  56.2687         22
  56.3058         18
  56.3430         20
  56.3801         25
  56.4173         25
  56.4544         26
  56.4916         16
  56.5287         25
  56.5659         23
  56.6030         14
  56.6402         31
  56.6773         21
  56.7145         24
  56.7516         21
  56.7888         20
  56.8259         17
  56.8631         25
  56.9002         21
  56.9374         27
  56.9745         18
  57.0117         26
  57.0488         19
  57.0860         19
  57.1231         20
  57.1603         19
  57.1974         11
  57.2346         23
  57.2717         20
  57.3089         23
  57.3460         14
  57.3832         27
  57.4203         19
  57.4575         21
  57.4946         21
  57.5318         28
  57.5689         22
  57.6061         17
  57.6433         17
  57.6804         21
  57.7176         19
  57.7547         24
  57.7919         20
  57.8290         21
  57.8662         25
  57.9033         17
  57.9405         18
  57.9776         27
  58.0148         13
  58.0519         19
  58.0891         11
  58.1262         20
  58.1634         20
  58.2005         19
  58.2377         22
  58.2748         24
  58.3120         23
  58.3491         15
  58.3863         20
  58.4234         21
  58.4606         20
  58.4977         29
  58.5349         19
  58.5720         20
  58.6092         17
  58.6463         20
  58.6835         24
  58.7206         23
  58.7578         24
  58.7949         14
  58.8321         22
  58.8692         23
  58.9064         16
  58.9435         23
  58.9807         19
  59.0178         17
  59.0550         26
  59.0921         23
  59.1293         21
  59.1664         18
  59.2036         22
  59.2408         22
  59.2779         19
  59.3151         15
  59.3522         15
  59.3894         22
  59.4265         19
  59.4637          6
  59.5008         13
  59.5380         20
  59.5751         19
  59.6123         24
  59.6494         21
  59.6866         21
  59.7237         22
  59.7609         18
  59.7980         25
  59.8352         22
  59.8723         19
  59.9095         24
  59.9466         21
  59.9838         22
  60.0024         16