File: notebooks/data/xrd_data/ML_20220718_8_SJD_4_LaB6-2min.csv
;,2THETA,
5.0000,129
5.0372,127
5.0743,123
5.1115,143
5.1486,120
5.1858,131
5.2229,148
5.2601,103
5.2972,112
5.3344,121
5.3715,123
5.4087,113
5.4458,114
5.4830,112
5.5201,94
5.5573,96
5.5944,101
5.6316,121
5.6687,112
5.7059,103
5.7430,99
5.7802,105
5.8173,89
5.8545,127
5.8916,95
5.9288,106
5.9659,111
6.0031,90
6.0402,101
6.0774,104
6.1145,114
6.1517,104
6.1888,82
6.2260,93
6.2631,108
6.3003,99
6.3374,81
6.3746,95
6.4117,75
6.4489,98
6.4860,97
6.5232,84
6.5604,77
6.5975,78
6.6347,84
6.6718,98
6.7090,74
6.7461,97
6.7833,87
6.8204,93
6.8576,85
6.8947,70
6.9319,72
6.9690,85
7.0062,56
7.0433,81
7.0805,87
7.1176,67
7.1548,90
7.1919,78
7.2291,88
7.2662,75
7.3034,81
7.3405,68
7.3777,74
7.4148,87
7.4520,70
7.4891,83
7.5263,90
7.5634,94
7.6006,82
7.6377,83
7.6749,80
7.7120,92
7.7492,77
7.7863,82
7.8235,81
7.8606,83
7.8978,101
7.9349,98
7.9721,88
8.0092,89
8.0464,91
8.0835,95
8.1207,107
8.1579,111
8.1950,103
8.2322,90
8.2693,88
8.3065,96
8.3436,91
8.3808,94
8.4179,97
8.4551,88
8.4922,92
8.5294,93
8.5665,104
8.6037,111
8.6408,102
8.6780,118
8.7151,97
8.7523,94
8.7894,117
8.8266,94
8.8637,109
8.9009,89
8.9380,107
8.9752,87
9.0123,118
9.0495,90
9.0866,92
9.1238,124
9.1609,99
9.1981,108
9.2352,120
9.2724,116
9.3095,115
9.3467,129
9.3838,123
9.4210,118
9.4581,121
9.4953,101
9.5324,102
9.5696,119
9.6067,112
9.6439,124
9.6811,125
9.7182,106
9.7554,121
9.7925,98
9.8297,138
9.8668,122
9.9040,111
9.9411,109
9.9783,119
10.0154,137
10.0526,119
10.0897,143
10.1269,110
10.1640,111
10.2012,120
10.2383,122
10.2755,145
10.3126,119
10.3498,99
10.3869,126
10.4241,98
10.4612,119
10.4984,113
10.5355,123
10.5727,109
10.6098,125
10.6470,129
10.6841,120
10.7213,129
10.7584,108
10.7956,113
10.8327,98
10.8699,139
10.9070,109
10.9442,132
10.9813,124
11.0185,121
11.0556,114
11.0928,112
11.1299,131
11.1671,112
11.2043,125
11.2414,131
11.2786,116
11.3157,105
11.3529,124
11.3900,127
11.4272,102
11.4643,111
11.5015,125
11.5386,126
11.5758,139
11.6129,121
11.6501,101
11.6872,135
11.7244,124
11.7615,110
11.7987,127
11.8358,123
11.8730,103
11.9101,132
11.9473,106
11.9844,103
12.0216,106
12.0587,120
12.0959,139
12.1330,110
12.1702,122
12.2073,110
12.2445,94
12.2816,123
12.3188,119
12.3559,89
12.3931,119
12.4302,121
12.4674,94
12.5045,125
12.5417,103
12.5788,116
12.6160,120
12.6531,99
12.6903,93
12.7274,101
12.7646,111
12.8018,95
12.8389,100
12.8761,105
12.9132,94
12.9504,101
12.9875,91
13.0247,92
13.0618,114
13.0990,95
13.1361,111
13.1733,97
13.2104,118
13.2476,98
13.2847,93
13.3219,97
13.3590,99
13.3962,98
13.4333,100
13.4705,94
13.5076,95
13.5448,108
13.5819,79
13.6191,80
13.6562,94
13.6934,92
13.7305,79
13.7677,94
13.8048,90
13.8420,117
13.8791,109
13.9163,87
13.9534,81
13.9906,102
14.0277,88
14.0649,80
14.1020,111
14.1392,90
14.1763,85
14.2135,103
14.2506,86
14.2878,91
14.3250,77
14.3621,88
14.3993,77
14.4364,74
14.4736,74
14.5107,83
14.5479,71
14.5850,76
14.6222,86
14.6593,88
14.6965,80
14.7336,91
14.7708,89
14.8079,85
14.8451,80
14.8822,78
14.9194,71
14.9565,80
14.9937,92
15.0308,79
15.0680,90
15.1051,86
15.1423,89
15.1794,96
15.2166,73
15.2537,83
15.2909,84
15.3280,72
15.3652,73
15.4023,80
15.4395,73
15.4766,74
15.5138,74
15.5509,90
15.5881,80
15.6252,85
15.6624,90
15.6995,101
15.7367,88
15.7738,104
15.8110,81
15.8482,82
15.8853,88
15.9225,76
15.9596,71
15.9968,74
16.0339,90
16.0711,84
16.1082,88
16.1454,81
16.1825,84
16.2197,77
16.2568,76
16.2940,73
16.3311,92
16.3683,71
16.4054,84
16.4426,108
16.4797,85
16.5169,84
16.5540,80
16.5912,77
16.6283,84
16.6655,76
16.7026,85
16.7398,85
16.7769,85
16.8141,81
16.8512,77
16.8884,76
16.9255,85
16.9627,80
16.9998,94
17.0370,81
17.0741,80
17.1113,84
17.1484,84
17.1856,76
17.2227,76
17.2599,84
17.2970,67
17.3342,77
17.3713,79
17.4085,68
17.4457,94
17.4828,78
17.5200,85
17.5571,82
17.5943,95
17.6314,76
17.6686,79
17.7057,80
17.7429,91
17.7800,91
17.8172,88
17.8543,83
17.8915,89
17.9286,81
17.9658,73
18.0029,84
18.0401,96
18.0772,70
18.1144,83
18.1515,78
18.1887,93
18.2258,99
18.2630,72
18.3001,90
18.3373,95
18.3744,88
18.4116,73
18.4487,81
18.4859,87
18.5230,74
18.5602,80
18.5973,87
18.6345,97
18.6716,81
18.7088,81
18.7459,84
18.7831,85
18.8202,95
18.8574,82
18.8945,102
18.9317,83
18.9689,107
19.0060,84
19.0432,66
19.0803,90
19.1175,92
19.1546,81
19.1918,100
19.2289,97
19.2661,85
19.3032,86
19.3404,89
19.3775,85
19.4147,95
19.4518,75
19.4890,88
19.5261,85
19.5633,89
19.6004,71
19.6376,85
19.6747,84
19.7119,87
19.7490,98
19.7862,81
19.8233,91
19.8605,78
19.8976,94
19.9348,102
19.9719,83
20.0091,95
20.0462,71
20.0834,98
20.1205,84
20.1577,91
20.1948,96
20.2320,85
20.2691,82
20.3063,96
20.3434,83
20.3806,113
20.4177,88
20.4549,84
20.4921,92
20.5292,96
20.5664,97
20.6035,90
20.6407,82
20.6778,99
20.7150,84
20.7521,102
20.7893,82
20.8264,100
20.8636,90
20.9007,104
20.9379,92
20.9750,102
21.0122,99
21.0493,102
21.0865,82
21.1236,94
21.1608,121
21.1979,164
21.2351,144
21.2722,179
21.3094,163
21.3465,246
21.3837,189
21.4208,164
21.4580,123
21.4951,103
21.5323,101
21.5694,105
21.6066,90
21.6437,117
21.6809,97
21.7180,107
21.7552,95
21.7923,88
21.8295,99
21.8666,111
21.9038,88
21.9409,99
21.9781,117
22.0152,97
22.0524,75
22.0896,96
22.1267,96
22.1639,95
22.2010,84
22.2382,82
22.2753,95
22.3125,113
22.3496,104
22.3868,80
22.4239,93
22.4611,83
22.4982,77
22.5354,85
22.5725,93
22.6097,102
22.6468,88
22.6840,93
22.7211,76
22.7583,96
22.7954,95
22.8326,97
22.8697,82
22.9069,110
22.9440,109
22.9812,82
23.0183,85
23.0555,109
23.0926,109
23.1298,107
23.1669,95
23.2041,103
23.2412,113
23.2784,94
23.3155,110
23.3527,101
23.3898,101
23.4270,101
23.4641,95
23.5013,100
23.5384,93
23.5756,109
23.6128,104
23.6499,92
23.6871,99
23.7242,115
23.7614,91
23.7985,87
23.8357,90
23.8728,102
23.9100,87
23.9471,89
23.9843,119
24.0214,111
24.0586,114
24.0957,110
24.1329,100
24.1700,111
24.2072,98
24.2443,103
24.2815,109
24.3186,110
24.3558,101
24.3929,110
24.4301,96
24.4672,93
24.5044,107
24.5415,90
24.5787,111
24.6158,93
24.6530,89
24.6901,115
24.7273,95
24.7644,102
24.8016,114
24.8387,83
24.8759,104
24.9130,99
24.9502,117
24.9873,106
25.0245,97
25.0616,95
25.0988,88
25.1360,88
25.1731,102
25.2103,114
25.2474,97
25.2846,90
25.3217,84
25.3589,90
25.3960,93
25.4332,98
25.4703,98
25.5075,77
25.5446,96
25.5818,83
25.6189,101
25.6561,96
25.6932,125
25.7304,93
25.7675,104
25.8047,103
25.8418,97
25.8790,93
25.9161,111
25.9533,83
25.9904,87
26.0276,105
26.0647,85
26.1019,111
26.1390,97
26.1762,74
26.2133,100
26.2505,96
26.2876,94
26.3248,93
26.3619,83
26.3991,81
26.4362,108
26.4734,94
26.5105,109
26.5477,87
26.5848,95
26.6220,91
26.6591,88
26.6963,81
26.7335,82
26.7706,111
26.8078,97
26.8449,88
26.8821,86
26.9192,111
26.9564,89
26.9935,97
27.0307,85
27.0678,102
27.1050,108
27.1421,96
27.1793,109
27.2164,110
27.2536,117
27.2907,85
27.3279,93
27.3650,90
27.4022,86
27.4393,78
27.4765,76
27.5136,86
27.5508,90
27.5879,87
27.6251,94
27.6622,85
27.6994,82
27.7365,103
27.7737,95
27.8108,74
27.8480,88
27.8851,88
27.9223,91
27.9594,82
27.9966,95
28.0337,78
28.0709,87
28.1080,85
28.1452,78
28.1823,72
28.2195,90
28.2567,91
28.2938,77
28.3310,90
28.3681,77
28.4053,77
28.4424,95
28.4796,104
28.5167,79
28.5539,75
28.5910,87
28.6282,96
28.6653,102
28.7025,84
28.7396,68
28.7768,86
28.8139,90
28.8511,87
28.8882,72
28.9254,72
28.9625,88
28.9997,86
29.0368,80
29.0740,85
29.1111,65
29.1483,90
29.1854,76
29.2226,76
29.2597,70
29.2969,81
29.3340,80
29.3712,80
29.4083,87
29.4455,72
29.4826,78
29.5198,99
29.5569,87
29.5941,75
29.6312,81
29.6684,89
29.7055,73
29.7427,83
29.7799,84
29.8170,72
29.8542,74
29.8913,82
29.9285,79
29.9656,71
30.0028,83
30.0399,58
30.0771,75
30.1142,89
30.1514,81
30.1885,82
30.2257,63
30.2628,82
30.3000,88
30.3371,108
30.3743,166
30.4114,140
30.4486,135
30.4857,125
30.5229,84
30.5600,80
30.5972,84
30.6343,65
30.6715,69
30.7086,64
30.7458,73
30.7829,75
30.8201,73
30.8572,74
30.8944,76
30.9315,63
30.9687,55
31.0058,70
31.0430,76
31.0801,75
31.1173,79
31.1544,59
31.1916,69
31.2287,55
31.2659,67
31.3030,67
31.3402,69
31.3774,70
31.4145,82
31.4517,76
31.4888,65
31.5260,58
31.5631,78
31.6003,64
31.6374,71
31.6746,63
31.7117,71
31.7489,81
31.7860,69
31.8232,69
31.8603,60
31.8975,62
31.9346,62
31.9718,69
32.0089,67
32.0461,79
32.0832,71
32.1204,51
32.1575,66
32.1947,63
32.2318,73
32.2690,69
32.3061,67
32.3433,64
32.3804,74
32.4176,62
32.4547,67
32.4919,92
32.5290,64
32.5662,64
32.6033,65
32.6405,79
32.6776,54
32.7148,60
32.7519,64
32.7891,69
32.8262,55
32.8634,51
32.9006,66
32.9377,77
32.9749,59
33.0120,49
33.0492,54
33.0863,51
33.1235,62
33.1606,67
33.1978,69
33.2349,67
33.2721,64
33.3092,72
33.3464,63
33.3835,56
33.4207,65
33.4578,73
33.4950,56
33.5321,71
33.5693,45
33.6064,50
33.6436,53
33.6807,52
33.7179,53
33.7550,61
33.7922,63
33.8293,68
33.8665,55
33.9036,54
33.9408,44
33.9779,50
34.0151,52
34.0522,58
34.0894,58
34.1265,55
34.1637,50
34.2008,57
34.2380,61
34.2751,62
34.3123,60
34.3494,64
34.3866,44
34.4238,47
34.4609,41
34.4981,64
34.5352,57
34.5724,63
34.6095,66
34.6467,53
34.6838,61
34.7210,73
34.7581,71
34.7953,84
34.8324,82
34.8696,69
34.9067,65
34.9439,41
34.9810,43
35.0182,56
35.0553,64
35.0925,42
35.1296,59
35.1668,41
35.2039,55
35.2411,49
35.2782,52
35.3154,52
35.3525,48
35.3897,47
35.4268,54
35.4640,41
35.5011,48
35.5383,50
35.5754,49
35.6126,35
35.6497,62
35.6869,50
35.7240,43
35.7612,42
35.7983,63
35.8355,50
35.8726,48
35.9098,51
35.9469,42
35.9841,45
36.0213,53
36.0584,59
36.0956,50
36.1327,57
36.1699,45
36.2070,48
36.2442,50
36.2813,56
36.3185,53
36.3556,44
36.3928,47
36.4299,35
36.4671,59
36.5042,39
36.5414,43
36.5785,40
36.6157,40
36.6528,54
36.6900,39
36.7271,45
36.7643,45
36.8014,46
36.8386,49
36.8757,44
36.9129,33
36.9500,47
36.9872,34
37.0243,49
37.0615,45
37.0986,30
37.1358,39
37.1729,42
37.2101,46
37.2472,46
37.2844,54
37.3215,55
37.3587,46
37.3958,40
37.4330,66
37.4701,66
37.5073,70
37.5445,72
37.5816,45
37.6188,40
37.6559,45
37.6931,36
37.7302,51
37.7674,40
37.8045,47
37.8417,46
37.8788,36
37.9160,45
37.9531,45
37.9903,37
38.0274,37
38.0646,35
38.1017,48
38.1389,39
38.1760,43
38.2132,34
38.2503,44
38.2875,38
38.3246,37
38.3618,42
38.3989,42
38.4361,42
38.4732,40
38.5104,37
38.5475,43
38.5847,38
38.6218,33
38.6590,55
38.6961,37
38.7333,46
38.7704,48
38.8076,44
38.8447,31
38.8819,42
38.9190,51
38.9562,41
38.9933,46
39.0305,35
39.0677,30
39.1048,34
39.1420,49
39.1791,25
39.2163,35
39.2534,34
39.2906,37
39.3277,36
39.3649,50
39.4020,42
39.4392,44
39.4763,34
39.5135,50
39.5506,48
39.5878,38
39.6249,40
39.6621,42
39.6992,41
39.7364,40
39.7735,36
39.8107,33
39.8478,32
39.8850,44
39.9221,44
39.9593,36
39.9964,41
40.0336,30
40.0707,39
40.1079,33
40.1450,42
40.1822,37
40.2193,32
40.2565,40
40.2936,41
40.3308,31
40.3679,46
40.4051,30
40.4422,41
40.4794,41
40.5165,43
40.5537,30
40.5908,47
40.6280,42
40.6652,33
40.7023,29
40.7395,54
40.7766,34
40.8138,31
40.8509,38
40.8881,43
40.9252,42
40.9624,37
40.9995,41
41.0367,37
41.0738,47
41.1110,31
41.1481,39
41.1853,40
41.2224,43
41.2596,31
41.2967,39
41.3339,35
41.3710,29
41.4082,41
41.4453,39
41.4825,34
41.5196,39
41.5568,41
41.5939,32
41.6311,35
41.6682,28
41.7054,37
41.7425,44
41.7797,39
41.8168,37
41.8540,32
41.8911,37
41.9283,36
41.9654,40
42.0026,49
42.0397,45
42.0769,40
42.1140,37
42.1512,38
42.1884,38
42.2255,40
42.2627,33
42.2998,46
42.3370,45
42.3741,27
42.4113,48
42.4484,31
42.4856,38
42.5227,30
42.5599,26
42.5970,37
42.6342,40
42.6713,42
42.7085,39
42.7456,36
42.7828,41
42.8199,42
42.8571,42
42.8942,44
42.9314,25
42.9685,37
43.0057,33
43.0428,28
43.0800,40
43.1171,42
43.1543,44
43.1914,39
43.2286,44
43.2657,36
43.3029,46
43.3400,33
43.3772,56
43.4143,39
43.4515,54
43.4886,53
43.5258,61
43.5629,57
43.6001,51
43.6372,45
43.6744,38
43.7116,40
43.7487,44
43.7859,35
43.8230,29
43.8602,35
43.8973,33
43.9345,34
43.9716,39
44.0088,32
44.0459,35
44.0831,36
44.1202,33
44.1574,38
44.1945,37
44.2317,42
44.2688,38
44.3060,35
44.3431,26
44.3803,36
44.4174,46
44.4546,46
44.4917,39
44.5289,32
44.5660,33
44.6032,31
44.6403,38
44.6775,53
44.7146,42
44.7518,44
44.7889,39
44.8261,45
44.8632,43
44.9004,34
44.9375,35
44.9747,30
45.0118,40
45.0490,36
45.0861,33
45.1233,28
45.1604,39
45.1976,35
45.2347,28
45.2719,36
45.3091,31
45.3462,44
45.3834,43
45.4205,31
45.4577,37
45.4948,31
45.5320,31
45.5691,38
45.6063,25
45.6434,33
45.6806,28
45.7177,34
45.7549,32
45.7920,33
45.8292,40
45.8663,27
45.9035,38
45.9406,35
45.9778,30
46.0149,31
46.0521,40
46.0892,33
46.1264,39
46.1635,37
46.2007,38
46.2378,22
46.2750,37
46.3121,26
46.3493,27
46.3864,22
46.4236,29
46.4607,36
46.4979,30
46.5350,31
46.5722,33
46.6093,35
46.6465,26
46.6836,41
46.7208,30
46.7579,36
46.7951,38
46.8323,38
46.8694,32
46.9066,18
46.9437,32
46.9809,38
47.0180,22
47.0552,32
47.0923,36
47.1295,35
47.1666,32
47.2038,36
47.2409,28
47.2781,29
47.3152,23
47.3524,23
47.3895,30
47.4267,35
47.4638,39
47.5010,36
47.5381,30
47.5753,28
47.6124,32
47.6496,29
47.6867,37
47.7239,33
47.7610,28
47.7982,28
47.8353,36
47.8725,32
47.9096,24
47.9468,40
47.9839,33
48.0211,41
48.0582,35
48.0954,33
48.1325,36
48.1697,33
48.2068,33
48.2440,31
48.2811,29
48.3183,26
48.3555,42
48.3926,19
48.4298,42
48.4669,26
48.5041,22
48.5412,33
48.5784,37
48.6155,25
48.6527,34
48.6898,39
48.7270,39
48.7641,42
48.8013,32
48.8384,32
48.8756,26
48.9127,46
48.9499,67
48.9870,53
49.0242,43
49.0613,55
49.0985,61
49.1356,40
49.1728,33
49.2099,19
49.2471,25
49.2842,30
49.3214,40
49.3585,30
49.3957,20
49.4328,32
49.4700,32
49.5071,38
49.5443,32
49.5814,24
49.6186,28
49.6557,36
49.6929,26
49.7300,34
49.7672,30
49.8043,28
49.8415,33
49.8786,29
49.9158,35
49.9530,23
49.9901,22
50.0273,39
50.0644,35
50.1016,31
50.1387,34
50.1759,29
50.2130,27
50.2502,28
50.2873,33
50.3245,30
50.3616,27
50.3988,28
50.4359,29
50.4731,30
50.5102,22
50.5474,34
50.5845,32
50.6217,31
50.6588,27
50.6960,32
50.7331,25
50.7703,24
50.8074,33
50.8446,33
50.8817,36
50.9189,27
50.9560,30
50.9932,35
51.0303,30
51.0675,28
51.1046,27
51.1418,24
51.1789,29
51.2161,35
51.2532,29
51.2904,30
51.3275,28
51.3647,33
51.4018,35
51.4390,35
51.4762,33
51.5133,30
51.5505,46
51.5876,46
51.6248,28
51.6619,22
51.6991,19
51.7362,39
51.7734,25
51.8105,38
51.8477,29
51.8848,38
51.9220,38
51.9591,37
51.9963,28
52.0334,33
52.0706,30
52.1077,31
52.1449,28
52.1820,26
52.2192,34
52.2563,29
52.2935,28
52.3306,27
52.3678,24
52.4049,31
52.4421,29
52.4792,37
52.5164,28
52.5535,29
52.5907,26
52.6278,30
52.6650,31
52.7021,29
52.7393,25
52.7764,30
52.8136,29
52.8507,32
52.8879,36
52.9250,17
52.9622,23
52.9994,34
53.0365,29
53.0737,16
53.1108,29
53.1480,26
53.1851,29
53.2223,31
53.2594,29
53.2966,25
53.3337,27
53.3709,36
53.4080,21
53.4452,24
53.4823,34
53.5195,31
53.5566,22
53.5938,27
53.6309,28
53.6681,24
53.7052,37
53.7424,27
53.7795,30
53.8167,29
53.8538,35
53.8910,35
53.9281,25
53.9653,34
54.0024,35
54.0396,40
54.0767,29
54.1139,33
54.1510,32
54.1882,42
54.2253,28
54.2625,36
54.2996,32
54.3368,22
54.3739,34
54.4111,23
54.4482,28
54.4854,27
54.5225,29
54.5597,30
54.5969,30
54.6340,37
54.6712,28
54.7083,21
54.7455,26
54.7826,26
54.8198,22
54.8569,23
54.8941,24
54.9312,26
54.9684,32
55.0055,29
55.0427,33
55.0798,35
55.1170,30
55.1541,23
55.1913,33
55.2284,25
55.2656,30
55.3027,21
55.3399,21
55.3770,30
55.4142,31
55.4513,25
55.4885,33
55.5256,27
55.5628,22
55.5999,20
55.6371,37
55.6742,29
55.7114,32
55.7485,21
55.7857,28
55.8228,30
55.8600,28
55.8971,23
55.9343,30
55.9714,29
56.0086,27
56.0457,50
56.0829,26
56.1201,25
56.1572,31
56.1944,39
56.2315,33
56.2687,25
56.3058,33
56.3430,37
56.3801,23
56.4173,28
56.4544,31
56.4916,28
56.5287,26
56.5659,27
56.6030,16
56.6402,26
56.6773,20
56.7145,24
56.7516,21
56.7888,38
56.8259,26
56.8631,27
56.9002,22
56.9374,29
56.9745,23
57.0117,25
57.0488,23
57.0860,26
57.1231,34
57.1603,34
57.1974,31
57.2346,29
57.2717,22
57.3089,29
57.3460,30
57.3832,27
57.4203,34
57.4575,20
57.4946,16
57.5318,29
57.5689,28
57.6061,26
57.6433,20
57.6804,31
57.7176,24
57.7547,27
57.7919,22
57.8290,21
57.8662,35
57.9033,37
57.9405,26
57.9776,21
58.0148,30
58.0519,33
58.0891,32
58.1262,34
58.1634,27
58.2005,19
58.2377,30
58.2748,28
58.3120,24
58.3491,29
58.3863,27
58.4234,32
58.4606,21
58.4977,30
58.5349,36
58.5720,25
58.6092,31
58.6463,31
58.6835,30
58.7206,24
58.7578,23
58.7949,25
58.8321,24
58.8692,35
58.9064,24
58.9435,29
58.9807,29
59.0178,31
59.0550,33
59.0921,23
59.1293,36
59.1664,32
59.2036,23
59.2408,26
59.2779,38
59.3151,22
59.3522,33
59.3894,36
59.4265,31
59.4637,17
59.5008,37
59.5380,28
59.5751,23
59.6123,26
59.6494,31
59.6866,25
59.7237,23
59.7609,41
59.7980,27
59.8352,27
59.8723,26
59.9095,21
59.9466,26
59.9838,24
60.0024,24