File: notebooks/data/xrd_data/ML_20220718_41_SJD_4_LaB6-2min.uxd
; (content of file Y:\Sam\Apurva-07-20-2022\puck4\ML_20220718_41_SJD_4_LaB6-2min.raw)
_FILEVERSION = 3
_SAMPLE = ML_20220718_41_SJD_4_LaB6-2min
_+SAMPLE =
_SITE = USA
_USER = Administrator
_GONIOMETER_CODE = 20
; Goniometer : D8 theta/2theta, stage : Unknown
_ATTACHMENTS_CODE = 0
_GONIOMETER_RADIUS = 200.5
_FIXED_DIVSLIT = 0.6
_FIXED_SAMPLESLIT = 0
_SOLLER_SLITS = 2
_FIXED_DETSLIT = 9.55
_MONOCHROMATOR = 0
; Incident beam monochromator : None
_SOLLER_SLITS_2 = N
_THIN_FILM = N
_BETA_FILTER = Y
_FIXED_ANTISLIT = 5.89
_ANALYZER_CODE = 0
; Received beam analyzer : None
_DATEMEASURED = "26-Jul-2022 12:06:07"
_WL_UNIT = A
_WL1 = 1.5406
_WL2 = 1.54439
_WL3 = 1.39222
_WLRATIO = 0.5
_ANODE = Cu
_V4_INF_CREATOR = XRDWizard
_V4_INF_CREATOR_VERSION = V2.9.0.22
_V4_INF_WIZARD_VERSION = V2.9.0.22
_V4_INF_WIZARD_ADDINS = V2.9.0.22
_V4_INF_WIZARD_DOCTYPE = XRD
_V4_INF_OSUSER = McQueenLab
_V4_INF_USER = Administrator
_V4_INF_SITE = USA
_V4_INF_SAMPLEID = ML_20220718_41_SJD_4_LaB6-2min

; Data for range 1
_DRIVE = COUPLED
_STEPTIME = 5.64
_STEPSIZE = 0.0185756
_STEPMODE = C
_START = 5
_THETA = 2.5
_2THETA = 5
_KHI = 0
_PHI = 0
_X = 0
_Y = 0
_Z = 0
_DETECTOR = 5
; Detector type : Unknown
_DETECTORSLIT = unkn
_AUX1 = 0
_AUX2 = 0
_AUX3 = 0
_TIMESTARTED = 15
_TEMP_RATE = -1
_TEMP_DELAY = -1
_KV = 40
_MA = 40
_RANGE_WL = 1.5406
_3DPLANE = 0
_V4_ADDITIONALDETECTOR = 257
_V4_PSD2THETA = 3.3706
_V4_PSDCHANNEL1 = 0
_V4_PSDAPERTURE = 12.68
_V4_PSDTYPE = 5
_V4_PSDFIXED = 0
_V4_COUNTERS_MASK = 4096
_V4_DRIVES_MASK = 0
_V4_ENCODERS_MASK = 0
_2THETACOUNTS = 1
; 2THETA  PSD
   5.0000        126
   5.0372        113
   5.0743        127
   5.1115        125
   5.1486        120
   5.1858        117
   5.2229        129
   5.2601        126
   5.2972        125
   5.3344        120
   5.3715        120
   5.4087        128
   5.4458        114
   5.4830        111
   5.5201        106
   5.5573        115
   5.5944        104
   5.6316         95
   5.6687        113
   5.7059        104
   5.7430        102
   5.7802        110
   5.8173        102
   5.8545        120
   5.8916         91
   5.9288        123
   5.9659        107
   6.0031        103
   6.0402        103
   6.0774         88
   6.1145         98
   6.1517         95
   6.1888         97
   6.2260         87
   6.2631        107
   6.3003         99
   6.3374         90
   6.3746         84
   6.4117         91
   6.4489         85
   6.4860         77
   6.5232         92
   6.5604         76
   6.5975         98
   6.6347         75
   6.6718         92
   6.7090        105
   6.7461         84
   6.7833         86
   6.8204         79
   6.8576         75
   6.8947         81
   6.9319         76
   6.9690         82
   7.0062         67
   7.0433         97
   7.0805         83
   7.1176         70
   7.1548         73
   7.1919         77
   7.2291         82
   7.2662         70
   7.3034         74
   7.3405         80
   7.3777         75
   7.4148         77
   7.4520         94
   7.4891         89
   7.5263         95
   7.5634         85
   7.6006         82
   7.6377         82
   7.6749         74
   7.7120         76
   7.7492         78
   7.7863         73
   7.8235         84
   7.8606         77
   7.8978         95
   7.9349         95
   7.9721        104
   8.0092         93
   8.0464         88
   8.0835         95
   8.1207         91
   8.1579         96
   8.1950         98
   8.2322         97
   8.2693        102
   8.3065         75
   8.3436        108
   8.3808         96
   8.4179         92
   8.4551        116
   8.4922         87
   8.5294         92
   8.5665        117
   8.6037         97
   8.6408         87
   8.6780         94
   8.7151        103
   8.7523         93
   8.7894         93
   8.8266        128
   8.8637        105
   8.9009         97
   8.9380        110
   8.9752         96
   9.0123         90
   9.0495        116
   9.0866        114
   9.1238        106
   9.1609        102
   9.1981         87
   9.2352        116
   9.2724        119
   9.3095         95
   9.3467        114
   9.3838        110
   9.4210        122
   9.4581        121
   9.4953        108
   9.5324        115
   9.5696        114
   9.6067        108
   9.6439        112
   9.6811        102
   9.7182        131
   9.7554        114
   9.7925        127
   9.8297        140
   9.8668        131
   9.9040        107
   9.9411        118
   9.9783        109
  10.0154        123
  10.0526        114
  10.0897        110
  10.1269        117
  10.1640        105
  10.2012        121
  10.2383        137
  10.2755        139
  10.3126        126
  10.3498        125
  10.3869        131
  10.4241        108
  10.4612        111
  10.4984        127
  10.5355        115
  10.5727        130
  10.6098        121
  10.6470        140
  10.6841        111
  10.7213        125
  10.7584        131
  10.7956        121
  10.8327        122
  10.8699        110
  10.9070        119
  10.9442         79
  10.9813        104
  11.0185        116
  11.0556        112
  11.0928        102
  11.1299        124
  11.1671        133
  11.2043        113
  11.2414        117
  11.2786        120
  11.3157        143
  11.3529        132
  11.3900        114
  11.4272        109
  11.4643        115
  11.5015        112
  11.5386        117
  11.5758        109
  11.6129         99
  11.6501        119
  11.6872        121
  11.7244        115
  11.7615        113
  11.7987        128
  11.8358        128
  11.8730        110
  11.9101        115
  11.9473        126
  11.9844        134
  12.0216        113
  12.0587        101
  12.0959        118
  12.1330         99
  12.1702        111
  12.2073        106
  12.2445        107
  12.2816         99
  12.3188        118
  12.3559        110
  12.3931        109
  12.4302        103
  12.4674        117
  12.5045        117
  12.5417        119
  12.5788        113
  12.6160        102
  12.6531        110
  12.6903         98
  12.7274        103
  12.7646        103
  12.8018         91
  12.8389         95
  12.8761        112
  12.9132        107
  12.9504        108
  12.9875        106
  13.0247        101
  13.0618        100
  13.0990        111
  13.1361        105
  13.1733        103
  13.2104         93
  13.2476         88
  13.2847        104
  13.3219         92
  13.3590         96
  13.3962        108
  13.4333         92
  13.4705        106
  13.5076         90
  13.5448         87
  13.5819         97
  13.6191         73
  13.6562         96
  13.6934         90
  13.7305         98
  13.7677         97
  13.8048        102
  13.8420         86
  13.8791         68
  13.9163         92
  13.9534         86
  13.9906         96
  14.0277        107
  14.0649         85
  14.1020         96
  14.1392        114
  14.1763         95
  14.2135         92
  14.2506         82
  14.2878         85
  14.3250         94
  14.3621         94
  14.3993         77
  14.4364         75
  14.4736         97
  14.5107         85
  14.5479         70
  14.5850         84
  14.6222         88
  14.6593         90
  14.6965         80
  14.7336         89
  14.7708         79
  14.8079         84
  14.8451         87
  14.8822         81
  14.9194         88
  14.9565         79
  14.9937         73
  15.0308         91
  15.0680         88
  15.1051         99
  15.1423         89
  15.1794         69
  15.2166         83
  15.2537         80
  15.2909         68
  15.3280         74
  15.3652         64
  15.4023         79
  15.4395         83
  15.4766         91
  15.5138         92
  15.5509         71
  15.5881         78
  15.6252         89
  15.6624         79
  15.6995         94
  15.7367         89
  15.7738         74
  15.8110         71
  15.8482         80
  15.8853         65
  15.9225         93
  15.9596         91
  15.9968         87
  16.0339         89
  16.0711         78
  16.1082         76
  16.1454         85
  16.1825         92
  16.2197         79
  16.2568         93
  16.2940         89
  16.3311         83
  16.3683         67
  16.4054         85
  16.4426         74
  16.4797         86
  16.5169         73
  16.5540         80
  16.5912         82
  16.6283         82
  16.6655         84
  16.7026         78
  16.7398         77
  16.7769         79
  16.8141         73
  16.8512         81
  16.8884         94
  16.9255         77
  16.9627         83
  16.9998         94
  17.0370         88
  17.0741         94
  17.1113         79
  17.1484         79
  17.1856         78
  17.2227         77
  17.2599         78
  17.2970         82
  17.3342         94
  17.3713         71
  17.4085         71
  17.4457         81
  17.4828         67
  17.5200         84
  17.5571         64
  17.5943         77
  17.6314         90
  17.6686         69
  17.7057         69
  17.7429         70
  17.7800         76
  17.8172         78
  17.8543         88
  17.8915         72
  17.9286         66
  17.9658         66
  18.0029         81
  18.0401         89
  18.0772         79
  18.1144         87
  18.1515         80
  18.1887         78
  18.2258         97
  18.2630         83
  18.3001         79
  18.3373         67
  18.3744         97
  18.4116         90
  18.4487         74
  18.4859         81
  18.5230         88
  18.5602         95
  18.5973         61
  18.6345         93
  18.6716         76
  18.7088         82
  18.7459         67
  18.7831         91
  18.8202         90
  18.8574         85
  18.8945         59
  18.9317        100
  18.9689         72
  19.0060         98
  19.0432         86
  19.0803         98
  19.1175         82
  19.1546         98
  19.1918        108
  19.2289         94
  19.2661         75
  19.3032         90
  19.3404         79
  19.3775         93
  19.4147         90
  19.4518         89
  19.4890         84
  19.5261         93
  19.5633         85
  19.6004         90
  19.6376         84
  19.6747         82
  19.7119         89
  19.7490         88
  19.7862         89
  19.8233         85
  19.8605         98
  19.8976         99
  19.9348        100
  19.9719        102
  20.0091         94
  20.0462         96
  20.0834         98
  20.1205         83
  20.1577         92
  20.1948        101
  20.2320         96
  20.2691         91
  20.3063         90
  20.3434         87
  20.3806         95
  20.4177         92
  20.4549         98
  20.4921        112
  20.5292         89
  20.5664         81
  20.6035        111
  20.6407         93
  20.6778         99
  20.7150        114
  20.7521         94
  20.7893         80
  20.8264        107
  20.8636         81
  20.9007         86
  20.9379         91
  20.9750         99
  21.0122        108
  21.0493         95
  21.0865        105
  21.1236        104
  21.1608        118
  21.1979        131
  21.2351        151
  21.2722        167
  21.3094        162
  21.3465        250
  21.3837        218
  21.4208        195
  21.4580        128
  21.4951        106
  21.5323         91
  21.5694        106
  21.6066         89
  21.6437         99
  21.6809         88
  21.7180        101
  21.7552         95
  21.7923        107
  21.8295         86
  21.8666         90
  21.9038        110
  21.9409        102
  21.9781        102
  22.0152        105
  22.0524         90
  22.0896        110
  22.1267        101
  22.1639         98
  22.2010         96
  22.2382         94
  22.2753        123
  22.3125         98
  22.3496         95
  22.3868        100
  22.4239         93
  22.4611        102
  22.4982        101
  22.5354        101
  22.5725        106
  22.6097         99
  22.6468        101
  22.6840         93
  22.7211         98
  22.7583        106
  22.7954         88
  22.8326         92
  22.8697         85
  22.9069         92
  22.9440        110
  22.9812         93
  23.0183        114
  23.0555         93
  23.0926         95
  23.1298         97
  23.1669         87
  23.2041        103
  23.2412         87
  23.2784         98
  23.3155         97
  23.3527        122
  23.3898         99
  23.4270        100
  23.4641         91
  23.5013        102
  23.5384         96
  23.5756        101
  23.6128        101
  23.6499        113
  23.6871         98
  23.7242        101
  23.7614        101
  23.7985         89
  23.8357        105
  23.8728         96
  23.9100         83
  23.9471        108
  23.9843         84
  24.0214        115
  24.0586        104
  24.0957         93
  24.1329        100
  24.1700        102
  24.2072         90
  24.2443        114
  24.2815         90
  24.3186        102
  24.3558        124
  24.3929        110
  24.4301         97
  24.4672         98
  24.5044        104
  24.5415        122
  24.5787        102
  24.6158        104
  24.6530        104
  24.6901         94
  24.7273        106
  24.7644        104
  24.8016         93
  24.8387        105
  24.8759         84
  24.9130         97
  24.9502        112
  24.9873        105
  25.0245        102
  25.0616        102
  25.0988         95
  25.1360        115
  25.1731        103
  25.2103         93
  25.2474         95
  25.2846         94
  25.3217         94
  25.3589        100
  25.3960         86
  25.4332        100
  25.4703         92
  25.5075         98
  25.5446        108
  25.5818         95
  25.6189         92
  25.6561         97
  25.6932        102
  25.7304         88
  25.7675        100
  25.8047        116
  25.8418         96
  25.8790        107
  25.9161        100
  25.9533         96
  25.9904         90
  26.0276         93
  26.0647         76
  26.1019        109
  26.1390        104
  26.1762         91
  26.2133         86
  26.2505        105
  26.2876         95
  26.3248        105
  26.3619        108
  26.3991         87
  26.4362         85
  26.4734         95
  26.5105         89
  26.5477         95
  26.5848        104
  26.6220         88
  26.6591         88
  26.6963        111
  26.7335        116
  26.7706         97
  26.8078         84
  26.8449         63
  26.8821         99
  26.9192         84
  26.9564        101
  26.9935         87
  27.0307        102
  27.0678         90
  27.1050         91
  27.1421        101
  27.1793        101
  27.2164        116
  27.2536        141
  27.2907        108
  27.3279         89
  27.3650         96
  27.4022         91
  27.4393         99
  27.4765        100
  27.5136        100
  27.5508         99
  27.5879         96
  27.6251         94
  27.6622         75
  27.6994        102
  27.7365         83
  27.7737         83
  27.8108         90
  27.8480         90
  27.8851         93
  27.9223         97
  27.9594         85
  27.9966         88
  28.0337         98
  28.0709         98
  28.1080         95
  28.1452         90
  28.1823         83
  28.2195        104
  28.2567        101
  28.2938         89
  28.3310         97
  28.3681         75
  28.4053         81
  28.4424         81
  28.4796         79
  28.5167         80
  28.5539         77
  28.5910         76
  28.6282         94
  28.6653         94
  28.7025         78
  28.7396         77
  28.7768         78
  28.8139         88
  28.8511         74
  28.8882         88
  28.9254         96
  28.9625         76
  28.9997         85
  29.0368         80
  29.0740         76
  29.1111         70
  29.1483         72
  29.1854         90
  29.2226         77
  29.2597         88
  29.2969         78
  29.3340         76
  29.3712         78
  29.4083         70
  29.4455         72
  29.4826         97
  29.5198         78
  29.5569         76
  29.5941         87
  29.6312         77
  29.6684         69
  29.7055         83
  29.7427         78
  29.7799         78
  29.8170         90
  29.8542         93
  29.8913         68
  29.9285         84
  29.9656         77
  30.0028         76
  30.0399         73
  30.0771         75
  30.1142         71
  30.1514         79
  30.1885         74
  30.2257         80
  30.2628         73
  30.3000        102
  30.3371        110
  30.3743        136
  30.4114        143
  30.4486        119
  30.4857        103
  30.5229         89
  30.5600         80
  30.5972         84
  30.6343         77
  30.6715         88
  30.7086         80
  30.7458         60
  30.7829         78
  30.8201         70
  30.8572         77
  30.8944         67
  30.9315         59
  30.9687         79
  31.0058         56
  31.0430         65
  31.0801         83
  31.1173         64
  31.1544         86
  31.1916         57
  31.2287         74
  31.2659         64
  31.3030         70
  31.3402         51
  31.3774         59
  31.4145         88
  31.4517         76
  31.4888         69
  31.5260         68
  31.5631         66
  31.6003         64
  31.6374         72
  31.6746         68
  31.7117         62
  31.7489         57
  31.7860         70
  31.8232         59
  31.8603         80
  31.8975         56
  31.9346         63
  31.9718         62
  32.0089         59
  32.0461         79
  32.0832         58
  32.1204         69
  32.1575         68
  32.1947         66
  32.2318         64
  32.2690         72
  32.3061         72
  32.3433         57
  32.3804         62
  32.4176         85
  32.4547         76
  32.4919         87
  32.5290         70
  32.5662         72
  32.6033         54
  32.6405         73
  32.6776         69
  32.7148         60
  32.7519         44
  32.7891         56
  32.8262         64
  32.8634         61
  32.9006         71
  32.9377         51
  32.9749         71
  33.0120         67
  33.0492         53
  33.0863         67
  33.1235         64
  33.1606         51
  33.1978         59
  33.2349         72
  33.2721         62
  33.3092         54
  33.3464         59
  33.3835         58
  33.4207         53
  33.4578         63
  33.4950         69
  33.5321         58
  33.5693         52
  33.6064         53
  33.6436         55
  33.6807         57
  33.7179         49
  33.7550         55
  33.7922         57
  33.8293         59
  33.8665         72
  33.9036         51
  33.9408         61
  33.9779         53
  34.0151         61
  34.0522         59
  34.0894         57
  34.1265         66
  34.1637         47
  34.2008         45
  34.2380         53
  34.2751         50
  34.3123         45
  34.3494         58
  34.3866         60
  34.4238         50
  34.4609         63
  34.4981         63
  34.5352         70
  34.5724         43
  34.6095         67
  34.6467         63
  34.6838         63
  34.7210         72
  34.7581         84
  34.7953         76
  34.8324         74
  34.8696         70
  34.9067         51
  34.9439         66
  34.9810         62
  35.0182         64
  35.0553         45
  35.0925         51
  35.1296         56
  35.1668         72
  35.2039         52
  35.2411         58
  35.2782         42
  35.3154         51
  35.3525         71
  35.3897         46
  35.4268         39
  35.4640         55
  35.5011         61
  35.5383         51
  35.5754         42
  35.6126         44
  35.6497         47
  35.6869         53
  35.7240         44
  35.7612         47
  35.7983         48
  35.8355         50
  35.8726         45
  35.9098         43
  35.9469         50
  35.9841         53
  36.0213         55
  36.0584         59
  36.0956         50
  36.1327         52
  36.1699         45
  36.2070         39
  36.2442         43
  36.2813         55
  36.3185         71
  36.3556         45
  36.3928         51
  36.4299         48
  36.4671         53
  36.5042         49
  36.5414         41
  36.5785         52
  36.6157         36
  36.6528         41
  36.6900         50
  36.7271         37
  36.7643         44
  36.8014         43
  36.8386         49
  36.8757         39
  36.9129         43
  36.9500         45
  36.9872         44
  37.0243         33
  37.0615         37
  37.0986         51
  37.1358         43
  37.1729         53
  37.2101         58
  37.2472         41
  37.2844         42
  37.3215         33
  37.3587         43
  37.3958         56
  37.4330         72
  37.4701         57
  37.5073         60
  37.5445         60
  37.5816         51
  37.6188         44
  37.6559         45
  37.6931         50
  37.7302         39
  37.7674         42
  37.8045         52
  37.8417         46
  37.8788         46
  37.9160         55
  37.9531         36
  37.9903         40
  38.0274         35
  38.0646         31
  38.1017         48
  38.1389         48
  38.1760         46
  38.2132         41
  38.2503         47
  38.2875         43
  38.3246         50
  38.3618         48
  38.3989         45
  38.4361         34
  38.4732         41
  38.5104         53
  38.5475         37
  38.5847         40
  38.6218         43
  38.6590         39
  38.6961         37
  38.7333         52
  38.7704         34
  38.8076         37
  38.8447         40
  38.8819         42
  38.9190         37
  38.9562         53
  38.9933         45
  39.0305         47
  39.0677         35
  39.1048         37
  39.1420         34
  39.1791         46
  39.2163         42
  39.2534         51
  39.2906         47
  39.3277         37
  39.3649         30
  39.4020         36
  39.4392         30
  39.4763         46
  39.5135         32
  39.5506         26
  39.5878         46
  39.6249         39
  39.6621         40
  39.6992         39
  39.7364         44
  39.7735         45
  39.8107         43
  39.8478         41
  39.8850         43
  39.9221         40
  39.9593         44
  39.9964         39
  40.0336         35
  40.0707         25
  40.1079         41
  40.1450         35
  40.1822         44
  40.2193         36
  40.2565         42
  40.2936         34
  40.3308         43
  40.3679         35
  40.4051         32
  40.4422         36
  40.4794         41
  40.5165         33
  40.5537         40
  40.5908         46
  40.6280         39
  40.6652         37
  40.7023         29
  40.7395         41
  40.7766         42
  40.8138         35
  40.8509         41
  40.8881         36
  40.9252         33
  40.9624         46
  40.9995         36
  41.0367         57
  41.0738         43
  41.1110         47
  41.1481         40
  41.1853         41
  41.2224         45
  41.2596         43
  41.2967         36
  41.3339         40
  41.3710         37
  41.4082         39
  41.4453         28
  41.4825         51
  41.5196         42
  41.5568         41
  41.5939         29
  41.6311         34
  41.6682         45
  41.7054         41
  41.7425         29
  41.7797         39
  41.8168         43
  41.8540         43
  41.8911         42
  41.9283         41
  41.9654         40
  42.0026         33
  42.0397         36
  42.0769         39
  42.1140         24
  42.1512         36
  42.1884         33
  42.2255         37
  42.2627         37
  42.2998         36
  42.3370         44
  42.3741         35
  42.4113         46
  42.4484         40
  42.4856         30
  42.5227         42
  42.5599         29
  42.5970         37
  42.6342         36
  42.6713         36
  42.7085         42
  42.7456         39
  42.7828         40
  42.8199         32
  42.8571         29
  42.8942         45
  42.9314         20
  42.9685         41
  43.0057         30
  43.0428         28
  43.0800         32
  43.1171         45
  43.1543         29
  43.1914         36
  43.2286         41
  43.2657         46
  43.3029         44
  43.3400         36
  43.3772         45
  43.4143         31
  43.4515         33
  43.4886         55
  43.5258         75
  43.5629         51
  43.6001         35
  43.6372         44
  43.6744         43
  43.7116         38
  43.7487         35
  43.7859         36
  43.8230         41
  43.8602         43
  43.8973         33
  43.9345         30
  43.9716         23
  44.0088         32
  44.0459         32
  44.0831         45
  44.1202         40
  44.1574         46
  44.1945         38
  44.2317         40
  44.2688         43
  44.3060         32
  44.3431         48
  44.3803         40
  44.4174         34
  44.4546         36
  44.4917         38
  44.5289         44
  44.5660         35
  44.6032         50
  44.6403         41
  44.6775         49
  44.7146         36
  44.7518         35
  44.7889         42
  44.8261         37
  44.8632         30
  44.9004         25
  44.9375         56
  44.9747         36
  45.0118         32
  45.0490         28
  45.0861         37
  45.1233         41
  45.1604         41
  45.1976         33
  45.2347         54
  45.2719         43
  45.3091         32
  45.3462         32
  45.3834         26
  45.4205         41
  45.4577         40
  45.4948         31
  45.5320         41
  45.5691         27
  45.6063         31
  45.6434         29
  45.6806         37
  45.7177         45
  45.7549         28
  45.7920         29
  45.8292         26
  45.8663         37
  45.9035         37
  45.9406         32
  45.9778         37
  46.0149         41
  46.0521         25
  46.0892         34
  46.1264         34
  46.1635         34
  46.2007         40
  46.2378         29
  46.2750         33
  46.3121         30
  46.3493         33
  46.3864         38
  46.4236         28
  46.4607         36
  46.4979         15
  46.5350         39
  46.5722         32
  46.6093         34
  46.6465         29
  46.6836         32
  46.7208         39
  46.7579         34
  46.7951         38
  46.8323         31
  46.8694         30
  46.9066         24
  46.9437         29
  46.9809         26
  47.0180         46
  47.0552         28
  47.0923         27
  47.1295         27
  47.1666         26
  47.2038         37
  47.2409         16
  47.2781         30
  47.3152         24
  47.3524         36
  47.3895         27
  47.4267         38
  47.4638         23
  47.5010         22
  47.5381         27
  47.5753         23
  47.6124         25
  47.6496         37
  47.6867         22
  47.7239         24
  47.7610         26
  47.7982         38
  47.8353         30
  47.8725         25
  47.9096         30
  47.9468         27
  47.9839         27
  48.0211         37
  48.0582         30
  48.0954         33
  48.1325         37
  48.1697         32
  48.2068         35
  48.2440         21
  48.2811         22
  48.3183         29
  48.3555         33
  48.3926         32
  48.4298         34
  48.4669         39
  48.5041         34
  48.5412         42
  48.5784         33
  48.6155         36
  48.6527         19
  48.6898         26
  48.7270         38
  48.7641         26
  48.8013         22
  48.8384         38
  48.8756         35
  48.9127         33
  48.9499         56
  48.9870         56
  49.0242         32
  49.0613         37
  49.0985         37
  49.1356         40
  49.1728         33
  49.2099         34
  49.2471         29
  49.2842         29
  49.3214         37
  49.3585         23
  49.3957         31
  49.4328         34
  49.4700         34
  49.5071         41
  49.5443         35
  49.5814         35
  49.6186         21
  49.6557         31
  49.6929         32
  49.7300         31
  49.7672         26
  49.8043         34
  49.8415         34
  49.8786         38
  49.9158         29
  49.9530         34
  49.9901         38
  50.0273         27
  50.0644         28
  50.1016         14
  50.1387         34
  50.1759         25
  50.2130         35
  50.2502         36
  50.2873         20
  50.3245         35
  50.3616         40
  50.3988         31
  50.4359         35
  50.4731         28
  50.5102         28
  50.5474         26
  50.5845         43
  50.6217         34
  50.6588         21
  50.6960         26
  50.7331         27
  50.7703         38
  50.8074         33
  50.8446         30
  50.8817         20
  50.9189         19
  50.9560         33
  50.9932         25
  51.0303         37
  51.0675         24
  51.1046         28
  51.1418         26
  51.1789         25
  51.2161         38
  51.2532         33
  51.2904         26
  51.3275         28
  51.3647         41
  51.4018         37
  51.4390         30
  51.4762         35
  51.5133         33
  51.5505         19
  51.5876         44
  51.6248         38
  51.6619         18
  51.6991         33
  51.7362         35
  51.7734         36
  51.8105         34
  51.8477         30
  51.8848         26
  51.9220         23
  51.9591         37
  51.9963         29
  52.0334         29
  52.0706         34
  52.1077         37
  52.1449         33
  52.1820         35
  52.2192         30
  52.2563         25
  52.2935         24
  52.3306         21
  52.3678         27
  52.4049         28
  52.4421         23
  52.4792         26
  52.5164         25
  52.5535         34
  52.5907         31
  52.6278         32
  52.6650         26
  52.7021         26
  52.7393         24
  52.7764         28
  52.8136         34
  52.8507         35
  52.8879         18
  52.9250         24
  52.9622         37
  52.9994         44
  53.0365         27
  53.0737         28
  53.1108         36
  53.1480         38
  53.1851         44
  53.2223         26
  53.2594         32
  53.2966         38
  53.3337         28
  53.3709         25
  53.4080         26
  53.4452         31
  53.4823         20
  53.5195         36
  53.5566         32
  53.5938         35
  53.6309         27
  53.6681         35
  53.7052         33
  53.7424         23
  53.7795         29
  53.8167         23
  53.8538         25
  53.8910         28
  53.9281         32
  53.9653         43
  54.0024         40
  54.0396         40
  54.0767         25
  54.1139         32
  54.1510         29
  54.1882         31
  54.2253         27
  54.2625         24
  54.2996         28
  54.3368         32
  54.3739         33
  54.4111         30
  54.4482         22
  54.4854         19
  54.5225         29
  54.5597         25
  54.5969         34
  54.6340         32
  54.6712         23
  54.7083         30
  54.7455         27
  54.7826         25
  54.8198         28
  54.8569         36
  54.8941         20
  54.9312         26
  54.9684         29
  55.0055         27
  55.0427         32
  55.0798         34
  55.1170         24
  55.1541         30
  55.1913         21
  55.2284         27
  55.2656         23
  55.3027         29
  55.3399         23
  55.3770         29
  55.4142         20
  55.4513         30
  55.4885         25
  55.5256         25
  55.5628         24
  55.5999         26
  55.6371         19
  55.6742         31
  55.7114         26
  55.7485         38
  55.7857         22
  55.8228         26
  55.8600         25
  55.8971         33
  55.9343         28
  55.9714         26
  56.0086         38
  56.0457         41
  56.0829         29
  56.1201         32
  56.1572         27
  56.1944         35
  56.2315         29
  56.2687         22
  56.3058         29
  56.3430         31
  56.3801         26
  56.4173         24
  56.4544         33
  56.4916         27
  56.5287         28
  56.5659         28
  56.6030         26
  56.6402         38
  56.6773         31
  56.7145         27
  56.7516         26
  56.7888         32
  56.8259         35
  56.8631         21
  56.9002         32
  56.9374         26
  56.9745         19
  57.0117         23
  57.0488         30
  57.0860         31
  57.1231         27
  57.1603         39
  57.1974         28
  57.2346         32
  57.2717         26
  57.3089         18
  57.3460         26
  57.3832         29
  57.4203         27
  57.4575         19
  57.4946         27
  57.5318         30
  57.5689         33
  57.6061         25
  57.6433         25
  57.6804         37
  57.7176         26
  57.7547         26
  57.7919         41
  57.8290         27
  57.8662         26
  57.9033         22
  57.9405         24
  57.9776         29
  58.0148         28
  58.0519         23
  58.0891         23
  58.1262         20
  58.1634         26
  58.2005         29
  58.2377         31
  58.2748         37
  58.3120         25
  58.3491         30
  58.3863         34
  58.4234         31
  58.4606         20
  58.4977         26
  58.5349         25
  58.5720         28
  58.6092         24
  58.6463         35
  58.6835         19
  58.7206         30
  58.7578         28
  58.7949         37
  58.8321         37
  58.8692         32
  58.9064         24
  58.9435         29
  58.9807         29
  59.0178         34
  59.0550         25
  59.0921         32
  59.1293         23
  59.1664         29
  59.2036         17
  59.2408         24
  59.2779         32
  59.3151         25
  59.3522         32
  59.3894         33
  59.4265         25
  59.4637         28
  59.5008         31
  59.5380         29
  59.5751         22
  59.6123         27
  59.6494         30
  59.6866         15
  59.7237         23
  59.7609         23
  59.7980         21
  59.8352         34
  59.8723         34
  59.9095         28
  59.9466         32
  59.9838         26
  60.0024         29