File: notebooks/data/xrd_data/ML_20220718_55_SJD_4_LaB6-1min.uxd
; (content of file Y:\Sam\Apurva-07-20-2022\puck4\ML_20220718_55_SJD_4_LaB6-1min.raw)
_FILEVERSION = 3
_SAMPLE = ML_20220718_55_SJD_4_LaB6-1min
_+SAMPLE =
_SITE = USA
_USER = Administrator
_GONIOMETER_CODE = 20
; Goniometer : D8 theta/2theta, stage : Unknown
_ATTACHMENTS_CODE = 0
_GONIOMETER_RADIUS = 200.5
_FIXED_DIVSLIT = 0.6
_FIXED_SAMPLESLIT = 0
_SOLLER_SLITS = 2
_FIXED_DETSLIT = 9.55
_MONOCHROMATOR = 0
; Incident beam monochromator : None
_SOLLER_SLITS_2 = N
_THIN_FILM = N
_BETA_FILTER = Y
_FIXED_ANTISLIT = 5.89
_ANALYZER_CODE = 0
; Received beam analyzer : None
_DATEMEASURED = "26-Jul-2022 10:58:43"
_WL_UNIT = A
_WL1 = 1.5406
_WL2 = 1.54439
_WL3 = 1.39222
_WLRATIO = 0.5
_ANODE = Cu
_V4_INF_CREATOR = XRDWizard
_V4_INF_CREATOR_VERSION = V2.9.0.22
_V4_INF_WIZARD_VERSION = V2.9.0.22
_V4_INF_WIZARD_ADDINS = V2.9.0.22
_V4_INF_WIZARD_DOCTYPE = XRD
_V4_INF_OSUSER = McQueenLab
_V4_INF_USER = Administrator
_V4_INF_SITE = USA
_V4_INF_SAMPLEID = ML_20220718_55_SJD_4_LaB6-1min

; Data for range 1
_DRIVE = COUPLED
_STEPTIME = 4.23
_STEPSIZE = 0.0185756
_STEPMODE = C
_START = 5
_THETA = 2.5
_2THETA = 5
_KHI = 0
_PHI = 0
_X = 0
_Y = 0
_Z = 0
_DETECTOR = 5
; Detector type : Unknown
_DETECTORSLIT = unkn
_AUX1 = 0
_AUX2 = 0
_AUX3 = 0
_TIMESTARTED = 15
_TEMP_RATE = -1
_TEMP_DELAY = -1
_KV = 40
_MA = 40
_RANGE_WL = 1.5406
_3DPLANE = 0
_V4_ADDITIONALDETECTOR = 257
_V4_PSD2THETA = 3.387
_V4_PSDCHANNEL1 = 0
_V4_PSDAPERTURE = 12.68
_V4_PSDTYPE = 5
_V4_PSDFIXED = 0
_V4_COUNTERS_MASK = 4096
_V4_DRIVES_MASK = 0
_V4_ENCODERS_MASK = 0
_2THETACOUNTS = 1
; 2THETA  PSD
   5.0000        104
   5.0372        102
   5.0743        102
   5.1115         91
   5.1486         90
   5.1858         98
   5.2229         89
   5.2601         78
   5.2972         86
   5.3344        103
   5.3715        109
   5.4087         83
   5.4458         91
   5.4830         77
   5.5201         83
   5.5573         62
   5.5944         82
   5.6316         82
   5.6687         74
   5.7059         80
   5.7430         79
   5.7802         83
   5.8173         80
   5.8545         81
   5.8916         68
   5.9288         59
   5.9659         76
   6.0031         84
   6.0402         69
   6.0774         66
   6.1145         71
   6.1517         70
   6.1888         82
   6.2260         72
   6.2631         60
   6.3003         66
   6.3374         71
   6.3746         58
   6.4117         76
   6.4489         76
   6.4860         71
   6.5232         80
   6.5604         89
   6.5975         69
   6.6347         72
   6.6718         77
   6.7090         58
   6.7461         67
   6.7833         68
   6.8204         71
   6.8576         68
   6.8947         84
   6.9319         67
   6.9690         59
   7.0062         57
   7.0433         57
   7.0805         47
   7.1176         69
   7.1548         55
   7.1919         66
   7.2291         59
   7.2662         54
   7.3034         56
   7.3405         54
   7.3777         68
   7.4148         64
   7.4520         62
   7.4891         40
   7.5263         46
   7.5634         62
   7.6006         59
   7.6377         71
   7.6749         74
   7.7120         60
   7.7492         69
   7.7863         83
   7.8235         56
   7.8606         75
   7.8978         76
   7.9349         78
   7.9721         63
   8.0092         67
   8.0464         62
   8.0835         59
   8.1207         46
   8.1579         66
   8.1950         63
   8.2322         68
   8.2693         61
   8.3065         69
   8.3436         63
   8.3808         68
   8.4179         78
   8.4551         83
   8.4922         81
   8.5294         78
   8.5665         59
   8.6037         81
   8.6408         67
   8.6780         72
   8.7151         76
   8.7523         84
   8.7894         67
   8.8266         76
   8.8637         58
   8.9009         70
   8.9380         76
   8.9752         79
   9.0123         95
   9.0495         89
   9.0866         68
   9.1238         80
   9.1609         74
   9.1981         87
   9.2352         65
   9.2724        104
   9.3095         86
   9.3467         84
   9.3838         85
   9.4210         91
   9.4581         91
   9.4953         88
   9.5324         74
   9.5696         75
   9.6067         92
   9.6439         92
   9.6811         73
   9.7182         84
   9.7554         82
   9.7925         90
   9.8297         91
   9.8668         95
   9.9040        102
   9.9411         81
   9.9783         87
  10.0154         96
  10.0526        100
  10.0897         89
  10.1269         77
  10.1640        109
  10.2012        100
  10.2383         88
  10.2755         97
  10.3126         98
  10.3498         84
  10.3869         83
  10.4241         88
  10.4612         83
  10.4984         87
  10.5355         94
  10.5727         78
  10.6098         96
  10.6470         80
  10.6841        100
  10.7213         85
  10.7584         71
  10.7956         95
  10.8327         92
  10.8699         80
  10.9070         93
  10.9442         64
  10.9813         99
  11.0185         81
  11.0556         78
  11.0928         97
  11.1299         80
  11.1671         95
  11.2043         97
  11.2414         78
  11.2786         80
  11.3157         96
  11.3529         78
  11.3900         84
  11.4272         96
  11.4643        100
  11.5015        114
  11.5386         78
  11.5758        101
  11.6129         82
  11.6501         89
  11.6872         82
  11.7244         88
  11.7615         80
  11.7987         84
  11.8358         88
  11.8730        100
  11.9101         77
  11.9473         78
  11.9844         73
  12.0216         77
  12.0587         83
  12.0959         84
  12.1330         90
  12.1702         76
  12.2073         80
  12.2445         82
  12.2816         84
  12.3188         81
  12.3559         74
  12.3931         73
  12.4302         78
  12.4674         66
  12.5045         78
  12.5417         84
  12.5788         79
  12.6160         65
  12.6531         66
  12.6903         80
  12.7274         70
  12.7646         70
  12.8018         76
  12.8389         79
  12.8761         76
  12.9132         67
  12.9504         84
  12.9875         86
  13.0247         67
  13.0618         72
  13.0990         81
  13.1361         76
  13.1733         82
  13.2104         66
  13.2476         71
  13.2847         75
  13.3219         70
  13.3590         65
  13.3962         79
  13.4333         75
  13.4705         66
  13.5076         58
  13.5448         71
  13.5819         74
  13.6191         74
  13.6562         79
  13.6934         66
  13.7305         68
  13.7677         77
  13.8048         71
  13.8420         65
  13.8791         64
  13.9163         60
  13.9534         81
  13.9906         64
  14.0277         52
  14.0649         56
  14.1020         64
  14.1392         64
  14.1763         73
  14.2135         61
  14.2506         71
  14.2878         71
  14.3250         59
  14.3621         58
  14.3993         74
  14.4364         67
  14.4736         59
  14.5107         65
  14.5479         63
  14.5850         56
  14.6222         56
  14.6593         57
  14.6965         60
  14.7336         60
  14.7708         58
  14.8079         57
  14.8451         53
  14.8822         57
  14.9194         58
  14.9565         60
  14.9937         50
  15.0308         52
  15.0680         56
  15.1051         67
  15.1423         60
  15.1794         60
  15.2166         58
  15.2537         57
  15.2909         67
  15.3280         73
  15.3652         65
  15.4023         50
  15.4395         51
  15.4766         56
  15.5138         51
  15.5509         71
  15.5881         65
  15.6252         50
  15.6624         53
  15.6995         67
  15.7367         56
  15.7738         58
  15.8110         68
  15.8482         64
  15.8853         68
  15.9225         61
  15.9596         65
  15.9968         64
  16.0339         66
  16.0711         53
  16.1082         64
  16.1454         39
  16.1825         58
  16.2197         60
  16.2568         64
  16.2940         76
  16.3311         59
  16.3683         58
  16.4054         60
  16.4426         56
  16.4797         59
  16.5169         58
  16.5540         70
  16.5912         62
  16.6283         45
  16.6655         53
  16.7026         60
  16.7398         63
  16.7769         60
  16.8141         79
  16.8512         65
  16.8884         61
  16.9255         58
  16.9627         61
  16.9998         65
  17.0370         73
  17.0741         75
  17.1113         68
  17.1484         53
  17.1856         60
  17.2227         51
  17.2599         65
  17.2970         46
  17.3342         58
  17.3713         58
  17.4085         60
  17.4457         52
  17.4828         59
  17.5200         50
  17.5571         48
  17.5943         57
  17.6314         60
  17.6686         53
  17.7057         60
  17.7429         58
  17.7800         72
  17.8172         63
  17.8543         64
  17.8915         56
  17.9286         56
  17.9658         53
  18.0029         53
  18.0401         75
  18.0772         55
  18.1144         69
  18.1515         58
  18.1887         74
  18.2258         59
  18.2630         58
  18.3001         62
  18.3373         45
  18.3744         57
  18.4116         71
  18.4487         69
  18.4859         65
  18.5230         71
  18.5602         66
  18.5973         52
  18.6345         62
  18.6716         63
  18.7088         55
  18.7459         57
  18.7831         59
  18.8202         61
  18.8574         60
  18.8945         58
  18.9317         54
  18.9689         57
  19.0060         50
  19.0432         58
  19.0803         68
  19.1175         74
  19.1546         68
  19.1918         67
  19.2289         72
  19.2661         65
  19.3032         69
  19.3404         65
  19.3775         51
  19.4147         56
  19.4518         60
  19.4890         74
  19.5261         58
  19.5633         58
  19.6004         56
  19.6376         58
  19.6747         65
  19.7119         59
  19.7490         60
  19.7862         56
  19.8233         64
  19.8605         69
  19.8976         63
  19.9348         66
  19.9719         73
  20.0091         72
  20.0462         68
  20.0834         70
  20.1205         68
  20.1577         76
  20.1948         59
  20.2320         45
  20.2691         68
  20.3063         62
  20.3434         57
  20.3806         89
  20.4177         68
  20.4549         50
  20.4921         77
  20.5292         67
  20.5664         74
  20.6035         71
  20.6407         71
  20.6778         68
  20.7150         88
  20.7521         70
  20.7893         57
  20.8264         66
  20.8636         56
  20.9007         67
  20.9379         65
  20.9750         83
  21.0122         69
  21.0493         75
  21.0865         66
  21.1236         82
  21.1608         88
  21.1979        104
  21.2351        123
  21.2722        141
  21.3094         94
  21.3465        152
  21.3837        149
  21.4208        116
  21.4580         72
  21.4951         75
  21.5323         53
  21.5694         70
  21.6066         74
  21.6437         48
  21.6809         73
  21.7180         72
  21.7552         83
  21.7923         73
  21.8295         85
  21.8666         81
  21.9038         77
  21.9409         76
  21.9781         67
  22.0152         74
  22.0524         62
  22.0896         60
  22.1267         59
  22.1639         79
  22.2010         74
  22.2382         91
  22.2753         76
  22.3125         78
  22.3496         70
  22.3868         83
  22.4239         64
  22.4611         76
  22.4982         69
  22.5354         64
  22.5725         75
  22.6097         73
  22.6468         59
  22.6840         70
  22.7211         66
  22.7583         84
  22.7954         71
  22.8326         72
  22.8697         71
  22.9069         80
  22.9440         76
  22.9812         72
  23.0183         72
  23.0555         77
  23.0926         88
  23.1298         84
  23.1669         76
  23.2041         75
  23.2412         74
  23.2784         68
  23.3155         66
  23.3527         68
  23.3898         69
  23.4270         59
  23.4641         59
  23.5013         72
  23.5384         71
  23.5756         73
  23.6128         72
  23.6499         72
  23.6871         62
  23.7242         74
  23.7614         83
  23.7985         91
  23.8357         71
  23.8728         65
  23.9100         66
  23.9471         75
  23.9843         72
  24.0214         78
  24.0586         68
  24.0957         61
  24.1329         92
  24.1700         78
  24.2072         64
  24.2443         68
  24.2815         77
  24.3186         73
  24.3558         70
  24.3929         90
  24.4301         69
  24.4672         70
  24.5044         65
  24.5415         70
  24.5787         71
  24.6158         73
  24.6530         67
  24.6901         78
  24.7273         75
  24.7644         82
  24.8016         61
  24.8387         81
  24.8759         80
  24.9130         72
  24.9502         79
  24.9873         69
  25.0245         57
  25.0616         63
  25.0988         55
  25.1360         64
  25.1731         74
  25.2103         67
  25.2474         80
  25.2846         80
  25.3217         59
  25.3589         59
  25.3960         74
  25.4332         78
  25.4703         78
  25.5075         68
  25.5446         58
  25.5818         67
  25.6189         77
  25.6561         55
  25.6932         63
  25.7304         76
  25.7675         71
  25.8047         59
  25.8418         80
  25.8790         67
  25.9161         58
  25.9533         64
  25.9904         68
  26.0276         64
  26.0647         64
  26.1019         60
  26.1390         56
  26.1762         81
  26.2133         83
  26.2505         75
  26.2876         74
  26.3248         80
  26.3619         74
  26.3991         63
  26.4362         77
  26.4734         89
  26.5105         73
  26.5477         82
  26.5848         78
  26.6220         80
  26.6591         66
  26.6963         87
  26.7335         62
  26.7706         57
  26.8078         71
  26.8449         78
  26.8821         74
  26.9192         74
  26.9564         69
  26.9935         67
  27.0307         65
  27.0678         80
  27.1050         74
  27.1421         87
  27.1793         76
  27.2164         83
  27.2536         83
  27.2907         76
  27.3279         85
  27.3650         63
  27.4022         64
  27.4393         69
  27.4765         81
  27.5136         57
  27.5508         59
  27.5879         61
  27.6251         72
  27.6622         64
  27.6994         75
  27.7365         64
  27.7737         72
  27.8108         70
  27.8480         75
  27.8851         71
  27.9223         46
  27.9594         51
  27.9966         63
  28.0337         66
  28.0709         73
  28.1080         67
  28.1452         58
  28.1823         51
  28.2195         60
  28.2567         58
  28.2938         61
  28.3310         51
  28.3681         54
  28.4053         56
  28.4424         52
  28.4796         67
  28.5167         55
  28.5539         69
  28.5910         64
  28.6282         65
  28.6653         61
  28.7025         68
  28.7396         72
  28.7768         53
  28.8139         51
  28.8511         59
  28.8882         64
  28.9254         66
  28.9625         41
  28.9997         61
  29.0368         67
  29.0740         39
  29.1111         61
  29.1483         67
  29.1854         62
  29.2226         47
  29.2597         63
  29.2969         56
  29.3340         58
  29.3712         44
  29.4083         48
  29.4455         53
  29.4826         52
  29.5198         67
  29.5569         67
  29.5941         67
  29.6312         53
  29.6684         64
  29.7055         50
  29.7427         57
  29.7799         66
  29.8170         68
  29.8542         61
  29.8913         57
  29.9285         63
  29.9656         63
  30.0028         60
  30.0399         68
  30.0771         61
  30.1142         49
  30.1514         68
  30.1885         56
  30.2257         58
  30.2628         43
  30.3000         68
  30.3371         81
  30.3743        127
  30.4114         98
  30.4486        111
  30.4857         82
  30.5229         54
  30.5600         54
  30.5972         56
  30.6343         58
  30.6715         54
  30.7086         51
  30.7458         42
  30.7829         62
  30.8201         43
  30.8572         59
  30.8944         55
  30.9315         48
  30.9687         68
  31.0058         65
  31.0430         51
  31.0801         47
  31.1173         47
  31.1544         54
  31.1916         53
  31.2287         49
  31.2659         52
  31.3030         38
  31.3402         54
  31.3774         40
  31.4145         50
  31.4517         50
  31.4888         37
  31.5260         52
  31.5631         58
  31.6003         38
  31.6374         55
  31.6746         54
  31.7117         51
  31.7489         48
  31.7860         58
  31.8232         60
  31.8603         36
  31.8975         47
  31.9346         43
  31.9718         54
  32.0089         40
  32.0461         46
  32.0832         37
  32.1204         53
  32.1575         49
  32.1947         52
  32.2318         60
  32.2690         48
  32.3061         43
  32.3433         54
  32.3804         47
  32.4176         52
  32.4547         50
  32.4919         73
  32.5290         57
  32.5662         59
  32.6033         49
  32.6405         40
  32.6776         40
  32.7148         56
  32.7519         48
  32.7891         57
  32.8262         44
  32.8634         55
  32.9006         39
  32.9377         46
  32.9749         53
  33.0120         60
  33.0492         38
  33.0863         40
  33.1235         50
  33.1606         49
  33.1978         45
  33.2349         38
  33.2721         48
  33.3092         43
  33.3464         41
  33.3835         35
  33.4207         40
  33.4578         43
  33.4950         43
  33.5321         40
  33.5693         45
  33.6064         35
  33.6436         44
  33.6807         50
  33.7179         40
  33.7550         35
  33.7922         38
  33.8293         31
  33.8665         47
  33.9036         40
  33.9408         42
  33.9779         44
  34.0151         44
  34.0522         46
  34.0894         42
  34.1265         46
  34.1637         40
  34.2008         44
  34.2380         42
  34.2751         39
  34.3123         39
  34.3494         48
  34.3866         38
  34.4238         33
  34.4609         43
  34.4981         29
  34.5352         42
  34.5724         50
  34.6095         46
  34.6467         53
  34.6838         54
  34.7210         55
  34.7581         57
  34.7953         48
  34.8324         49
  34.8696         53
  34.9067         54
  34.9439         37
  34.9810         43
  35.0182         40
  35.0553         32
  35.0925         43
  35.1296         32
  35.1668         37
  35.2039         39
  35.2411         35
  35.2782         47
  35.3154         32
  35.3525         39
  35.3897         49
  35.4268         39
  35.4640         50
  35.5011         46
  35.5383         39
  35.5754         34
  35.6126         39
  35.6497         27
  35.6869         33
  35.7240         39
  35.7612         45
  35.7983         34
  35.8355         32
  35.8726         39
  35.9098         42
  35.9469         39
  35.9841         32
  36.0213         42
  36.0584         40
  36.0956         39
  36.1327         38
  36.1699         36
  36.2070         30
  36.2442         37
  36.2813         32
  36.3185         37
  36.3556         50
  36.3928         48
  36.4299         27
  36.4671         37
  36.5042         33
  36.5414         33
  36.5785         32
  36.6157         33
  36.6528         23
  36.6900         29
  36.7271         38
  36.7643         38
  36.8014         37
  36.8386         23
  36.8757         28
  36.9129         41
  36.9500         35
  36.9872         29
  37.0243         35
  37.0615         41
  37.0986         40
  37.1358         29
  37.1729         26
  37.2101         34
  37.2472         42
  37.2844         42
  37.3215         27
  37.3587         32
  37.3958         45
  37.4330         52
  37.4701         47
  37.5073         44
  37.5445         47
  37.5816         38
  37.6188         29
  37.6559         37
  37.6931         37
  37.7302         35
  37.7674         31
  37.8045         31
  37.8417         36
  37.8788         30
  37.9160         23
  37.9531         27
  37.9903         34
  38.0274         35
  38.0646         35
  38.1017         36
  38.1389         42
  38.1760         22
  38.2132         33
  38.2503         28
  38.2875         29
  38.3246         30
  38.3618         23
  38.3989         30
  38.4361         31
  38.4732         26
  38.5104         34
  38.5475         28
  38.5847         33
  38.6218         35
  38.6590         23
  38.6961         28
  38.7333         27
  38.7704         21
  38.8076         29
  38.8447         27
  38.8819         44
  38.9190         30
  38.9562         25
  38.9933         28
  39.0305         31
  39.0677         40
  39.1048         37
  39.1420         36
  39.1791         33
  39.2163         28
  39.2534         29
  39.2906         24
  39.3277         33
  39.3649         28
  39.4020         31
  39.4392         20
  39.4763         26
  39.5135         26
  39.5506         28
  39.5878         30
  39.6249         17
  39.6621         40
  39.6992         26
  39.7364         24
  39.7735         24
  39.8107         28
  39.8478         29
  39.8850         24
  39.9221         18
  39.9593         24
  39.9964         31
  40.0336         35
  40.0707         28
  40.1079         29
  40.1450         28
  40.1822         20
  40.2193         28
  40.2565         24
  40.2936         22
  40.3308         29
  40.3679         29
  40.4051         36
  40.4422         39
  40.4794         24
  40.5165         30
  40.5537         27
  40.5908         26
  40.6280         37
  40.6652         29
  40.7023         23
  40.7395         33
  40.7766         28
  40.8138         27
  40.8509         31
  40.8881         22
  40.9252         27
  40.9624         31
  40.9995         25
  41.0367         31
  41.0738         24
  41.1110         28
  41.1481         29
  41.1853         21
  41.2224         33
  41.2596         30
  41.2967         25
  41.3339         31
  41.3710         18
  41.4082         28
  41.4453         28
  41.4825         38
  41.5196         32
  41.5568         35
  41.5939         19
  41.6311         28
  41.6682         16
  41.7054         31
  41.7425         34
  41.7797         29
  41.8168         26
  41.8540         34
  41.8911         20
  41.9283         20
  41.9654         26
  42.0026         27
  42.0397         30
  42.0769         30
  42.1140         26
  42.1512         29
  42.1884         28
  42.2255         32
  42.2627         19
  42.2998         31
  42.3370         25
  42.3741         24
  42.4113         21
  42.4484         27
  42.4856         31
  42.5227         31
  42.5599         31
  42.5970         26
  42.6342         26
  42.6713         29
  42.7085         27
  42.7456         30
  42.7828         23
  42.8199         29
  42.8571         31
  42.8942         24
  42.9314         34
  42.9685         24
  43.0057         31
  43.0428         26
  43.0800         30
  43.1171         23
  43.1543         26
  43.1914         30
  43.2286         27
  43.2657         27
  43.3029         27
  43.3400         28
  43.3772         36
  43.4143         49
  43.4515         33
  43.4886         40
  43.5258         40
  43.5629         32
  43.6001         35
  43.6372         28
  43.6744         24
  43.7116         27
  43.7487         23
  43.7859         28
  43.8230         21
  43.8602         35
  43.8973         30
  43.9345         30
  43.9716         29
  44.0088         25
  44.0459         23
  44.0831         27
  44.1202         34
  44.1574         24
  44.1945         30
  44.2317         29
  44.2688         25
  44.3060         25
  44.3431         30
  44.3803         23
  44.4174         29
  44.4546         26
  44.4917         21
  44.5289         30
  44.5660         20
  44.6032         22
  44.6403         33
  44.6775         30
  44.7146         33
  44.7518         32
  44.7889         32
  44.8261         35
  44.8632         26
  44.9004         28
  44.9375         25
  44.9747         19
  45.0118         20
  45.0490         16
  45.0861         25
  45.1233         16
  45.1604         14
  45.1976         17
  45.2347         23
  45.2719         25
  45.3091         18
  45.3462         27
  45.3834         30
  45.4205         17
  45.4577         28
  45.4948         22
  45.5320         21
  45.5691         27
  45.6063         30
  45.6434         27
  45.6806         34
  45.7177         20
  45.7549         25
  45.7920         29
  45.8292         25
  45.8663         24
  45.9035         23
  45.9406         20
  45.9778         25
  46.0149         27
  46.0521         31
  46.0892         26
  46.1264         27
  46.1635         25
  46.2007         22
  46.2378         22
  46.2750         28
  46.3121         23
  46.3493         19
  46.3864         29
  46.4236         12
  46.4607         22
  46.4979         27
  46.5350         16
  46.5722         22
  46.6093         20
  46.6465         21
  46.6836         25
  46.7208         28
  46.7579         21
  46.7951         25
  46.8323         30
  46.8694         20
  46.9066         17
  46.9437         24
  46.9809         23
  47.0180         24
  47.0552         26
  47.0923         22
  47.1295         24
  47.1666         25
  47.2038         23
  47.2409         25
  47.2781         29
  47.3152         33
  47.3524         28
  47.3895         23
  47.4267         32
  47.4638         31
  47.5010         18
  47.5381         22
  47.5753         17
  47.6124         25
  47.6496         24
  47.6867         20
  47.7239         26
  47.7610         23
  47.7982         25
  47.8353         21
  47.8725         39
  47.9096         31
  47.9468         35
  47.9839         19
  48.0211         27
  48.0582         19
  48.0954         28
  48.1325         20
  48.1697         17
  48.2068         25
  48.2440         20
  48.2811         15
  48.3183         17
  48.3555         21
  48.3926         23
  48.4298         21
  48.4669         26
  48.5041         20
  48.5412         33
  48.5784         24
  48.6155         15
  48.6527         26
  48.6898         22
  48.7270         20
  48.7641         21
  48.8013         23
  48.8384         16
  48.8756         28
  48.9127         21
  48.9499         42
  48.9870         26
  49.0242         21
  49.0613         21
  49.0985         38
  49.1356         35
  49.1728         31
  49.2099         23
  49.2471         30
  49.2842         19
  49.3214         24
  49.3585         20
  49.3957         27
  49.4328         13
  49.4700         20
  49.5071         24
  49.5443         19
  49.5814         22
  49.6186         16
  49.6557         22
  49.6929         19
  49.7300         20
  49.7672         18
  49.8043         18
  49.8415         23
  49.8786         20
  49.9158         14
  49.9530         23
  49.9901         22
  50.0273         20
  50.0644         21
  50.1016         19
  50.1387         28
  50.1759         33
  50.2130         28
  50.2502         25
  50.2873         18
  50.3245         20
  50.3616         19
  50.3988         24
  50.4359         20
  50.4731         27
  50.5102         27
  50.5474         23
  50.5845         19
  50.6217         19
  50.6588         18
  50.6960         21
  50.7331         31
  50.7703         26
  50.8074         37
  50.8446         15
  50.8817         22
  50.9189         23
  50.9560         13
  50.9932         33
  51.0303         21
  51.0675         26
  51.1046         20
  51.1418         24
  51.1789         16
  51.2161         23
  51.2532         30
  51.2904         28
  51.3275         22
  51.3647         28
  51.4018         25
  51.4390         30
  51.4762         23
  51.5133         25
  51.5505         31
  51.5876         25
  51.6248         26
  51.6619         29
  51.6991         27
  51.7362         19
  51.7734         31
  51.8105         22
  51.8477         30
  51.8848         22
  51.9220         31
  51.9591         23
  51.9963         27
  52.0334         33
  52.0706         20
  52.1077         27
  52.1449         21
  52.1820         21
  52.2192         19
  52.2563         27
  52.2935         24
  52.3306         28
  52.3678         26
  52.4049         23
  52.4421         27
  52.4792         23
  52.5164         17
  52.5535         17
  52.5907         23
  52.6278         22
  52.6650         18
  52.7021         22
  52.7393         14
  52.7764         19
  52.8136         20
  52.8507         19
  52.8879         16
  52.9250         18
  52.9622         23
  52.9994         30
  53.0365         24
  53.0737         27
  53.1108         28
  53.1480         19
  53.1851         21
  53.2223         21
  53.2594         23
  53.2966         18
  53.3337         23
  53.3709         22
  53.4080         20
  53.4452         21
  53.4823         22
  53.5195         17
  53.5566         26
  53.5938         14
  53.6309         16
  53.6681         21
  53.7052         29
  53.7424         21
  53.7795         17
  53.8167         16
  53.8538         24
  53.8910         19
  53.9281         33
  53.9653         18
  54.0024         31
  54.0396         23
  54.0767         20
  54.1139         24
  54.1510         33
  54.1882         21
  54.2253         32
  54.2625         16
  54.2996         21
  54.3368         20
  54.3739         17
  54.4111         22
  54.4482         19
  54.4854         20
  54.5225         18
  54.5597         24
  54.5969         24
  54.6340         12
  54.6712         22
  54.7083         20
  54.7455         23
  54.7826         20
  54.8198         24
  54.8569         20
  54.8941         14
  54.9312         20
  54.9684         20
  55.0055         17
  55.0427         23
  55.0798         22
  55.1170         19
  55.1541         21
  55.1913         18
  55.2284         13
  55.2656         22
  55.3027         19
  55.3399         19
  55.3770         22
  55.4142         19
  55.4513         26
  55.4885         20
  55.5256         20
  55.5628         26
  55.5999         22
  55.6371         15
  55.6742         27
  55.7114         19
  55.7485         22
  55.7857         21
  55.8228         25
  55.8600         20
  55.8971          9
  55.9343         24
  55.9714         24
  56.0086         23
  56.0457         17
  56.0829         14
  56.1201         26
  56.1572         21
  56.1944         23
  56.2315         31
  56.2687         23
  56.3058         21
  56.3430         25
  56.3801         24
  56.4173         17
  56.4544         21
  56.4916         23
  56.5287         29
  56.5659         16
  56.6030         12
  56.6402         26
  56.6773         18
  56.7145         14
  56.7516         16
  56.7888         23
  56.8259         27
  56.8631         22
  56.9002         22
  56.9374         10
  56.9745         18
  57.0117         19
  57.0488         24
  57.0860         27
  57.1231         23
  57.1603         17
  57.1974         13
  57.2346         14
  57.2717         15
  57.3089         14
  57.3460         19
  57.3832         21
  57.4203         19
  57.4575         26
  57.4946         22
  57.5318         14
  57.5689         31
  57.6061         24
  57.6433         17
  57.6804         28
  57.7176         21
  57.7547         20
  57.7919         25
  57.8290         19
  57.8662         19
  57.9033         25
  57.9405         27
  57.9776         31
  58.0148         17
  58.0519         27
  58.0891         21
  58.1262         19
  58.1634         18
  58.2005         17
  58.2377         21
  58.2748         19
  58.3120         28
  58.3491         24
  58.3863         18
  58.4234         21
  58.4606         18
  58.4977         19
  58.5349         10
  58.5720         23
  58.6092         16
  58.6463         19
  58.6835         16
  58.7206         25
  58.7578         17
  58.7949         22
  58.8321         17
  58.8692         19
  58.9064         21
  58.9435         16
  58.9807         21
  59.0178         29
  59.0550         12
  59.0921         22
  59.1293         19
  59.1664         13
  59.2036         19
  59.2408         21
  59.2779         22
  59.3151         18
  59.3522         23
  59.3894         15
  59.4265         23
  59.4637         26
  59.5008         14
  59.5380         23
  59.5751         24
  59.6123         24
  59.6494         20
  59.6866         21
  59.7237         26
  59.7609         19
  59.7980         24
  59.8352         27
  59.8723         22
  59.9095         17
  59.9466         17
  59.9838         23
  60.0024         21