File: notebooks/data/xrd_data/ML_20220720_2_SJD_4_LaB6-4min.uxd
; (content of file Y:\Sam\Apurva-07-20-2022\puck2\ML_20220720_2_SJD_0_LaB6-4min.raw)
_FILEVERSION = 3
_SAMPLE = ML_20220720_2_SJD_0_LaB6-4min
_+SAMPLE =
_SITE = USA
_USER = Administrator
_GONIOMETER_CODE = 20
; Goniometer : D8 theta/2theta, stage : Unknown
_ATTACHMENTS_CODE = 0
_GONIOMETER_RADIUS = 200.5
_FIXED_DIVSLIT = 0.6
_FIXED_SAMPLESLIT = 0
_SOLLER_SLITS = 2
_FIXED_DETSLIT = 9.55
_MONOCHROMATOR = 0
; Incident beam monochromator : None
_SOLLER_SLITS_2 = N
_THIN_FILM = N
_BETA_FILTER = Y
_FIXED_ANTISLIT = 5.89
_ANALYZER_CODE = 0
; Received beam analyzer : None
_DATEMEASURED = "25-Jul-2022 17:29:07"
_WL_UNIT = A
_WL1 = 1.5406
_WL2 = 1.54439
_WL3 = 1.39222
_WLRATIO = 0.5
_ANODE = Cu
_V4_INF_CREATOR = XRDWizard
_V4_INF_CREATOR_VERSION = V2.9.0.22
_V4_INF_WIZARD_VERSION = V2.9.0.22
_V4_INF_WIZARD_ADDINS = V2.9.0.22
_V4_INF_WIZARD_DOCTYPE = XRD
_V4_INF_OSUSER = McQueenLab
_V4_INF_USER = Administrator
_V4_INF_SITE = USA
_V4_INF_SAMPLEID = ML_20220720_2_SJD_0_LaB6-4min

; Data for range 1
_DRIVE = COUPLED
_STEPTIME = 11.28
_STEPSIZE = 0.0185756
_STEPMODE = C
_START = 5
_THETA = 2.5
_2THETA = 5
_KHI = 0
_PHI = 0
_X = 0
_Y = 0
_Z = 0
_DETECTOR = 5
; Detector type : Unknown
_DETECTORSLIT = unkn
_AUX1 = 0
_AUX2 = 0
_AUX3 = 0
_TIMESTARTED = 15
_TEMP_RATE = -1
_TEMP_DELAY = -1
_KV = 40
_MA = 40
_RANGE_WL = 1.5406
_3DPLANE = 0
_V4_ADDITIONALDETECTOR = 257
_V4_PSD2THETA = 3.3661
_V4_PSDCHANNEL1 = 0
_V4_PSDAPERTURE = 12.68
_V4_PSDTYPE = 5
_V4_PSDFIXED = 0
_V4_COUNTERS_MASK = 4096
_V4_DRIVES_MASK = 0
_V4_ENCODERS_MASK = 0
_2THETACOUNTS = 1
; 2THETA  PSD
   5.0000        259
   5.0372        276
   5.0743        285
   5.1115        260
   5.1486        251
   5.1858        268
   5.2229        286
   5.2601        259
   5.2972        254
   5.3344        266
   5.3715        269
   5.4087        240
   5.4458        201
   5.4830        228
   5.5201        210
   5.5573        224
   5.5944        230
   5.6316        241
   5.6687        204
   5.7059        233
   5.7430        209
   5.7802        220
   5.8173        223
   5.8545        220
   5.8916        191
   5.9288        192
   5.9659        200
   6.0031        202
   6.0402        189
   6.0774        204
   6.1145        184
   6.1517        201
   6.1888        196
   6.2260        205
   6.2631        193
   6.3003        161
   6.3374        228
   6.3746        185
   6.4117        162
   6.4489        170
   6.4860        168
   6.5232        175
   6.5604        185
   6.5975        169
   6.6347        173
   6.6718        166
   6.7090        174
   6.7461        184
   6.7833        186
   6.8204        138
   6.8576        165
   6.8947        188
   6.9319        185
   6.9690        178
   7.0062        162
   7.0433        142
   7.0805        154
   7.1176        165
   7.1548        171
   7.1919        154
   7.2291        152
   7.2662        159
   7.3034        168
   7.3405        182
   7.3777        163
   7.4148        182
   7.4520        156
   7.4891        142
   7.5263        165
   7.5634        179
   7.6006        177
   7.6377        160
   7.6749        179
   7.7120        172
   7.7492        186
   7.7863        166
   7.8235        195
   7.8606        172
   7.8978        167
   7.9349        172
   7.9721        163
   8.0092        240
   8.0464        214
   8.0835        195
   8.1207        162
   8.1579        207
   8.1950        184
   8.2322        188
   8.2693        204
   8.3065        179
   8.3436        189
   8.3808        197
   8.4179        196
   8.4551        182
   8.4922        202
   8.5294        216
   8.5665        203
   8.6037        203
   8.6408        213
   8.6780        212
   8.7151        228
   8.7523        213
   8.7894        203
   8.8266        211
   8.8637        213
   8.9009        222
   8.9380        209
   8.9752        203
   9.0123        241
   9.0495        207
   9.0866        208
   9.1238        196
   9.1609        206
   9.1981        193
   9.2352        225
   9.2724        213
   9.3095        214
   9.3467        267
   9.3838        243
   9.4210        224
   9.4581        230
   9.4953        224
   9.5324        219
   9.5696        236
   9.6067        220
   9.6439        220
   9.6811        229
   9.7182        235
   9.7554        235
   9.7925        211
   9.8297        219
   9.8668        225
   9.9040        258
   9.9411        280
   9.9783        221
  10.0154        243
  10.0526        242
  10.0897        248
  10.1269        246
  10.1640        226
  10.2012        243
  10.2383        216
  10.2755        234
  10.3126        251
  10.3498        240
  10.3869        252
  10.4241        259
  10.4612        199
  10.4984        254
  10.5355        279
  10.5727        244
  10.6098        250
  10.6470        290
  10.6841        274
  10.7213        231
  10.7584        241
  10.7956        255
  10.8327        260
  10.8699        231
  10.9070        244
  10.9442        232
  10.9813        219
  11.0185        242
  11.0556        245
  11.0928        222
  11.1299        239
  11.1671        235
  11.2043        237
  11.2414        214
  11.2786        233
  11.3157        257
  11.3529        251
  11.3900        248
  11.4272        253
  11.4643        260
  11.5015        227
  11.5386        253
  11.5758        247
  11.6129        246
  11.6501        236
  11.6872        251
  11.7244        224
  11.7615        241
  11.7987        236
  11.8358        229
  11.8730        228
  11.9101        235
  11.9473        244
  11.9844        221
  12.0216        204
  12.0587        224
  12.0959        252
  12.1330        242
  12.1702        232
  12.2073        234
  12.2445        228
  12.2816        231
  12.3188        219
  12.3559        237
  12.3931        211
  12.4302        214
  12.4674        220
  12.5045        212
  12.5417        255
  12.5788        187
  12.6160        244
  12.6531        214
  12.6903        222
  12.7274        241
  12.7646        228
  12.8018        222
  12.8389        220
  12.8761        215
  12.9132        203
  12.9504        211
  12.9875        208
  13.0247        197
  13.0618        221
  13.0990        221
  13.1361        201
  13.1733        211
  13.2104        206
  13.2476        208
  13.2847        181
  13.3219        186
  13.3590        195
  13.3962        204
  13.4333        212
  13.4705        200
  13.5076        177
  13.5448        181
  13.5819        179
  13.6191        189
  13.6562        172
  13.6934        184
  13.7305        178
  13.7677        211
  13.8048        178
  13.8420        177
  13.8791        210
  13.9163        181
  13.9534        190
  13.9906        186
  14.0277        192
  14.0649        185
  14.1020        196
  14.1392        188
  14.1763        173
  14.2135        174
  14.2506        217
  14.2878        183
  14.3250        163
  14.3621        164
  14.3993        187
  14.4364        165
  14.4736        195
  14.5107        171
  14.5479        182
  14.5850        192
  14.6222        184
  14.6593        155
  14.6965        176
  14.7336        157
  14.7708        182
  14.8079        162
  14.8451        171
  14.8822        167
  14.9194        200
  14.9565        181
  14.9937        191
  15.0308        155
  15.0680        153
  15.1051        154
  15.1423        171
  15.1794        181
  15.2166        181
  15.2537        181
  15.2909        161
  15.3280        146
  15.3652        164
  15.4023        171
  15.4395        194
  15.4766        179
  15.5138        162
  15.5509        180
  15.5881        181
  15.6252        178
  15.6624        164
  15.6995        172
  15.7367        148
  15.7738        154
  15.8110        157
  15.8482        165
  15.8853        175
  15.9225        137
  15.9596        166
  15.9968        167
  16.0339        199
  16.0711        158
  16.1082        150
  16.1454        170
  16.1825        154
  16.2197        143
  16.2568        184
  16.2940        161
  16.3311        173
  16.3683        171
  16.4054        155
  16.4426        165
  16.4797        165
  16.5169        151
  16.5540        164
  16.5912        176
  16.6283        152
  16.6655        183
  16.7026        168
  16.7398        165
  16.7769        155
  16.8141        166
  16.8512        166
  16.8884        165
  16.9255        171
  16.9627        169
  16.9998        177
  17.0370        174
  17.0741        178
  17.1113        152
  17.1484        178
  17.1856        156
  17.2227        153
  17.2599        169
  17.2970        158
  17.3342        166
  17.3713        154
  17.4085        174
  17.4457        162
  17.4828        170
  17.5200        173
  17.5571        162
  17.5943        186
  17.6314        156
  17.6686        154
  17.7057        162
  17.7429        161
  17.7800        167
  17.8172        190
  17.8543        158
  17.8915        164
  17.9286        159
  17.9658        162
  18.0029        152
  18.0401        165
  18.0772        179
  18.1144        201
  18.1515        169
  18.1887        157
  18.2258        186
  18.2630        173
  18.3001        150
  18.3373        170
  18.3744        178
  18.4116        187
  18.4487        171
  18.4859        163
  18.5230        158
  18.5602        188
  18.5973        147
  18.6345        178
  18.6716        162
  18.7088        177
  18.7459        162
  18.7831        176
  18.8202        167
  18.8574        162
  18.8945        159
  18.9317        178
  18.9689        163
  19.0060        169
  19.0432        196
  19.0803        172
  19.1175        169
  19.1546        162
  19.1918        177
  19.2289        160
  19.2661        156
  19.3032        171
  19.3404        173
  19.3775        162
  19.4147        166
  19.4518        170
  19.4890        189
  19.5261        164
  19.5633        180
  19.6004        143
  19.6376        170
  19.6747        164
  19.7119        185
  19.7490        187
  19.7862        176
  19.8233        186
  19.8605        166
  19.8976        198
  19.9348        172
  19.9719        174
  20.0091        195
  20.0462        176
  20.0834        197
  20.1205        200
  20.1577        175
  20.1948        195
  20.2320        174
  20.2691        187
  20.3063        181
  20.3434        200
  20.3806        183
  20.4177        186
  20.4549        195
  20.4921        186
  20.5292        215
  20.5664        183
  20.6035        150
  20.6407        189
  20.6778        196
  20.7150        179
  20.7521        193
  20.7893        208
  20.8264        193
  20.8636        180
  20.9007        174
  20.9379        182
  20.9750        205
  21.0122        220
  21.0493        210
  21.0865        214
  21.1236        218
  21.1608        216
  21.1979        245
  21.2351        323
  21.2722        291
  21.3094        305
  21.3465        496
  21.3837        443
  21.4208        343
  21.4580        220
  21.4951        191
  21.5323        186
  21.5694        204
  21.6066        223
  21.6437        218
  21.6809        198
  21.7180        189
  21.7552        206
  21.7923        218
  21.8295        197
  21.8666        203
  21.9038        191
  21.9409        169
  21.9781        145
  22.0152        183
  22.0524        209
  22.0896        181
  22.1267        196
  22.1639        217
  22.2010        215
  22.2382        196
  22.2753        192
  22.3125        194
  22.3496        231
  22.3868        213
  22.4239        173
  22.4611        223
  22.4982        222
  22.5354        192
  22.5725        203
  22.6097        212
  22.6468        227
  22.6840        195
  22.7211        223
  22.7583        197
  22.7954        215
  22.8326        217
  22.8697        188
  22.9069        207
  22.9440        204
  22.9812        188
  23.0183        204
  23.0555        204
  23.0926        179
  23.1298        207
  23.1669        193
  23.2041        228
  23.2412        194
  23.2784        174
  23.3155        205
  23.3527        193
  23.3898        197
  23.4270        176
  23.4641        204
  23.5013        183
  23.5384        179
  23.5756        206
  23.6128        188
  23.6499        198
  23.6871        231
  23.7242        188
  23.7614        187
  23.7985        211
  23.8357        200
  23.8728        210
  23.9100        202
  23.9471        190
  23.9843        189
  24.0214        216
  24.0586        234
  24.0957        222
  24.1329        224
  24.1700        205
  24.2072        212
  24.2443        250
  24.2815        237
  24.3186        233
  24.3558        207
  24.3929        216
  24.4301        213
  24.4672        201
  24.5044        170
  24.5415        204
  24.5787        189
  24.6158        198
  24.6530        202
  24.6901        202
  24.7273        192
  24.7644        207
  24.8016        177
  24.8387        203
  24.8759        199
  24.9130        211
  24.9502        201
  24.9873        201
  25.0245        197
  25.0616        195
  25.0988        221
  25.1360        211
  25.1731        194
  25.2103        212
  25.2474        190
  25.2846        214
  25.3217        197
  25.3589        220
  25.3960        186
  25.4332        216
  25.4703        212
  25.5075        179
  25.5446        190
  25.5818        158
  25.6189        223
  25.6561        191
  25.6932        176
  25.7304        178
  25.7675        207
  25.8047        200
  25.8418        172
  25.8790        188
  25.9161        202
  25.9533        200
  25.9904        176
  26.0276        205
  26.0647        186
  26.1019        198
  26.1390        193
  26.1762        184
  26.2133        189
  26.2505        212
  26.2876        179
  26.3248        180
  26.3619        199
  26.3991        181
  26.4362        199
  26.4734        191
  26.5105        180
  26.5477        211
  26.5848        194
  26.6220        176
  26.6591        195
  26.6963        181
  26.7335        192
  26.7706        212
  26.8078        197
  26.8449        178
  26.8821        176
  26.9192        161
  26.9564        188
  26.9935        186
  27.0307        221
  27.0678        196
  27.1050        192
  27.1421        229
  27.1793        226
  27.2164        242
  27.2536        234
  27.2907        210
  27.3279        209
  27.3650        202
  27.4022        200
  27.4393        199
  27.4765        194
  27.5136        183
  27.5508        174
  27.5879        196
  27.6251        173
  27.6622        196
  27.6994        192
  27.7365        201
  27.7737        176
  27.8108        199
  27.8480        185
  27.8851        164
  27.9223        165
  27.9594        174
  27.9966        182
  28.0337        170
  28.0709        166
  28.1080        153
  28.1452        158
  28.1823        159
  28.2195        151
  28.2567        158
  28.2938        179
  28.3310        153
  28.3681        138
  28.4053        155
  28.4424        178
  28.4796        194
  28.5167        174
  28.5539        178
  28.5910        147
  28.6282        169
  28.6653        172
  28.7025        165
  28.7396        171
  28.7768        177
  28.8139        168
  28.8511        173
  28.8882        172
  28.9254        183
  28.9625        165
  28.9997        146
  29.0368        176
  29.0740        174
  29.1111        171
  29.1483        166
  29.1854        167
  29.2226        157
  29.2597        155
  29.2969        148
  29.3340        176
  29.3712        154
  29.4083        155
  29.4455        164
  29.4826        173
  29.5198        149
  29.5569        155
  29.5941        148
  29.6312        156
  29.6684        157
  29.7055        155
  29.7427        154
  29.7799        167
  29.8170        154
  29.8542        173
  29.8913        149
  29.9285        174
  29.9656        151
  30.0028        134
  30.0399        177
  30.0771        145
  30.1142        127
  30.1514        193
  30.1885        174
  30.2257        164
  30.2628        160
  30.3000        189
  30.3371        209
  30.3743        332
  30.4114        257
  30.4486        247
  30.4857        202
  30.5229        172
  30.5600        177
  30.5972        183
  30.6343        144
  30.6715        164
  30.7086        151
  30.7458        132
  30.7829        176
  30.8201        172
  30.8572        141
  30.8944        187
  30.9315        136
  30.9687        140
  31.0058        144
  31.0430        152
  31.0801        133
  31.1173        144
  31.1544        162
  31.1916        144
  31.2287        159
  31.2659        157
  31.3030        143
  31.3402        130
  31.3774        167
  31.4145        142
  31.4517        149
  31.4888        140
  31.5260        141
  31.5631        138
  31.6003        150
  31.6374        134
  31.6746        141
  31.7117        126
  31.7489        114
  31.7860        139
  31.8232        126
  31.8603        130
  31.8975        134
  31.9346        114
  31.9718        143
  32.0089        131
  32.0461        137
  32.0832        124
  32.1204        121
  32.1575        131
  32.1947        138
  32.2318        127
  32.2690        129
  32.3061        140
  32.3433        157
  32.3804        122
  32.4176        144
  32.4547        136
  32.4919        157
  32.5290        167
  32.5662        145
  32.6033        122
  32.6405        131
  32.6776        138
  32.7148        136
  32.7519        128
  32.7891        125
  32.8262        128
  32.8634        152
  32.9006        127
  32.9377        130
  32.9749        116
  33.0120        133
  33.0492        123
  33.0863        111
  33.1235        124
  33.1606        117
  33.1978        111
  33.2349        113
  33.2721        132
  33.3092        120
  33.3464        141
  33.3835        113
  33.4207        113
  33.4578        116
  33.4950        110
  33.5321        101
  33.5693        124
  33.6064        122
  33.6436        101
  33.6807        125
  33.7179        123
  33.7550        107
  33.7922        106
  33.8293        127
  33.8665        125
  33.9036        126
  33.9408        125
  33.9779        104
  34.0151        131
  34.0522        114
  34.0894        103
  34.1265        127
  34.1637        126
  34.2008        107
  34.2380         99
  34.2751        111
  34.3123        106
  34.3494        126
  34.3866         95
  34.4238        131
  34.4609         96
  34.4981        124
  34.5352        122
  34.5724        123
  34.6095        115
  34.6467        122
  34.6838        121
  34.7210        157
  34.7581        159
  34.7953        168
  34.8324        139
  34.8696        116
  34.9067        124
  34.9439        126
  34.9810         92
  35.0182        118
  35.0553        113
  35.0925        112
  35.1296        105
  35.1668         99
  35.2039        101
  35.2411        110
  35.2782        102
  35.3154         99
  35.3525        111
  35.3897        120
  35.4268        102
  35.4640         87
  35.5011        113
  35.5383        113
  35.5754        103
  35.6126         90
  35.6497        105
  35.6869        116
  35.7240         93
  35.7612        112
  35.7983         95
  35.8355         99
  35.8726         95
  35.9098         82
  35.9469         86
  35.9841        111
  36.0213         97
  36.0584         91
  36.0956         95
  36.1327        106
  36.1699        111
  36.2070         89
  36.2442         92
  36.2813         88
  36.3185         99
  36.3556         95
  36.3928         93
  36.4299         86
  36.4671         97
  36.5042        101
  36.5414         85
  36.5785         92
  36.6157         95
  36.6528        105
  36.6900        102
  36.7271         87
  36.7643        103
  36.8014        102
  36.8386         83
  36.8757         88
  36.9129         89
  36.9500         89
  36.9872         79
  37.0243         95
  37.0615         98
  37.0986         95
  37.1358        109
  37.1729        104
  37.2101         81
  37.2472         98
  37.2844         96
  37.3215         91
  37.3587         95
  37.3958         97
  37.4330        140
  37.4701        132
  37.5073        107
  37.5445        134
  37.5816        102
  37.6188         79
  37.6559         95
  37.6931        103
  37.7302         78
  37.7674         97
  37.8045         83
  37.8417         87
  37.8788        103
  37.9160         95
  37.9531         84
  37.9903         80
  38.0274         86
  38.0646         83
  38.1017         76
  38.1389         84
  38.1760         88
  38.2132         92
  38.2503         93
  38.2875         87
  38.3246         84
  38.3618         87
  38.3989         80
  38.4361         75
  38.4732         89
  38.5104         84
  38.5475         99
  38.5847        100
  38.6218         85
  38.6590         94
  38.6961         81
  38.7333         78
  38.7704         78
  38.8076         82
  38.8447         89
  38.8819         78
  38.9190         71
  38.9562         96
  38.9933         97
  39.0305         81
  39.0677        102
  39.1048         88
  39.1420         89
  39.1791         77
  39.2163         84
  39.2534         88
  39.2906         83
  39.3277         79
  39.3649         82
  39.4020         75
  39.4392         88
  39.4763         83
  39.5135         82
  39.5506        105
  39.5878         78
  39.6249         68
  39.6621         65
  39.6992         99
  39.7364         80
  39.7735         72
  39.8107         96
  39.8478         81
  39.8850         79
  39.9221         95
  39.9593         80
  39.9964         93
  40.0336         74
  40.0707         80
  40.1079         85
  40.1450         74
  40.1822         85
  40.2193         83
  40.2565         79
  40.2936         66
  40.3308         80
  40.3679         76
  40.4051         80
  40.4422         87
  40.4794         90
  40.5165         67
  40.5537         85
  40.5908         76
  40.6280         86
  40.6652         81
  40.7023         88
  40.7395         71
  40.7766         77
  40.8138         68
  40.8509         81
  40.8881         86
  40.9252         74
  40.9624         87
  40.9995         82
  41.0367         85
  41.0738         98
  41.1110         84
  41.1481         84
  41.1853         84
  41.2224         75
  41.2596         62
  41.2967         76
  41.3339         74
  41.3710         71
  41.4082         75
  41.4453         68
  41.4825         76
  41.5196         74
  41.5568         80
  41.5939         63
  41.6311         79
  41.6682         70
  41.7054         85
  41.7425         67
  41.7797         71
  41.8168         73
  41.8540         69
  41.8911         80
  41.9283         68
  41.9654         92
  42.0026         69
  42.0397         73
  42.0769         81
  42.1140         75
  42.1512         81
  42.1884         81
  42.2255         68
  42.2627         68
  42.2998         72
  42.3370         67
  42.3741         80
  42.4113         52
  42.4484         78
  42.4856         63
  42.5227         81
  42.5599         57
  42.5970         76
  42.6342         83
  42.6713         76
  42.7085         89
  42.7456         68
  42.7828         73
  42.8199         62
  42.8571         90
  42.8942         91
  42.9314         79
  42.9685         72
  43.0057         75
  43.0428         94
  43.0800         65
  43.1171         93
  43.1543         84
  43.1914         81
  43.2286         97
  43.2657        106
  43.3029        101
  43.3400         82
  43.3772         73
  43.4143         86
  43.4515         79
  43.4886        114
  43.5258        126
  43.5629         91
  43.6001         98
  43.6372         99
  43.6744         81
  43.7116         85
  43.7487         76
  43.7859         87
  43.8230         65
  43.8602         72
  43.8973         91
  43.9345         63
  43.9716         81
  44.0088         51
  44.0459         68
  44.0831         74
  44.1202         75
  44.1574         82
  44.1945         85
  44.2317         78
  44.2688         70
  44.3060         79
  44.3431         67
  44.3803         61
  44.4174         84
  44.4546         57
  44.4917         79
  44.5289         90
  44.5660         85
  44.6032         79
  44.6403         74
  44.6775         86
  44.7146         98
  44.7518         87
  44.7889         72
  44.8261         98
  44.8632         79
  44.9004         80
  44.9375         93
  44.9747         70
  45.0118         60
  45.0490         76
  45.0861         82
  45.1233         61
  45.1604         71
  45.1976         71
  45.2347         65
  45.2719         79
  45.3091         72
  45.3462         80
  45.3834         75
  45.4205         66
  45.4577         61
  45.4948         55
  45.5320         74
  45.5691         57
  45.6063         62
  45.6434         59
  45.6806         56
  45.7177         61
  45.7549         62
  45.7920         64
  45.8292         72
  45.8663         70
  45.9035         61
  45.9406         65
  45.9778         63
  46.0149         64
  46.0521         71
  46.0892         64
  46.1264         57
  46.1635         72
  46.2007         64
  46.2378         71
  46.2750         54
  46.3121         68
  46.3493         80
  46.3864         68
  46.4236         77
  46.4607         74
  46.4979         71
  46.5350         75
  46.5722         69
  46.6093         57
  46.6465         62
  46.6836         56
  46.7208         77
  46.7579         69
  46.7951         74
  46.8323         60
  46.8694         58
  46.9066         72
  46.9437         68
  46.9809         68
  47.0180         62
  47.0552         62
  47.0923         74
  47.1295         54
  47.1666         80
  47.2038         56
  47.2409         63
  47.2781         81
  47.3152         62
  47.3524         62
  47.3895         59
  47.4267         64
  47.4638         65
  47.5010         60
  47.5381         74
  47.5753         68
  47.6124         50
  47.6496         63
  47.6867         66
  47.7239         55
  47.7610         52
  47.7982         54
  47.8353         71
  47.8725         61
  47.9096         59
  47.9468         62
  47.9839         57
  48.0211         76
  48.0582         58
  48.0954         61
  48.1325         64
  48.1697         54
  48.2068         53
  48.2440         53
  48.2811         55
  48.3183         63
  48.3555         48
  48.3926         58
  48.4298         79
  48.4669         62
  48.5041         66
  48.5412         64
  48.5784         76
  48.6155         77
  48.6527         75
  48.6898         65
  48.7270         61
  48.7641         74
  48.8013         58
  48.8384         66
  48.8756         59
  48.9127         77
  48.9499        141
  48.9870         88
  49.0242         75
  49.0613         82
  49.0985         95
  49.1356         77
  49.1728         68
  49.2099         76
  49.2471         62
  49.2842         58
  49.3214         78
  49.3585         69
  49.3957         59
  49.4328         69
  49.4700         70
  49.5071         60
  49.5443         70
  49.5814         71
  49.6186         62
  49.6557         57
  49.6929         61
  49.7300         55
  49.7672         54
  49.8043         66
  49.8415         77
  49.8786         51
  49.9158         65
  49.9530         70
  49.9901         61
  50.0273         72
  50.0644         58
  50.1016         54
  50.1387         73
  50.1759         60
  50.2130         63
  50.2502         67
  50.2873         62
  50.3245         66
  50.3616         54
  50.3988         67
  50.4359         67
  50.4731         65
  50.5102         65
  50.5474         59
  50.5845         52
  50.6217         58
  50.6588         45
  50.6960         59
  50.7331         62
  50.7703         62
  50.8074         64
  50.8446         64
  50.8817         71
  50.9189         52
  50.9560         56
  50.9932         48
  51.0303         59
  51.0675         70
  51.1046         50
  51.1418         72
  51.1789         47
  51.2161         54
  51.2532         75
  51.2904         61
  51.3275         82
  51.3647         76
  51.4018         86
  51.4390         77
  51.4762         74
  51.5133         61
  51.5505         54
  51.5876         59
  51.6248         69
  51.6619         59
  51.6991         70
  51.7362         63
  51.7734         50
  51.8105         57
  51.8477         66
  51.8848         62
  51.9220         64
  51.9591         75
  51.9963         64
  52.0334         54
  52.0706         57
  52.1077         54
  52.1449         54
  52.1820         59
  52.2192         58
  52.2563         61
  52.2935         64
  52.3306         56
  52.3678         63
  52.4049         56
  52.4421         55
  52.4792         57
  52.5164         61
  52.5535         48
  52.5907         45
  52.6278         54
  52.6650         52
  52.7021         55
  52.7393         53
  52.7764         64
  52.8136         53
  52.8507         53
  52.8879         72
  52.9250         64
  52.9622         58
  52.9994         58
  53.0365         73
  53.0737         63
  53.1108         64
  53.1480         54
  53.1851         63
  53.2223         70
  53.2594         54
  53.2966         50
  53.3337         57
  53.3709         58
  53.4080         57
  53.4452         62
  53.4823         39
  53.5195         62
  53.5566         53
  53.5938         63
  53.6309         49
  53.6681         57
  53.7052         56
  53.7424         64
  53.7795         56
  53.8167         44
  53.8538         59
  53.8910         55
  53.9281         57
  53.9653         85
  54.0024         79
  54.0396         50
  54.0767         68
  54.1139         63
  54.1510         66
  54.1882         51
  54.2253         52
  54.2625         54
  54.2996         55
  54.3368         69
  54.3739         60
  54.4111         52
  54.4482         58
  54.4854         57
  54.5225         65
  54.5597         57
  54.5969         59
  54.6340         55
  54.6712         49
  54.7083         50
  54.7455         51
  54.7826         71
  54.8198         55
  54.8569         47
  54.8941         51
  54.9312         70
  54.9684         55
  55.0055         67
  55.0427         44
  55.0798         61
  55.1170         59
  55.1541         55
  55.1913         45
  55.2284         50
  55.2656         57
  55.3027         51
  55.3399         57
  55.3770         62
  55.4142         60
  55.4513         64
  55.4885         54
  55.5256         57
  55.5628         54
  55.5999         51
  55.6371         44
  55.6742         51
  55.7114         51
  55.7485         75
  55.7857         50
  55.8228         62
  55.8600         77
  55.8971         60
  55.9343         42
  55.9714         72
  56.0086         47
  56.0457         76
  56.0829         61
  56.1201         57
  56.1572         58
  56.1944         63
  56.2315         77
  56.2687         52
  56.3058         62
  56.3430         60
  56.3801         64
  56.4173         58
  56.4544         63
  56.4916         53
  56.5287         53
  56.5659         62
  56.6030         71
  56.6402         62
  56.6773         59
  56.7145         56
  56.7516         66
  56.7888         57
  56.8259         47
  56.8631         53
  56.9002         47
  56.9374         51
  56.9745         55
  57.0117         54
  57.0488         76
  57.0860         64
  57.1231         56
  57.1603         50
  57.1974         50
  57.2346         42
  57.2717         42
  57.3089         51
  57.3460         58
  57.3832         55
  57.4203         48
  57.4575         74
  57.4946         62
  57.5318         50
  57.5689         61
  57.6061         46
  57.6433         59
  57.6804         53
  57.7176         62
  57.7547         61
  57.7919         48
  57.8290         59
  57.8662         43
  57.9033         50
  57.9405         59
  57.9776         63
  58.0148         53
  58.0519         59
  58.0891         31
  58.1262         48
  58.1634         57
  58.2005         65
  58.2377         61
  58.2748         64
  58.3120         45
  58.3491         54
  58.3863         50
  58.4234         54
  58.4606         50
  58.4977         64
  58.5349         71
  58.5720         50
  58.6092         47
  58.6463         52
  58.6835         55
  58.7206         50
  58.7578         57
  58.7949         60
  58.8321         52
  58.8692         70
  58.9064         55
  58.9435         48
  58.9807         49
  59.0178         53
  59.0550         47
  59.0921         54
  59.1293         62
  59.1664         44
  59.2036         54
  59.2408         59
  59.2779         47
  59.3151         65
  59.3522         61
  59.3894         60
  59.4265         43
  59.4637         55
  59.5008         56
  59.5380         46
  59.5751         73
  59.6123         44
  59.6494         75
  59.6866         53
  59.7237         57
  59.7609         59
  59.7980         62
  59.8352         54
  59.8723         56
  59.9095         58
  59.9466         61
  59.9838         54
  60.0024         60