File: notebooks/data/xrd_data/ML_20220720_4_SJD_4_LaB6-4min.csv
;,2THETA,
5.0000,235
5.0372,288
5.0743,252
5.1115,246
5.1486,272
5.1858,260
5.2229,253
5.2601,240
5.2972,259
5.3344,264
5.3715,243
5.4087,252
5.4458,241
5.4830,227
5.5201,230
5.5573,221
5.5944,231
5.6316,206
5.6687,226
5.7059,236
5.7430,193
5.7802,201
5.8173,218
5.8545,219
5.8916,190
5.9288,177
5.9659,204
6.0031,232
6.0402,210
6.0774,205
6.1145,233
6.1517,175
6.1888,202
6.2260,192
6.2631,177
6.3003,219
6.3374,180
6.3746,178
6.4117,185
6.4489,181
6.4860,166
6.5232,184
6.5604,190
6.5975,176
6.6347,189
6.6718,193
6.7090,173
6.7461,173
6.7833,168
6.8204,165
6.8576,172
6.8947,182
6.9319,184
6.9690,155
7.0062,187
7.0433,171
7.0805,158
7.1176,180
7.1548,139
7.1919,160
7.2291,171
7.2662,143
7.3034,160
7.3405,169
7.3777,156
7.4148,163
7.4520,169
7.4891,170
7.5263,152
7.5634,178
7.6006,165
7.6377,167
7.6749,191
7.7120,171
7.7492,176
7.7863,174
7.8235,164
7.8606,182
7.8978,197
7.9349,190
7.9721,157
8.0092,183
8.0464,188
8.0835,220
8.1207,179
8.1579,184
8.1950,196
8.2322,203
8.2693,194
8.3065,176
8.3436,205
8.3808,199
8.4179,206
8.4551,188
8.4922,203
8.5294,179
8.5665,201
8.6037,214
8.6408,218
8.6780,221
8.7151,194
8.7523,211
8.7894,169
8.8266,205
8.8637,188
8.9009,186
8.9380,224
8.9752,223
9.0123,233
9.0495,244
9.0866,253
9.1238,207
9.1609,238
9.1981,183
9.2352,227
9.2724,234
9.3095,246
9.3467,192
9.3838,219
9.4210,243
9.4581,240
9.4953,255
9.5324,204
9.5696,205
9.6067,231
9.6439,207
9.6811,226
9.7182,232
9.7554,220
9.7925,229
9.8297,257
9.8668,264
9.9040,213
9.9411,250
9.9783,247
10.0154,234
10.0526,247
10.0897,233
10.1269,206
10.1640,253
10.2012,223
10.2383,235
10.2755,232
10.3126,235
10.3498,261
10.3869,207
10.4241,224
10.4612,251
10.4984,236
10.5355,233
10.5727,267
10.6098,244
10.6470,249
10.6841,219
10.7213,257
10.7584,242
10.7956,247
10.8327,243
10.8699,243
10.9070,238
10.9442,235
10.9813,244
11.0185,242
11.0556,211
11.0928,232
11.1299,251
11.1671,226
11.2043,230
11.2414,249
11.2786,269
11.3157,249
11.3529,248
11.3900,220
11.4272,260
11.4643,234
11.5015,223
11.5386,246
11.5758,260
11.6129,234
11.6501,239
11.6872,223
11.7244,267
11.7615,257
11.7987,222
11.8358,241
11.8730,219
11.9101,241
11.9473,236
11.9844,256
12.0216,202
12.0587,219
12.0959,227
12.1330,236
12.1702,235
12.2073,257
12.2445,218
12.2816,222
12.3188,212
12.3559,219
12.3931,230
12.4302,235
12.4674,200
12.5045,213
12.5417,220
12.5788,221
12.6160,199
12.6531,215
12.6903,229
12.7274,217
12.7646,207
12.8018,217
12.8389,223
12.8761,220
12.9132,197
12.9504,199
12.9875,216
13.0247,219
13.0618,205
13.0990,231
13.1361,186
13.1733,193
13.2104,199
13.2476,176
13.2847,182
13.3219,197
13.3590,214
13.3962,201
13.4333,185
13.4705,207
13.5076,224
13.5448,212
13.5819,194
13.6191,182
13.6562,201
13.6934,187
13.7305,203
13.7677,194
13.8048,182
13.8420,179
13.8791,184
13.9163,185
13.9534,202
13.9906,197
14.0277,171
14.0649,198
14.1020,179
14.1392,173
14.1763,199
14.2135,181
14.2506,194
14.2878,157
14.3250,176
14.3621,161
14.3993,173
14.4364,179
14.4736,173
14.5107,183
14.5479,194
14.5850,165
14.6222,187
14.6593,167
14.6965,174
14.7336,202
14.7708,132
14.8079,168
14.8451,181
14.8822,144
14.9194,179
14.9565,164
14.9937,172
15.0308,178
15.0680,185
15.1051,187
15.1423,172
15.1794,178
15.2166,196
15.2537,172
15.2909,179
15.3280,177
15.3652,166
15.4023,199
15.4395,159
15.4766,157
15.5138,167
15.5509,142
15.5881,167
15.6252,156
15.6624,168
15.6995,154
15.7367,162
15.7738,161
15.8110,177
15.8482,155
15.8853,158
15.9225,152
15.9596,178
15.9968,155
16.0339,150
16.0711,175
16.1082,175
16.1454,176
16.1825,150
16.2197,158
16.2568,178
16.2940,160
16.3311,194
16.3683,178
16.4054,148
16.4426,188
16.4797,207
16.5169,144
16.5540,138
16.5912,176
16.6283,163
16.6655,164
16.7026,184
16.7398,163
16.7769,163
16.8141,161
16.8512,173
16.8884,173
16.9255,168
16.9627,159
16.9998,144
17.0370,170
17.0741,177
17.1113,168
17.1484,154
17.1856,166
17.2227,149
17.2599,164
17.2970,170
17.3342,165
17.3713,151
17.4085,165
17.4457,155
17.4828,156
17.5200,140
17.5571,188
17.5943,143
17.6314,157
17.6686,152
17.7057,209
17.7429,155
17.7800,179
17.8172,165
17.8543,158
17.8915,154
17.9286,183
17.9658,163
18.0029,135
18.0401,170
18.0772,165
18.1144,166
18.1515,151
18.1887,170
18.2258,161
18.2630,162
18.3001,158
18.3373,172
18.3744,162
18.4116,196
18.4487,177
18.4859,173
18.5230,158
18.5602,173
18.5973,189
18.6345,174
18.6716,169
18.7088,175
18.7459,169
18.7831,154
18.8202,187
18.8574,141
18.8945,178
18.9317,168
18.9689,170
19.0060,179
19.0432,182
19.0803,182
19.1175,183
19.1546,168
19.1918,180
19.2289,184
19.2661,184
19.3032,158
19.3404,170
19.3775,175
19.4147,165
19.4518,193
19.4890,187
19.5261,181
19.5633,155
19.6004,168
19.6376,189
19.6747,175
19.7119,191
19.7490,183
19.7862,161
19.8233,179
19.8605,184
19.8976,190
19.9348,178
19.9719,184
20.0091,192
20.0462,172
20.0834,179
20.1205,175
20.1577,206
20.1948,162
20.2320,183
20.2691,205
20.3063,173
20.3434,199
20.3806,193
20.4177,193
20.4549,173
20.4921,193
20.5292,196
20.5664,195
20.6035,190
20.6407,189
20.6778,206
20.7150,183
20.7521,166
20.7893,192
20.8264,192
20.8636,196
20.9007,211
20.9379,186
20.9750,205
21.0122,191
21.0493,201
21.0865,185
21.1236,214
21.1608,239
21.1979,306
21.2351,333
21.2722,313
21.3094,337
21.3465,522
21.3837,436
21.4208,342
21.4580,217
21.4951,189
21.5323,179
21.5694,205
21.6066,201
21.6437,176
21.6809,179
21.7180,199
21.7552,190
21.7923,176
21.8295,212
21.8666,219
21.9038,202
21.9409,200
21.9781,189
22.0152,198
22.0524,205
22.0896,200
22.1267,179
22.1639,191
22.2010,211
22.2382,221
22.2753,213
22.3125,198
22.3496,172
22.3868,208
22.4239,197
22.4611,217
22.4982,203
22.5354,206
22.5725,207
22.6097,204
22.6468,192
22.6840,213
22.7211,211
22.7583,202
22.7954,186
22.8326,197
22.8697,189
22.9069,198
22.9440,221
22.9812,229
23.0183,192
23.0555,190
23.0926,228
23.1298,223
23.1669,251
23.2041,213
23.2412,207
23.2784,217
23.3155,181
23.3527,227
23.3898,216
23.4270,206
23.4641,197
23.5013,178
23.5384,220
23.5756,203
23.6128,166
23.6499,200
23.6871,200
23.7242,195
23.7614,207
23.7985,217
23.8357,213
23.8728,204
23.9100,198
23.9471,188
23.9843,177
24.0214,218
24.0586,209
24.0957,204
24.1329,191
24.1700,201
24.2072,195
24.2443,198
24.2815,259
24.3186,217
24.3558,221
24.3929,199
24.4301,217
24.4672,202
24.5044,212
24.5415,204
24.5787,199
24.6158,181
24.6530,182
24.6901,204
24.7273,194
24.7644,198
24.8016,205
24.8387,218
24.8759,191
24.9130,218
24.9502,203
24.9873,198
25.0245,195
25.0616,214
25.0988,197
25.1360,181
25.1731,215
25.2103,186
25.2474,202
25.2846,188
25.3217,217
25.3589,206
25.3960,210
25.4332,210
25.4703,185
25.5075,193
25.5446,212
25.5818,212
25.6189,193
25.6561,185
25.6932,191
25.7304,187
25.7675,194
25.8047,202
25.8418,181
25.8790,207
25.9161,179
25.9533,171
25.9904,199
26.0276,196
26.0647,213
26.1019,181
26.1390,201
26.1762,195
26.2133,176
26.2505,185
26.2876,196
26.3248,172
26.3619,207
26.3991,190
26.4362,180
26.4734,199
26.5105,172
26.5477,199
26.5848,200
26.6220,191
26.6591,167
26.6963,184
26.7335,177
26.7706,167
26.8078,183
26.8449,187
26.8821,199
26.9192,180
26.9564,203
26.9935,185
27.0307,194
27.0678,212
27.1050,192
27.1421,200
27.1793,232
27.2164,260
27.2536,217
27.2907,238
27.3279,188
27.3650,209
27.4022,185
27.4393,174
27.4765,186
27.5136,194
27.5508,198
27.5879,191
27.6251,178
27.6622,178
27.6994,170
27.7365,177
27.7737,171
27.8108,180
27.8480,167
27.8851,192
27.9223,160
27.9594,186
27.9966,187
28.0337,167
28.0709,170
28.1080,172
28.1452,183
28.1823,192
28.2195,182
28.2567,172
28.2938,183
28.3310,171
28.3681,165
28.4053,198
28.4424,162
28.4796,161
28.5167,173
28.5539,137
28.5910,182
28.6282,157
28.6653,170
28.7025,172
28.7396,158
28.7768,172
28.8139,158
28.8511,184
28.8882,171
28.9254,172
28.9625,165
28.9997,175
29.0368,164
29.0740,151
29.1111,155
29.1483,156
29.1854,142
29.2226,165
29.2597,164
29.2969,150
29.3340,147
29.3712,159
29.4083,156
29.4455,171
29.4826,162
29.5198,139
29.5569,156
29.5941,165
29.6312,150
29.6684,186
29.7055,150
29.7427,146
29.7799,168
29.8170,169
29.8542,139
29.8913,155
29.9285,170
29.9656,146
30.0028,155
30.0399,164
30.0771,147
30.1142,185
30.1514,143
30.1885,156
30.2257,157
30.2628,158
30.3000,153
30.3371,200
30.3743,324
30.4114,289
30.4486,236
30.4857,211
30.5229,182
30.5600,154
30.5972,178
30.6343,145
30.6715,153
30.7086,148
30.7458,148
30.7829,149
30.8201,177
30.8572,122
30.8944,151
30.9315,130
30.9687,158
31.0058,156
31.0430,168
31.0801,157
31.1173,142
31.1544,168
31.1916,132
31.2287,140
31.2659,159
31.3030,160
31.3402,144
31.3774,164
31.4145,138
31.4517,131
31.4888,129
31.5260,143
31.5631,124
31.6003,141
31.6374,167
31.6746,152
31.7117,132
31.7489,138
31.7860,142
31.8232,141
31.8603,128
31.8975,136
31.9346,141
31.9718,142
32.0089,131
32.0461,143
32.0832,115
32.1204,117
32.1575,159
32.1947,131
32.2318,118
32.2690,117
32.3061,142
32.3433,137
32.3804,141
32.4176,141
32.4547,159
32.4919,131
32.5290,160
32.5662,130
32.6033,147
32.6405,121
32.6776,146
32.7148,113
32.7519,129
32.7891,137
32.8262,126
32.8634,125
32.9006,115
32.9377,107
32.9749,129
33.0120,100
33.0492,122
33.0863,108
33.1235,125
33.1606,122
33.1978,122
33.2349,121
33.2721,133
33.3092,118
33.3464,143
33.3835,117
33.4207,105
33.4578,105
33.4950,125
33.5321,107
33.5693,134
33.6064,110
33.6436,143
33.6807,92
33.7179,117
33.7550,130
33.7922,120
33.8293,128
33.8665,133
33.9036,122
33.9408,97
33.9779,112
34.0151,130
34.0522,123
34.0894,131
34.1265,117
34.1637,126
34.2008,131
34.2380,118
34.2751,112
34.3123,113
34.3494,106
34.3866,109
34.4238,109
34.4609,112
34.4981,116
34.5352,126
34.5724,107
34.6095,121
34.6467,149
34.6838,125
34.7210,146
34.7581,177
34.7953,142
34.8324,137
34.8696,138
34.9067,147
34.9439,106
34.9810,114
35.0182,114
35.0553,104
35.0925,104
35.1296,118
35.1668,108
35.2039,96
35.2411,110
35.2782,111
35.3154,94
35.3525,102
35.3897,100
35.4268,104
35.4640,94
35.5011,100
35.5383,101
35.5754,97
35.6126,113
35.6497,113
35.6869,87
35.7240,85
35.7612,88
35.7983,93
35.8355,105
35.8726,95
35.9098,98
35.9469,116
35.9841,96
36.0213,95
36.0584,93
36.0956,97
36.1327,87
36.1699,108
36.2070,98
36.2442,101
36.2813,92
36.3185,82
36.3556,75
36.3928,100
36.4299,85
36.4671,111
36.5042,91
36.5414,93
36.5785,112
36.6157,103
36.6528,97
36.6900,77
36.7271,91
36.7643,96
36.8014,83
36.8386,98
36.8757,84
36.9129,82
36.9500,86
36.9872,90
37.0243,97
37.0615,100
37.0986,78
37.1358,85
37.1729,104
37.2101,96
37.2472,95
37.2844,102
37.3215,100
37.3587,103
37.3958,108
37.4330,176
37.4701,140
37.5073,115
37.5445,137
37.5816,104
37.6188,81
37.6559,87
37.6931,83
37.7302,100
37.7674,102
37.8045,95
37.8417,91
37.8788,97
37.9160,64
37.9531,88
37.9903,92
38.0274,92
38.0646,67
38.1017,89
38.1389,78
38.1760,80
38.2132,81
38.2503,72
38.2875,92
38.3246,88
38.3618,86
38.3989,75
38.4361,90
38.4732,92
38.5104,77
38.5475,91
38.5847,89
38.6218,77
38.6590,82
38.6961,73
38.7333,72
38.7704,98
38.8076,91
38.8447,86
38.8819,76
38.9190,83
38.9562,79
38.9933,80
39.0305,97
39.0677,76
39.1048,77
39.1420,77
39.1791,70
39.2163,90
39.2534,82
39.2906,75
39.3277,64
39.3649,82
39.4020,72
39.4392,78
39.4763,81
39.5135,87
39.5506,74
39.5878,58
39.6249,83
39.6621,84
39.6992,89
39.7364,83
39.7735,64
39.8107,81
39.8478,85
39.8850,74
39.9221,71
39.9593,75
39.9964,74
40.0336,68
40.0707,78
40.1079,72
40.1450,68
40.1822,75
40.2193,88
40.2565,69
40.2936,73
40.3308,86
40.3679,79
40.4051,65
40.4422,71
40.4794,87
40.5165,84
40.5537,92
40.5908,74
40.6280,78
40.6652,72
40.7023,70
40.7395,73
40.7766,76
40.8138,85
40.8509,79
40.8881,70
40.9252,82
40.9624,92
40.9995,94
41.0367,64
41.0738,92
41.1110,86
41.1481,74
41.1853,82
41.2224,77
41.2596,81
41.2967,72
41.3339,74
41.3710,83
41.4082,67
41.4453,85
41.4825,87
41.5196,68
41.5568,80
41.5939,55
41.6311,79
41.6682,80
41.7054,70
41.7425,83
41.7797,89
41.8168,85
41.8540,72
41.8911,77
41.9283,79
41.9654,78
42.0026,67
42.0397,72
42.0769,70
42.1140,66
42.1512,78
42.1884,70
42.2255,83
42.2627,90
42.2998,73
42.3370,71
42.3741,80
42.4113,73
42.4484,80
42.4856,79
42.5227,68
42.5599,85
42.5970,89
42.6342,70
42.6713,71
42.7085,67
42.7456,67
42.7828,90
42.8199,63
42.8571,67
42.8942,90
42.9314,82
42.9685,85
43.0057,73
43.0428,69
43.0800,67
43.1171,67
43.1543,69
43.1914,77
43.2286,85
43.2657,87
43.3029,87
43.3400,79
43.3772,74
43.4143,70
43.4515,95
43.4886,124
43.5258,128
43.5629,85
43.6001,106
43.6372,91
43.6744,91
43.7116,99
43.7487,75
43.7859,69
43.8230,67
43.8602,76
43.8973,74
43.9345,61
43.9716,66
44.0088,77
44.0459,79
44.0831,79
44.1202,62
44.1574,76
44.1945,73
44.2317,70
44.2688,75
44.3060,77
44.3431,85
44.3803,68
44.4174,86
44.4546,83
44.4917,88
44.5289,76
44.5660,83
44.6032,83
44.6403,79
44.6775,76
44.7146,70
44.7518,74
44.7889,82
44.8261,67
44.8632,86
44.9004,66
44.9375,69
44.9747,98
45.0118,68
45.0490,64
45.0861,77
45.1233,76
45.1604,71
45.1976,73
45.2347,67
45.2719,70
45.3091,70
45.3462,65
45.3834,60
45.4205,59
45.4577,68
45.4948,47
45.5320,81
45.5691,81
45.6063,61
45.6434,76
45.6806,74
45.7177,68
45.7549,68
45.7920,80
45.8292,85
45.8663,81
45.9035,76
45.9406,72
45.9778,63
46.0149,61
46.0521,65
46.0892,68
46.1264,52
46.1635,76
46.2007,76
46.2378,46
46.2750,62
46.3121,81
46.3493,72
46.3864,66
46.4236,64
46.4607,62
46.4979,61
46.5350,65
46.5722,59
46.6093,83
46.6465,74
46.6836,79
46.7208,58
46.7579,64
46.7951,69
46.8323,60
46.8694,70
46.9066,60
46.9437,63
46.9809,63
47.0180,64
47.0552,49
47.0923,62
47.1295,70
47.1666,56
47.2038,71
47.2409,60
47.2781,70
47.3152,71
47.3524,67
47.3895,68
47.4267,62
47.4638,67
47.5010,61
47.5381,72
47.5753,57
47.6124,57
47.6496,75
47.6867,77
47.7239,55
47.7610,70
47.7982,61
47.8353,57
47.8725,59
47.9096,68
47.9468,61
47.9839,65
48.0211,72
48.0582,57
48.0954,52
48.1325,65
48.1697,65
48.2068,64
48.2440,71
48.2811,55
48.3183,73
48.3555,65
48.3926,64
48.4298,63
48.4669,61
48.5041,69
48.5412,55
48.5784,64
48.6155,61
48.6527,57
48.6898,48
48.7270,74
48.7641,72
48.8013,65
48.8384,80
48.8756,68
48.9127,77
48.9499,119
48.9870,105
49.0242,84
49.0613,74
49.0985,87
49.1356,78
49.1728,65
49.2099,74
49.2471,67
49.2842,70
49.3214,79
49.3585,61
49.3957,58
49.4328,45
49.4700,61
49.5071,63
49.5443,61
49.5814,58
49.6186,52
49.6557,72
49.6929,64
49.7300,61
49.7672,55
49.8043,51
49.8415,65
49.8786,48
49.9158,58
49.9530,58
49.9901,59
50.0273,68
50.0644,69
50.1016,68
50.1387,63
50.1759,64
50.2130,81
50.2502,68
50.2873,65
50.3245,68
50.3616,61
50.3988,74
50.4359,67
50.4731,72
50.5102,68
50.5474,76
50.5845,49
50.6217,53
50.6588,68
50.6960,51
50.7331,65
50.7703,63
50.8074,62
50.8446,55
50.8817,62
50.9189,48
50.9560,69
50.9932,68
51.0303,61
51.0675,68
51.1046,51
51.1418,51
51.1789,76
51.2161,59
51.2532,78
51.2904,64
51.3275,63
51.3647,71
51.4018,88
51.4390,63
51.4762,50
51.5133,74
51.5505,59
51.5876,68
51.6248,61
51.6619,57
51.6991,75
51.7362,61
51.7734,59
51.8105,69
51.8477,77
51.8848,64
51.9220,53
51.9591,65
51.9963,77
52.0334,56
52.0706,65
52.1077,69
52.1449,55
52.1820,65
52.2192,62
52.2563,65
52.2935,65
52.3306,50
52.3678,52
52.4049,41
52.4421,61
52.4792,47
52.5164,64
52.5535,56
52.5907,56
52.6278,72
52.6650,71
52.7021,62
52.7393,78
52.7764,62
52.8136,56
52.8507,59
52.8879,69
52.9250,60
52.9622,70
52.9994,70
53.0365,65
53.0737,55
53.1108,63
53.1480,74
53.1851,60
53.2223,58
53.2594,53
53.2966,66
53.3337,78
53.3709,55
53.4080,55
53.4452,60
53.4823,69
53.5195,51
53.5566,62
53.5938,69
53.6309,69
53.6681,61
53.7052,51
53.7424,60
53.7795,67
53.8167,66
53.8538,54
53.8910,66
53.9281,61
53.9653,78
54.0024,88
54.0396,66
54.0767,73
54.1139,87
54.1510,60
54.1882,62
54.2253,46
54.2625,62
54.2996,54
54.3368,54
54.3739,53
54.4111,73
54.4482,64
54.4854,59
54.5225,57
54.5597,53
54.5969,59
54.6340,49
54.6712,67
54.7083,53
54.7455,63
54.7826,47
54.8198,57
54.8569,53
54.8941,59
54.9312,58
54.9684,57
55.0055,67
55.0427,64
55.0798,54
55.1170,59
55.1541,52
55.1913,51
55.2284,59
55.2656,50
55.3027,62
55.3399,58
55.3770,62
55.4142,55
55.4513,59
55.4885,58
55.5256,53
55.5628,54
55.5999,55
55.6371,55
55.6742,52
55.7114,51
55.7485,49
55.7857,72
55.8228,51
55.8600,45
55.8971,57
55.9343,67
55.9714,65
56.0086,54
56.0457,56
56.0829,51
56.1201,58
56.1572,59
56.1944,54
56.2315,50
56.2687,58
56.3058,60
56.3430,65
56.3801,70
56.4173,48
56.4544,57
56.4916,56
56.5287,60
56.5659,71
56.6030,62
56.6402,43
56.6773,50
56.7145,80
56.7516,60
56.7888,61
56.8259,67
56.8631,57
56.9002,73
56.9374,58
56.9745,66
57.0117,52
57.0488,54
57.0860,55
57.1231,68
57.1603,59
57.1974,63
57.2346,69
57.2717,75
57.3089,46
57.3460,51
57.3832,58
57.4203,47
57.4575,57
57.4946,41
57.5318,54
57.5689,69
57.6061,54
57.6433,69
57.6804,53
57.7176,76
57.7547,64
57.7919,51
57.8290,66
57.8662,52
57.9033,60
57.9405,66
57.9776,45
58.0148,60
58.0519,62
58.0891,56
58.1262,56
58.1634,63
58.2005,63
58.2377,68
58.2748,51
58.3120,58
58.3491,52
58.3863,47
58.4234,59
58.4606,54
58.4977,61
58.5349,50
58.5720,56
58.6092,50
58.6463,50
58.6835,71
58.7206,59
58.7578,61
58.7949,53
58.8321,55
58.8692,49
58.9064,60
58.9435,58
58.9807,48
59.0178,54
59.0550,53
59.0921,42
59.1293,48
59.1664,67
59.2036,53
59.2408,62
59.2779,45
59.3151,60
59.3522,50
59.3894,69
59.4265,54
59.4637,52
59.5008,48
59.5380,55
59.5751,64
59.6123,67
59.6494,51
59.6866,51
59.7237,69
59.7609,64
59.7980,62
59.8352,47
59.8723,61
59.9095,47
59.9466,54
59.9838,57
60.0024,47