File: notebooks/data/xrd_data/ML_20220721_11_SJD_4_LaB6-4min.uxd
; (content of file Y:\Sam\Apurva-07-20-2022\puck1\ML_20220721_11_SJD_0_LaB6-4min.raw)
_FILEVERSION = 3
_SAMPLE = ML_20220721_11_SJD_0_LaB6-4min
_+SAMPLE =
_SITE = USA
_USER = Administrator
_GONIOMETER_CODE = 20
; Goniometer : D8 theta/2theta, stage : Unknown
_ATTACHMENTS_CODE = 0
_GONIOMETER_RADIUS = 200.5
_FIXED_DIVSLIT = 0.6
_FIXED_SAMPLESLIT = 0
_SOLLER_SLITS = 2
_FIXED_DETSLIT = 9.55
_MONOCHROMATOR = 0
; Incident beam monochromator : None
_SOLLER_SLITS_2 = N
_THIN_FILM = N
_BETA_FILTER = Y
_FIXED_ANTISLIT = 5.89
_ANALYZER_CODE = 0
; Received beam analyzer : None
_DATEMEASURED = "25-Jul-2022 14:41:55"
_WL_UNIT = A
_WL1 = 1.5406
_WL2 = 1.54439
_WL3 = 1.39222
_WLRATIO = 0.5
_ANODE = Cu
_V4_INF_CREATOR = XRDWizard
_V4_INF_CREATOR_VERSION = V2.9.0.22
_V4_INF_WIZARD_VERSION = V2.9.0.22
_V4_INF_WIZARD_ADDINS = V2.9.0.22
_V4_INF_WIZARD_DOCTYPE = XRD
_V4_INF_OSUSER = McQueenLab
_V4_INF_USER = Administrator
_V4_INF_SITE = USA
_V4_INF_SAMPLEID = ML_20220721_11_SJD_0_LaB6-4min

; Data for range 1
_DRIVE = COUPLED
_STEPTIME = 11.28
_STEPSIZE = 0.0185756
_STEPMODE = C
_START = 5
_THETA = 2.5
_2THETA = 5
_KHI = 0
_PHI = 0
_X = 0
_Y = 0
_Z = 0
_DETECTOR = 5
; Detector type : Unknown
_DETECTORSLIT = unkn
_AUX1 = 0
_AUX2 = 0
_AUX3 = 0
_TIMESTARTED = 16
_TEMP_RATE = -1
_TEMP_DELAY = -1
_KV = 40
_MA = 40
_RANGE_WL = 1.5406
_3DPLANE = 0
_V4_ADDITIONALDETECTOR = 257
_V4_PSD2THETA = 3.3924
_V4_PSDCHANNEL1 = 0
_V4_PSDAPERTURE = 12.68
_V4_PSDTYPE = 5
_V4_PSDFIXED = 0
_V4_COUNTERS_MASK = 4096
_V4_DRIVES_MASK = 0
_V4_ENCODERS_MASK = 0
_2THETACOUNTS = 1
; 2THETA  PSD
   5.0000        288
   5.0372        225
   5.0743        256
   5.1115        217
   5.1486        222
   5.1858        220
   5.2229        234
   5.2601        225
   5.2972        244
   5.3344        206
   5.3715        222
   5.4087        228
   5.4458        212
   5.4830        206
   5.5201        205
   5.5573        214
   5.5944        235
   5.6316        199
   5.6687        211
   5.7059        193
   5.7430        209
   5.7802        195
   5.8173        193
   5.8545        211
   5.8916        171
   5.9288        183
   5.9659        156
   6.0031        184
   6.0402        195
   6.0774        201
   6.1145        196
   6.1517        179
   6.1888        189
   6.2260        184
   6.2631        188
   6.3003        154
   6.3374        175
   6.3746        189
   6.4117        174
   6.4489        187
   6.4860        167
   6.5232        189
   6.5604        184
   6.5975        167
   6.6347        166
   6.6718        191
   6.7090        151
   6.7461        156
   6.7833        157
   6.8204        162
   6.8576        154
   6.8947        153
   6.9319        164
   6.9690        142
   7.0062        147
   7.0433        156
   7.0805        153
   7.1176        166
   7.1548        158
   7.1919        151
   7.2291        164
   7.2662        153
   7.3034        147
   7.3405        160
   7.3777        162
   7.4148        158
   7.4520        186
   7.4891        154
   7.5263        159
   7.5634        154
   7.6006        176
   7.6377        170
   7.6749        192
   7.7120        193
   7.7492        182
   7.7863        170
   7.8235        165
   7.8606        171
   7.8978        189
   7.9349        192
   7.9721        178
   8.0092        197
   8.0464        176
   8.0835        169
   8.1207        181
   8.1579        192
   8.1950        205
   8.2322        169
   8.2693        177
   8.3065        220
   8.3436        217
   8.3808        186
   8.4179        209
   8.4551        201
   8.4922        196
   8.5294        229
   8.5665        205
   8.6037        194
   8.6408        192
   8.6780        189
   8.7151        227
   8.7523        201
   8.7894        210
   8.8266        230
   8.8637        218
   8.9009        210
   8.9380        235
   8.9752        191
   9.0123        217
   9.0495        226
   9.0866        183
   9.1238        222
   9.1609        205
   9.1981        228
   9.2352        208
   9.2724        214
   9.3095        210
   9.3467        240
   9.3838        205
   9.4210        204
   9.4581        221
   9.4953        240
   9.5324        228
   9.5696        231
   9.6067        269
   9.6439        236
   9.6811        233
   9.7182        232
   9.7554        236
   9.7925        220
   9.8297        229
   9.8668        253
   9.9040        260
   9.9411        223
   9.9783        285
  10.0154        265
  10.0526        214
  10.0897        231
  10.1269        235
  10.1640        240
  10.2012        221
  10.2383        236
  10.2755        267
  10.3126        231
  10.3498        244
  10.3869        254
  10.4241        204
  10.4612        286
  10.4984        215
  10.5355        245
  10.5727        255
  10.6098        254
  10.6470        224
  10.6841        250
  10.7213        224
  10.7584        265
  10.7956        240
  10.8327        218
  10.8699        252
  10.9070        264
  10.9442        274
  10.9813        247
  11.0185        241
  11.0556        219
  11.0928        219
  11.1299        235
  11.1671        230
  11.2043        251
  11.2414        251
  11.2786        231
  11.3157        212
  11.3529        259
  11.3900        250
  11.4272        229
  11.4643        283
  11.5015        228
  11.5386        258
  11.5758        212
  11.6129        238
  11.6501        275
  11.6872        255
  11.7244        251
  11.7615        221
  11.7987        236
  11.8358        251
  11.8730        237
  11.9101        232
  11.9473        226
  11.9844        250
  12.0216        220
  12.0587        255
  12.0959        222
  12.1330        245
  12.1702        230
  12.2073        217
  12.2445        232
  12.2816        210
  12.3188        218
  12.3559        216
  12.3931        210
  12.4302        203
  12.4674        225
  12.5045        205
  12.5417        234
  12.5788        239
  12.6160        230
  12.6531        226
  12.6903        216
  12.7274        213
  12.7646        198
  12.8018        205
  12.8389        222
  12.8761        211
  12.9132        229
  12.9504        209
  12.9875        217
  13.0247        224
  13.0618        206
  13.0990        191
  13.1361        211
  13.1733        224
  13.2104        218
  13.2476        183
  13.2847        179
  13.3219        195
  13.3590        210
  13.3962        172
  13.4333        199
  13.4705        214
  13.5076        188
  13.5448        186
  13.5819        206
  13.6191        194
  13.6562        182
  13.6934        190
  13.7305        189
  13.7677        201
  13.8048        213
  13.8420        204
  13.8791        186
  13.9163        194
  13.9534        175
  13.9906        185
  14.0277        188
  14.0649        188
  14.1020        182
  14.1392        172
  14.1763        170
  14.2135        184
  14.2506        210
  14.2878        172
  14.3250        177
  14.3621        202
  14.3993        179
  14.4364        206
  14.4736        150
  14.5107        190
  14.5479        173
  14.5850        160
  14.6222        175
  14.6593        167
  14.6965        184
  14.7336        161
  14.7708        187
  14.8079        187
  14.8451        162
  14.8822        172
  14.9194        150
  14.9565        152
  14.9937        167
  15.0308        157
  15.0680        148
  15.1051        159
  15.1423        185
  15.1794        153
  15.2166        171
  15.2537        161
  15.2909        185
  15.3280        174
  15.3652        182
  15.4023        154
  15.4395        162
  15.4766        188
  15.5138        194
  15.5509        166
  15.5881        170
  15.6252        168
  15.6624        153
  15.6995        175
  15.7367        173
  15.7738        172
  15.8110        166
  15.8482        151
  15.8853        163
  15.9225        162
  15.9596        187
  15.9968        172
  16.0339        185
  16.0711        164
  16.1082        160
  16.1454        147
  16.1825        167
  16.2197        143
  16.2568        178
  16.2940        151
  16.3311        161
  16.3683        160
  16.4054        168
  16.4426        164
  16.4797        156
  16.5169        162
  16.5540        144
  16.5912        147
  16.6283        169
  16.6655        162
  16.7026        167
  16.7398        174
  16.7769        149
  16.8141        138
  16.8512        153
  16.8884        171
  16.9255        175
  16.9627        160
  16.9998        142
  17.0370        167
  17.0741        149
  17.1113        182
  17.1484        189
  17.1856        159
  17.2227        155
  17.2599        185
  17.2970        176
  17.3342        178
  17.3713        165
  17.4085        172
  17.4457        163
  17.4828        157
  17.5200        162
  17.5571        185
  17.5943        158
  17.6314        188
  17.6686        173
  17.7057        180
  17.7429        154
  17.7800        171
  17.8172        141
  17.8543        145
  17.8915        183
  17.9286        153
  17.9658        186
  18.0029        157
  18.0401        155
  18.0772        176
  18.1144        171
  18.1515        171
  18.1887        149
  18.2258        173
  18.2630        172
  18.3001        163
  18.3373        164
  18.3744        165
  18.4116        173
  18.4487        175
  18.4859        159
  18.5230        147
  18.5602        178
  18.5973        171
  18.6345        167
  18.6716        184
  18.7088        180
  18.7459        170
  18.7831        180
  18.8202        167
  18.8574        159
  18.8945        176
  18.9317        153
  18.9689        158
  19.0060        182
  19.0432        175
  19.0803        148
  19.1175        168
  19.1546        166
  19.1918        176
  19.2289        159
  19.2661        179
  19.3032        181
  19.3404        203
  19.3775        167
  19.4147        174
  19.4518        189
  19.4890        178
  19.5261        194
  19.5633        184
  19.6004        169
  19.6376        169
  19.6747        181
  19.7119        161
  19.7490        178
  19.7862        199
  19.8233        156
  19.8605        170
  19.8976        164
  19.9348        202
  19.9719        199
  20.0091        200
  20.0462        205
  20.0834        181
  20.1205        186
  20.1577        178
  20.1948        186
  20.2320        187
  20.2691        198
  20.3063        176
  20.3434        181
  20.3806        193
  20.4177        182
  20.4549        182
  20.4921        203
  20.5292        190
  20.5664        184
  20.6035        179
  20.6407        178
  20.6778        165
  20.7150        199
  20.7521        167
  20.7893        196
  20.8264        190
  20.8636        214
  20.9007        180
  20.9379        196
  20.9750        186
  21.0122        182
  21.0493        197
  21.0865        203
  21.1236        191
  21.1608        227
  21.1979        212
  21.2351        262
  21.2722        346
  21.3094        299
  21.3465        354
  21.3837        412
  21.4208        435
  21.4580        345
  21.4951        259
  21.5323        201
  21.5694        212
  21.6066        204
  21.6437        215
  21.6809        193
  21.7180        204
  21.7552        223
  21.7923        206
  21.8295        209
  21.8666        200
  21.9038        222
  21.9409        199
  21.9781        217
  22.0152        190
  22.0524        194
  22.0896        182
  22.1267        190
  22.1639        189
  22.2010        205
  22.2382        208
  22.2753        190
  22.3125        213
  22.3496        214
  22.3868        175
  22.4239        177
  22.4611        207
  22.4982        187
  22.5354        177
  22.5725        205
  22.6097        195
  22.6468        204
  22.6840        199
  22.7211        188
  22.7583        217
  22.7954        208
  22.8326        205
  22.8697        203
  22.9069        170
  22.9440        184
  22.9812        186
  23.0183        195
  23.0555        211
  23.0926        227
  23.1298        218
  23.1669        201
  23.2041        210
  23.2412        217
  23.2784        200
  23.3155        164
  23.3527        225
  23.3898        202
  23.4270        199
  23.4641        187
  23.5013        193
  23.5384        196
  23.5756        227
  23.6128        220
  23.6499        216
  23.6871        189
  23.7242        180
  23.7614        196
  23.7985        197
  23.8357        200
  23.8728        210
  23.9100        205
  23.9471        184
  23.9843        233
  24.0214        191
  24.0586        216
  24.0957        187
  24.1329        219
  24.1700        196
  24.2072        203
  24.2443        191
  24.2815        208
  24.3186        213
  24.3558        216
  24.3929        218
  24.4301        214
  24.4672        193
  24.5044        208
  24.5415        225
  24.5787        199
  24.6158        190
  24.6530        178
  24.6901        195
  24.7273        178
  24.7644        174
  24.8016        180
  24.8387        196
  24.8759        219
  24.9130        175
  24.9502        162
  24.9873        200
  25.0245        180
  25.0616        193
  25.0988        209
  25.1360        215
  25.1731        210
  25.2103        207
  25.2474        196
  25.2846        211
  25.3217        182
  25.3589        193
  25.3960        199
  25.4332        181
  25.4703        203
  25.5075        191
  25.5446        194
  25.5818        184
  25.6189        205
  25.6561        189
  25.6932        202
  25.7304        178
  25.7675        200
  25.8047        210
  25.8418        174
  25.8790        215
  25.9161        191
  25.9533        173
  25.9904        185
  26.0276        184
  26.0647        179
  26.1019        179
  26.1390        198
  26.1762        208
  26.2133        215
  26.2505        193
  26.2876        187
  26.3248        159
  26.3619        214
  26.3991        189
  26.4362        184
  26.4734        193
  26.5105        190
  26.5477        198
  26.5848        169
  26.6220        199
  26.6591        192
  26.6963        200
  26.7335        187
  26.7706        183
  26.8078        191
  26.8449        193
  26.8821        206
  26.9192        217
  26.9564        203
  26.9935        170
  27.0307        189
  27.0678        193
  27.1050        194
  27.1421        198
  27.1793        189
  27.2164        225
  27.2536        275
  27.2907        248
  27.3279        214
  27.3650        217
  27.4022        161
  27.4393        176
  27.4765        196
  27.5136        177
  27.5508        202
  27.5879        182
  27.6251        179
  27.6622        176
  27.6994        169
  27.7365        159
  27.7737        178
  27.8108        176
  27.8480        166
  27.8851        170
  27.9223        177
  27.9594        185
  27.9966        184
  28.0337        170
  28.0709        182
  28.1080        177
  28.1452        163
  28.1823        166
  28.2195        169
  28.2567        184
  28.2938        206
  28.3310        174
  28.3681        172
  28.4053        156
  28.4424        182
  28.4796        167
  28.5167        171
  28.5539        142
  28.5910        185
  28.6282        169
  28.6653        166
  28.7025        185
  28.7396        163
  28.7768        168
  28.8139        161
  28.8511        172
  28.8882        168
  28.9254        163
  28.9625        139
  28.9997        168
  29.0368        161
  29.0740        175
  29.1111        156
  29.1483        170
  29.1854        167
  29.2226        180
  29.2597        164
  29.2969        165
  29.3340        181
  29.3712        145
  29.4083        164
  29.4455        167
  29.4826        157
  29.5198        177
  29.5569        148
  29.5941        186
  29.6312        144
  29.6684        148
  29.7055        143
  29.7427        164
  29.7799        153
  29.8170        154
  29.8542        130
  29.8913        167
  29.9285        143
  29.9656        145
  30.0028        173
  30.0399        147
  30.0771        169
  30.1142        162
  30.1514        142
  30.1885        157
  30.2257        166
  30.2628        168
  30.3000        192
  30.3371        185
  30.3743        208
  30.4114        270
  30.4486        291
  30.4857        212
  30.5229        238
  30.5600        161
  30.5972        164
  30.6343        151
  30.6715        163
  30.7086        134
  30.7458        144
  30.7829        150
  30.8201        167
  30.8572        151
  30.8944        131
  30.9315        160
  30.9687        148
  31.0058        168
  31.0430        147
  31.0801        150
  31.1173        127
  31.1544        141
  31.1916        150
  31.2287        129
  31.2659        142
  31.3030        135
  31.3402        125
  31.3774        164
  31.4145        128
  31.4517        140
  31.4888        151
  31.5260        151
  31.5631        110
  31.6003        148
  31.6374        127
  31.6746        138
  31.7117        150
  31.7489        136
  31.7860        144
  31.8232        153
  31.8603        146
  31.8975        119
  31.9346        140
  31.9718        151
  32.0089        128
  32.0461        132
  32.0832        148
  32.1204        122
  32.1575        145
  32.1947        134
  32.2318        163
  32.2690        136
  32.3061        115
  32.3433        145
  32.3804        128
  32.4176        142
  32.4547        117
  32.4919        141
  32.5290        150
  32.5662        159
  32.6033        152
  32.6405        147
  32.6776        118
  32.7148        127
  32.7519        138
  32.7891        129
  32.8262        126
  32.8634        137
  32.9006        106
  32.9377        115
  32.9749        138
  33.0120        119
  33.0492        119
  33.0863        120
  33.1235        113
  33.1606        122
  33.1978        125
  33.2349        116
  33.2721        112
  33.3092        119
  33.3464        113
  33.3835        113
  33.4207        106
  33.4578        144
  33.4950        115
  33.5321        105
  33.5693        131
  33.6064        105
  33.6436        122
  33.6807        122
  33.7179        114
  33.7550        123
  33.7922        113
  33.8293        114
  33.8665        121
  33.9036        113
  33.9408        105
  33.9779        126
  34.0151        116
  34.0522        131
  34.0894        117
  34.1265        122
  34.1637        104
  34.2008        113
  34.2380         95
  34.2751         91
  34.3123        100
  34.3494        119
  34.3866        132
  34.4238        109
  34.4609         99
  34.4981        128
  34.5352        119
  34.5724        114
  34.6095        132
  34.6467        127
  34.6838        131
  34.7210        113
  34.7581        130
  34.7953        171
  34.8324        144
  34.8696        146
  34.9067        136
  34.9439        112
  34.9810        109
  35.0182        113
  35.0553        122
  35.0925        119
  35.1296        118
  35.1668         93
  35.2039        116
  35.2411        101
  35.2782        107
  35.3154         96
  35.3525        123
  35.3897         96
  35.4268         91
  35.4640        116
  35.5011        102
  35.5383        101
  35.5754         98
  35.6126        101
  35.6497        127
  35.6869         98
  35.7240        113
  35.7612        107
  35.7983        106
  35.8355        101
  35.8726        104
  35.9098         83
  35.9469        113
  35.9841         88
  36.0213        105
  36.0584        104
  36.0956        122
  36.1327        112
  36.1699         90
  36.2070         88
  36.2442        100
  36.2813        100
  36.3185        117
  36.3556        105
  36.3928         96
  36.4299        108
  36.4671         99
  36.5042        101
  36.5414        108
  36.5785        108
  36.6157         98
  36.6528         86
  36.6900         81
  36.7271        103
  36.7643         90
  36.8014         95
  36.8386         97
  36.8757         86
  36.9129         98
  36.9500         93
  36.9872         79
  37.0243         96
  37.0615         92
  37.0986         92
  37.1358         90
  37.1729         80
  37.2101         76
  37.2472         89
  37.2844         98
  37.3215         88
  37.3587         88
  37.3958         99
  37.4330        107
  37.4701        161
  37.5073        149
  37.5445        115
  37.5816        115
  37.6188        112
  37.6559        105
  37.6931         93
  37.7302         90
  37.7674         91
  37.8045         82
  37.8417         90
  37.8788         92
  37.9160         83
  37.9531         75
  37.9903         78
  38.0274         83
  38.0646         76
  38.1017         73
  38.1389         63
  38.1760         77
  38.2132         91
  38.2503         89
  38.2875         71
  38.3246         92
  38.3618         83
  38.3989         95
  38.4361         70
  38.4732         85
  38.5104         78
  38.5475         81
  38.5847         92
  38.6218         89
  38.6590         82
  38.6961         98
  38.7333         76
  38.7704         84
  38.8076         78
  38.8447         86
  38.8819         82
  38.9190         89
  38.9562         72
  38.9933        104
  39.0305         80
  39.0677         89
  39.1048         83
  39.1420         92
  39.1791         83
  39.2163         62
  39.2534         79
  39.2906         93
  39.3277         88
  39.3649         85
  39.4020         85
  39.4392         84
  39.4763         74
  39.5135         84
  39.5506         75
  39.5878         81
  39.6249         74
  39.6621         76
  39.6992         77
  39.7364         90
  39.7735         69
  39.8107         83
  39.8478         81
  39.8850         99
  39.9221         71
  39.9593         73
  39.9964         82
  40.0336         76
  40.0707         84
  40.1079         91
  40.1450         68
  40.1822         70
  40.2193         78
  40.2565         75
  40.2936         77
  40.3308         79
  40.3679         73
  40.4051         72
  40.4422         92
  40.4794         95
  40.5165         83
  40.5537         79
  40.5908         78
  40.6280         73
  40.6652         70
  40.7023         75
  40.7395         86
  40.7766         90
  40.8138         80
  40.8509         73
  40.8881         76
  40.9252        102
  40.9624         72
  40.9995         79
  41.0367         94
  41.0738         64
  41.1110         81
  41.1481         77
  41.1853         70
  41.2224         70
  41.2596         65
  41.2967         71
  41.3339         83
  41.3710         82
  41.4082         73
  41.4453         74
  41.4825         64
  41.5196         72
  41.5568         62
  41.5939         81
  41.6311         84
  41.6682         68
  41.7054         72
  41.7425         59
  41.7797         80
  41.8168         87
  41.8540         65
  41.8911         85
  41.9283         72
  41.9654         79
  42.0026         66
  42.0397         75
  42.0769         74
  42.1140         68
  42.1512         77
  42.1884         80
  42.2255         69
  42.2627         91
  42.2998         69
  42.3370         58
  42.3741         82
  42.4113         62
  42.4484         71
  42.4856         74
  42.5227         65
  42.5599         75
  42.5970         77
  42.6342         86
  42.6713         68
  42.7085         75
  42.7456         84
  42.7828         80
  42.8199         66
  42.8571         80
  42.8942         68
  42.9314         69
  42.9685         68
  43.0057         70
  43.0428         65
  43.0800         85
  43.1171         71
  43.1543         69
  43.1914         87
  43.2286         87
  43.2657         91
  43.3029         69
  43.3400         69
  43.3772         76
  43.4143         70
  43.4515         69
  43.4886         75
  43.5258         88
  43.5629        146
  43.6001         76
  43.6372        104
  43.6744        102
  43.7116         78
  43.7487         94
  43.7859         81
  43.8230         76
  43.8602         67
  43.8973         59
  43.9345         83
  43.9716         83
  44.0088         58
  44.0459         62
  44.0831         73
  44.1202         80
  44.1574         77
  44.1945         66
  44.2317         84
  44.2688         72
  44.3060         76
  44.3431         67
  44.3803         76
  44.4174         70
  44.4546         70
  44.4917         79
  44.5289         79
  44.5660         66
  44.6032         63
  44.6403         84
  44.6775         95
  44.7146         75
  44.7518         80
  44.7889         76
  44.8261         68
  44.8632         69
  44.9004         71
  44.9375         82
  44.9747         63
  45.0118         69
  45.0490         62
  45.0861         61
  45.1233         76
  45.1604         74
  45.1976         74
  45.2347         83
  45.2719         65
  45.3091         71
  45.3462         69
  45.3834         79
  45.4205         68
  45.4577         69
  45.4948         69
  45.5320         66
  45.5691         52
  45.6063         64
  45.6434         65
  45.6806         59
  45.7177         63
  45.7549         66
  45.7920         63
  45.8292         67
  45.8663         62
  45.9035         61
  45.9406         81
  45.9778         61
  46.0149         54
  46.0521         85
  46.0892         83
  46.1264         73
  46.1635         67
  46.2007         72
  46.2378         60
  46.2750         72
  46.3121         50
  46.3493         83
  46.3864         51
  46.4236         66
  46.4607         64
  46.4979         65
  46.5350         61
  46.5722         66
  46.6093         81
  46.6465         65
  46.6836         79
  46.7208         68
  46.7579         60
  46.7951         68
  46.8323         84
  46.8694         70
  46.9066         55
  46.9437         79
  46.9809         74
  47.0180         55
  47.0552         68
  47.0923         73
  47.1295         62
  47.1666         63
  47.2038         70
  47.2409         68
  47.2781         70
  47.3152         60
  47.3524         67
  47.3895         75
  47.4267         75
  47.4638         55
  47.5010         69
  47.5381         58
  47.5753         59
  47.6124         65
  47.6496         73
  47.6867         68
  47.7239         63
  47.7610         83
  47.7982         60
  47.8353         66
  47.8725         73
  47.9096         59
  47.9468         53
  47.9839         59
  48.0211         70
  48.0582         75
  48.0954         62
  48.1325         71
  48.1697         78
  48.2068         53
  48.2440         76
  48.2811         71
  48.3183         66
  48.3555         60
  48.3926         73
  48.4298         60
  48.4669         54
  48.5041         58
  48.5412         73
  48.5784         77
  48.6155         65
  48.6527         56
  48.6898         60
  48.7270         66
  48.7641         90
  48.8013         64
  48.8384         64
  48.8756         58
  48.9127         68
  48.9499         71
  48.9870        124
  49.0242        102
  49.0613         74
  49.0985         78
  49.1356        106
  49.1728         86
  49.2099         75
  49.2471         73
  49.2842         63
  49.3214         51
  49.3585         85
  49.3957         56
  49.4328         66
  49.4700         71
  49.5071         55
  49.5443         64
  49.5814         56
  49.6186         58
  49.6557         61
  49.6929         61
  49.7300         72
  49.7672         59
  49.8043         57
  49.8415         50
  49.8786         64
  49.9158         59
  49.9530         68
  49.9901         62
  50.0273         82
  50.0644         56
  50.1016         67
  50.1387         50
  50.1759         72
  50.2130         90
  50.2502         80
  50.2873         63
  50.3245         81
  50.3616         68
  50.3988         70
  50.4359         53
  50.4731         56
  50.5102         60
  50.5474         62
  50.5845         69
  50.6217         59
  50.6588         54
  50.6960         54
  50.7331         51
  50.7703         73
  50.8074         48
  50.8446         50
  50.8817         56
  50.9189         69
  50.9560         58
  50.9932         56
  51.0303         57
  51.0675         57
  51.1046         69
  51.1418         56
  51.1789         59
  51.2161         62
  51.2532         79
  51.2904         67
  51.3275         56
  51.3647         57
  51.4018         61
  51.4390         88
  51.4762         51
  51.5133         65
  51.5505         57
  51.5876         60
  51.6248         75
  51.6619         55
  51.6991         57
  51.7362         64
  51.7734         78
  51.8105         70
  51.8477         70
  51.8848         65
  51.9220         64
  51.9591         67
  51.9963         61
  52.0334         59
  52.0706         55
  52.1077         64
  52.1449         55
  52.1820         56
  52.2192         60
  52.2563         59
  52.2935         68
  52.3306         56
  52.3678         57
  52.4049         69
  52.4421         64
  52.4792         60
  52.5164         58
  52.5535         50
  52.5907         56
  52.6278         49
  52.6650         51
  52.7021         42
  52.7393         69
  52.7764         57
  52.8136         61
  52.8507         69
  52.8879         64
  52.9250         63
  52.9622         55
  52.9994         75
  53.0365         68
  53.0737         60
  53.1108         62
  53.1480         67
  53.1851         59
  53.2223         57
  53.2594         48
  53.2966         53
  53.3337         67
  53.3709         67
  53.4080         42
  53.4452         53
  53.4823         61
  53.5195         63
  53.5566         57
  53.5938         47
  53.6309         68
  53.6681         63
  53.7052         73
  53.7424         56
  53.7795         61
  53.8167         50
  53.8538         74
  53.8910         58
  53.9281         57
  53.9653         75
  54.0024         78
  54.0396         70
  54.0767         60
  54.1139         62
  54.1510         54
  54.1882         78
  54.2253         39
  54.2625         57
  54.2996         51
  54.3368         43
  54.3739         52
  54.4111         60
  54.4482         59
  54.4854         61
  54.5225         53
  54.5597         54
  54.5969         41
  54.6340         60
  54.6712         47
  54.7083         67
  54.7455         69
  54.7826         58
  54.8198         74
  54.8569         68
  54.8941         63
  54.9312         67
  54.9684         59
  55.0055         57
  55.0427         65
  55.0798         58
  55.1170         56
  55.1541         59
  55.1913         51
  55.2284         45
  55.2656         55
  55.3027         71
  55.3399         49
  55.3770         60
  55.4142         63
  55.4513         49
  55.4885         56
  55.5256         62
  55.5628         59
  55.5999         57
  55.6371         56
  55.6742         54
  55.7114         46
  55.7485         55
  55.7857         53
  55.8228         44
  55.8600         53
  55.8971         57
  55.9343         56
  55.9714         62
  56.0086         57
  56.0457         50
  56.0829         67
  56.1201         60
  56.1572         54
  56.1944         49
  56.2315         60
  56.2687         67
  56.3058         49
  56.3430         63
  56.3801         54
  56.4173         49
  56.4544         67
  56.4916         64
  56.5287         60
  56.5659         55
  56.6030         67
  56.6402         49
  56.6773         70
  56.7145         41
  56.7516         48
  56.7888         50
  56.8259         59
  56.8631         48
  56.9002         61
  56.9374         59
  56.9745         61
  57.0117         50
  57.0488         51
  57.0860         46
  57.1231         68
  57.1603         49
  57.1974         53
  57.2346         40
  57.2717         55
  57.3089         65
  57.3460         65
  57.3832         48
  57.4203         51
  57.4575         55
  57.4946         53
  57.5318         49
  57.5689         64
  57.6061         69
  57.6433         44
  57.6804         52
  57.7176         58
  57.7547         53
  57.7919         79
  57.8290         64
  57.8662         61
  57.9033         71
  57.9405         68
  57.9776         64
  58.0148         71
  58.0519         71
  58.0891         54
  58.1262         58
  58.1634         56
  58.2005         44
  58.2377         59
  58.2748         48
  58.3120         48
  58.3491         53
  58.3863         56
  58.4234         58
  58.4606         57
  58.4977         49
  58.5349         50
  58.5720         62
  58.6092         57
  58.6463         59
  58.6835         57
  58.7206         65
  58.7578         53
  58.7949         61
  58.8321         49
  58.8692         56
  58.9064         56
  58.9435         54
  58.9807         55
  59.0178         61
  59.0550         60
  59.0921         69
  59.1293         64
  59.1664         53
  59.2036         62
  59.2408         53
  59.2779         50
  59.3151         56
  59.3522         58
  59.3894         51
  59.4265         50
  59.4637         56
  59.5008         47
  59.5380         59
  59.5751         68
  59.6123         61
  59.6494         58
  59.6866         61
  59.7237         64
  59.7609         54
  59.7980         51
  59.8352         66
  59.8723         47
  59.9095         69
  59.9466         55
  59.9838         56
  60.0024         58