File: notebooks/data/xrd_data/ML_20220718_36_SJD_4_LaB6-2min.uxd
; (content of file Y:\Sam\Apurva-07-20-2022\puck4\ML_20220718_36_SJD_0_LaB6-2min.raw)
_FILEVERSION = 3
_SAMPLE = ML_20220718_36_SJD_0_LaB6-2min
_+SAMPLE =
_SITE = USA
_USER = Administrator
_GONIOMETER_CODE = 20
; Goniometer : D8 theta/2theta, stage : Unknown
_ATTACHMENTS_CODE = 0
_GONIOMETER_RADIUS = 200.5
_FIXED_DIVSLIT = 0.6
_FIXED_SAMPLESLIT = 0
_SOLLER_SLITS = 2
_FIXED_DETSLIT = 9.55
_MONOCHROMATOR = 0
; Incident beam monochromator : None
_SOLLER_SLITS_2 = N
_THIN_FILM = N
_BETA_FILTER = Y
_FIXED_ANTISLIT = 5.89
_ANALYZER_CODE = 0
; Received beam analyzer : None
_DATEMEASURED = "26-Jul-2022 08:59:16"
_WL_UNIT = A
_WL1 = 1.5406
_WL2 = 1.54439
_WL3 = 1.39222
_WLRATIO = 0.5
_ANODE = Cu
_V4_INF_CREATOR = XRDWizard
_V4_INF_CREATOR_VERSION = V2.9.0.22
_V4_INF_WIZARD_VERSION = V2.9.0.22
_V4_INF_WIZARD_ADDINS = V2.9.0.22
_V4_INF_WIZARD_DOCTYPE = XRD
_V4_INF_OSUSER = McQueenLab
_V4_INF_USER = Administrator
_V4_INF_SITE = USA
_V4_INF_SAMPLEID = ML_20220718_36_SJD_0_LaB6-2min

; Data for range 1
_DRIVE = COUPLED
_STEPTIME = 5.64
_STEPSIZE = 0.0185756
_STEPMODE = C
_START = 5
_THETA = 2.5
_2THETA = 5
_KHI = 0
_PHI = 0
_X = 0
_Y = 0
_Z = 0
_DETECTOR = 5
; Detector type : Unknown
_DETECTORSLIT = unkn
_AUX1 = 0
_AUX2 = 0
_AUX3 = 0
_TIMESTARTED = 15
_TEMP_RATE = -1
_TEMP_DELAY = -1
_KV = 40
_MA = 40
_RANGE_WL = 1.5406
_3DPLANE = 0
_V4_ADDITIONALDETECTOR = 257
_V4_PSD2THETA = 3.4185
_V4_PSDCHANNEL1 = 0
_V4_PSDAPERTURE = 12.68
_V4_PSDTYPE = 5
_V4_PSDFIXED = 0
_V4_COUNTERS_MASK = 4096
_V4_DRIVES_MASK = 0
_V4_ENCODERS_MASK = 0
_2THETACOUNTS = 1
; 2THETA  PSD
   5.0000        120
   5.0372        146
   5.0743        142
   5.1115        123
   5.1486        121
   5.1858        130
   5.2229        127
   5.2601        111
   5.2972        116
   5.3344        108
   5.3715        103
   5.4087        107
   5.4458        111
   5.4830        103
   5.5201        110
   5.5573        119
   5.5944         93
   5.6316        113
   5.6687        120
   5.7059        107
   5.7430        107
   5.7802        101
   5.8173         97
   5.8545        106
   5.8916        103
   5.9288        103
   5.9659         94
   6.0031        111
   6.0402        108
   6.0774         98
   6.1145        118
   6.1517         88
   6.1888         82
   6.2260         94
   6.2631        105
   6.3003         90
   6.3374         76
   6.3746         96
   6.4117        101
   6.4489         74
   6.4860         94
   6.5232         81
   6.5604         83
   6.5975         87
   6.6347        100
   6.6718         87
   6.7090         77
   6.7461         75
   6.7833         70
   6.8204         75
   6.8576         73
   6.8947         82
   6.9319         84
   6.9690         85
   7.0062         83
   7.0433         85
   7.0805         82
   7.1176         76
   7.1548         52
   7.1919         70
   7.2291         99
   7.2662         80
   7.3034         74
   7.3405         74
   7.3777         80
   7.4148         79
   7.4520         77
   7.4891         69
   7.5263         69
   7.5634         83
   7.6006         93
   7.6377        109
   7.6749         77
   7.7120         82
   7.7492         82
   7.7863         92
   7.8235         85
   7.8606         77
   7.8978         79
   7.9349         91
   7.9721         74
   8.0092         78
   8.0464         91
   8.0835         85
   8.1207         95
   8.1579         85
   8.1950         98
   8.2322         96
   8.2693         82
   8.3065         97
   8.3436         97
   8.3808         93
   8.4179         99
   8.4551         79
   8.4922        100
   8.5294        116
   8.5665        103
   8.6037         98
   8.6408         97
   8.6780         83
   8.7151        120
   8.7523         99
   8.7894        113
   8.8266         96
   8.8637         92
   8.9009         85
   8.9380        102
   8.9752        103
   9.0123         95
   9.0495         86
   9.0866         92
   9.1238        113
   9.1609        109
   9.1981        104
   9.2352        132
   9.2724        101
   9.3095         98
   9.3467        101
   9.3838        117
   9.4210        128
   9.4581        109
   9.4953         91
   9.5324        120
   9.5696        112
   9.6067         91
   9.6439        110
   9.6811        103
   9.7182        129
   9.7554        105
   9.7925        125
   9.8297        113
   9.8668        134
   9.9040        119
   9.9411        112
   9.9783        133
  10.0154        129
  10.0526        110
  10.0897        130
  10.1269        121
  10.1640        127
  10.2012        110
  10.2383        111
  10.2755         99
  10.3126        117
  10.3498        115
  10.3869        119
  10.4241        120
  10.4612        113
  10.4984        135
  10.5355        141
  10.5727        114
  10.6098        128
  10.6470        124
  10.6841        115
  10.7213        104
  10.7584        115
  10.7956        122
  10.8327         99
  10.8699        118
  10.9070        115
  10.9442        134
  10.9813        109
  11.0185        116
  11.0556        118
  11.0928        131
  11.1299        109
  11.1671        102
  11.2043        133
  11.2414        115
  11.2786        130
  11.3157        121
  11.3529        130
  11.3900        107
  11.4272        126
  11.4643        107
  11.5015        126
  11.5386        134
  11.5758        103
  11.6129        115
  11.6501         98
  11.6872        105
  11.7244        102
  11.7615        104
  11.7987        119
  11.8358        115
  11.8730        106
  11.9101         99
  11.9473        120
  11.9844        110
  12.0216        116
  12.0587        119
  12.0959        115
  12.1330        109
  12.1702         93
  12.2073        111
  12.2445         96
  12.2816        105
  12.3188        111
  12.3559         99
  12.3931        123
  12.4302        100
  12.4674        103
  12.5045         98
  12.5417        105
  12.5788        101
  12.6160        105
  12.6531        105
  12.6903        106
  12.7274        108
  12.7646        115
  12.8018         94
  12.8389         99
  12.8761        115
  12.9132        100
  12.9504         96
  12.9875        100
  13.0247        113
  13.0618        103
  13.0990        120
  13.1361         89
  13.1733         89
  13.2104         84
  13.2476         89
  13.2847         84
  13.3219         92
  13.3590         79
  13.3962         93
  13.4333         92
  13.4705         98
  13.5076         97
  13.5448         85
  13.5819         90
  13.6191         99
  13.6562         88
  13.6934         83
  13.7305         89
  13.7677         85
  13.8048         98
  13.8420         86
  13.8791         81
  13.9163         85
  13.9534        109
  13.9906         77
  14.0277         74
  14.0649         75
  14.1020         68
  14.1392         92
  14.1763         88
  14.2135         75
  14.2506        106
  14.2878         87
  14.3250         92
  14.3621         84
  14.3993        108
  14.4364         88
  14.4736         92
  14.5107         79
  14.5479         92
  14.5850         69
  14.6222         97
  14.6593         98
  14.6965         85
  14.7336         68
  14.7708         82
  14.8079         67
  14.8451         81
  14.8822         88
  14.9194         83
  14.9565         86
  14.9937         94
  15.0308         86
  15.0680         87
  15.1051         85
  15.1423         97
  15.1794         68
  15.2166         73
  15.2537         83
  15.2909         77
  15.3280         81
  15.3652         75
  15.4023         98
  15.4395         87
  15.4766         82
  15.5138         87
  15.5509         84
  15.5881         97
  15.6252         78
  15.6624         81
  15.6995         81
  15.7367         72
  15.7738         91
  15.8110         74
  15.8482         84
  15.8853         84
  15.9225         87
  15.9596         78
  15.9968         78
  16.0339         83
  16.0711         76
  16.1082         86
  16.1454         82
  16.1825         88
  16.2197         84
  16.2568         81
  16.2940         71
  16.3311         82
  16.3683         64
  16.4054         75
  16.4426         81
  16.4797         76
  16.5169         77
  16.5540         92
  16.5912        100
  16.6283         78
  16.6655         65
  16.7026         77
  16.7398         78
  16.7769         87
  16.8141        100
  16.8512         78
  16.8884         93
  16.9255         77
  16.9627         75
  16.9998         74
  17.0370         76
  17.0741         83
  17.1113         75
  17.1484         68
  17.1856         71
  17.2227         75
  17.2599         76
  17.2970         69
  17.3342         71
  17.3713         93
  17.4085         95
  17.4457         72
  17.4828         66
  17.5200         73
  17.5571         78
  17.5943         84
  17.6314         76
  17.6686         79
  17.7057         85
  17.7429         67
  17.7800         74
  17.8172         73
  17.8543         89
  17.8915         80
  17.9286         81
  17.9658         79
  18.0029         67
  18.0401         75
  18.0772         74
  18.1144         85
  18.1515         79
  18.1887         79
  18.2258         98
  18.2630         79
  18.3001         81
  18.3373         73
  18.3744         86
  18.4116         75
  18.4487         77
  18.4859         63
  18.5230         76
  18.5602         81
  18.5973         92
  18.6345         94
  18.6716         94
  18.7088         97
  18.7459         75
  18.7831         79
  18.8202         77
  18.8574         83
  18.8945         82
  18.9317         77
  18.9689         80
  19.0060         95
  19.0432         86
  19.0803         75
  19.1175         90
  19.1546         80
  19.1918         84
  19.2289         84
  19.2661         67
  19.3032         83
  19.3404         90
  19.3775         92
  19.4147         74
  19.4518         87
  19.4890         99
  19.5261         72
  19.5633         83
  19.6004         75
  19.6376         71
  19.6747         85
  19.7119         78
  19.7490         86
  19.7862         71
  19.8233         85
  19.8605         81
  19.8976         97
  19.9348         97
  19.9719         87
  20.0091         82
  20.0462         85
  20.0834         98
  20.1205         81
  20.1577         86
  20.1948         98
  20.2320         94
  20.2691         98
  20.3063         94
  20.3434         91
  20.3806         93
  20.4177         99
  20.4549         89
  20.4921         80
  20.5292        100
  20.5664         83
  20.6035        107
  20.6407         77
  20.6778        103
  20.7150         92
  20.7521         94
  20.7893         81
  20.8264         76
  20.8636         80
  20.9007         90
  20.9379         92
  20.9750         77
  21.0122         98
  21.0493         93
  21.0865        103
  21.1236        117
  21.1608        109
  21.1979        147
  21.2351        158
  21.2722        147
  21.3094        158
  21.3465        238
  21.3837        224
  21.4208        177
  21.4580        104
  21.4951        111
  21.5323         79
  21.5694         98
  21.6066         88
  21.6437         88
  21.6809        101
  21.7180         68
  21.7552         98
  21.7923        109
  21.8295         96
  21.8666         99
  21.9038        103
  21.9409         92
  21.9781         83
  22.0152         84
  22.0524         85
  22.0896         84
  22.1267         99
  22.1639        110
  22.2010         85
  22.2382         87
  22.2753         96
  22.3125         94
  22.3496         84
  22.3868         90
  22.4239         90
  22.4611         95
  22.4982         90
  22.5354         85
  22.5725        101
  22.6097        100
  22.6468         86
  22.6840         89
  22.7211        101
  22.7583         94
  22.7954         94
  22.8326        102
  22.8697         90
  22.9069        109
  22.9440         98
  22.9812        101
  23.0183         98
  23.0555        103
  23.0926         92
  23.1298        127
  23.1669        107
  23.2041         92
  23.2412         80
  23.2784        102
  23.3155         89
  23.3527        113
  23.3898        105
  23.4270         82
  23.4641         87
  23.5013         94
  23.5384         87
  23.5756        101
  23.6128         86
  23.6499         84
  23.6871         87
  23.7242         89
  23.7614         93
  23.7985        108
  23.8357        100
  23.8728         94
  23.9100         79
  23.9471        105
  23.9843        108
  24.0214        122
  24.0586         98
  24.0957        101
  24.1329         97
  24.1700        100
  24.2072         93
  24.2443        100
  24.2815        117
  24.3186         97
  24.3558        117
  24.3929         89
  24.4301         88
  24.4672         84
  24.5044         82
  24.5415        100
  24.5787         85
  24.6158         88
  24.6530         88
  24.6901        101
  24.7273         85
  24.7644         99
  24.8016         79
  24.8387        108
  24.8759         96
  24.9130        107
  24.9502        112
  24.9873        106
  25.0245         98
  25.0616         94
  25.0988         99
  25.1360         98
  25.1731         89
  25.2103         90
  25.2474        105
  25.2846         87
  25.3217         76
  25.3589         98
  25.3960         81
  25.4332         95
  25.4703         92
  25.5075        104
  25.5446         97
  25.5818         96
  25.6189         89
  25.6561         96
  25.6932         98
  25.7304         88
  25.7675         72
  25.8047         96
  25.8418         95
  25.8790         85
  25.9161         89
  25.9533         93
  25.9904         81
  26.0276         79
  26.0647         79
  26.1019         99
  26.1390         80
  26.1762         82
  26.2133         72
  26.2505         99
  26.2876         93
  26.3248         89
  26.3619         89
  26.3991         92
  26.4362         90
  26.4734         89
  26.5105         72
  26.5477         95
  26.5848        100
  26.6220         94
  26.6591         85
  26.6963         93
  26.7335         89
  26.7706         97
  26.8078         87
  26.8449         94
  26.8821         89
  26.9192         95
  26.9564         93
  26.9935         76
  27.0307         88
  27.0678         87
  27.1050         97
  27.1421         98
  27.1793        133
  27.2164        117
  27.2536        100
  27.2907        120
  27.3279        102
  27.3650         80
  27.4022         87
  27.4393        107
  27.4765         85
  27.5136        100
  27.5508         88
  27.5879         92
  27.6251         97
  27.6622         98
  27.6994         99
  27.7365         89
  27.7737         94
  27.8108         82
  27.8480         85
  27.8851         76
  27.9223         99
  27.9594         80
  27.9966         79
  28.0337         87
  28.0709         84
  28.1080         82
  28.1452         78
  28.1823         79
  28.2195         80
  28.2567         85
  28.2938         99
  28.3310         86
  28.3681         81
  28.4053         82
  28.4424         99
  28.4796         78
  28.5167         84
  28.5539         74
  28.5910         79
  28.6282         74
  28.6653         80
  28.7025         71
  28.7396         82
  28.7768         85
  28.8139         68
  28.8511         91
  28.8882         72
  28.9254         77
  28.9625         79
  28.9997         77
  29.0368         79
  29.0740         92
  29.1111         76
  29.1483         80
  29.1854         84
  29.2226         83
  29.2597         85
  29.2969         76
  29.3340         85
  29.3712         63
  29.4083         71
  29.4455         65
  29.4826         74
  29.5198         83
  29.5569         89
  29.5941         79
  29.6312         85
  29.6684         74
  29.7055         64
  29.7427         80
  29.7799         77
  29.8170         92
  29.8542         82
  29.8913         84
  29.9285         81
  29.9656         87
  30.0028         86
  30.0399         77
  30.0771         87
  30.1142         67
  30.1514         68
  30.1885         81
  30.2257         79
  30.2628         77
  30.3000         76
  30.3371        120
  30.3743        177
  30.4114        109
  30.4486        121
  30.4857        106
  30.5229         73
  30.5600         76
  30.5972         85
  30.6343         58
  30.6715         73
  30.7086         55
  30.7458         62
  30.7829         76
  30.8201         61
  30.8572         59
  30.8944         74
  30.9315         62
  30.9687         73
  31.0058         69
  31.0430         76
  31.0801         69
  31.1173         67
  31.1544         71
  31.1916         63
  31.2287         66
  31.2659         76
  31.3030         83
  31.3402         80
  31.3774         84
  31.4145         58
  31.4517         53
  31.4888         53
  31.5260         81
  31.5631         66
  31.6003         82
  31.6374         67
  31.6746         83
  31.7117         61
  31.7489         50
  31.7860         68
  31.8232         64
  31.8603         63
  31.8975         68
  31.9346         73
  31.9718         65
  32.0089         46
  32.0461         56
  32.0832         56
  32.1204         64
  32.1575         76
  32.1947         68
  32.2318         56
  32.2690         51
  32.3061         63
  32.3433         68
  32.3804         69
  32.4176         73
  32.4547         82
  32.4919         81
  32.5290         74
  32.5662         63
  32.6033         66
  32.6405         56
  32.6776         64
  32.7148         51
  32.7519         66
  32.7891         65
  32.8262         74
  32.8634         55
  32.9006         58
  32.9377         54
  32.9749         54
  33.0120         75
  33.0492         53
  33.0863         50
  33.1235         62
  33.1606         60
  33.1978         47
  33.2349         64
  33.2721         43
  33.3092         56
  33.3464         60
  33.3835         51
  33.4207         64
  33.4578         60
  33.4950         74
  33.5321         65
  33.5693         64
  33.6064         62
  33.6436         66
  33.6807         54
  33.7179         51
  33.7550         66
  33.7922         49
  33.8293         40
  33.8665         65
  33.9036         46
  33.9408         45
  33.9779         43
  34.0151         40
  34.0522         60
  34.0894         59
  34.1265         53
  34.1637         71
  34.2008         61
  34.2380         47
  34.2751         48
  34.3123         46
  34.3494         53
  34.3866         49
  34.4238         48
  34.4609         60
  34.4981         55
  34.5352         57
  34.5724         56
  34.6095         66
  34.6467         69
  34.6838         74
  34.7210         70
  34.7581         48
  34.7953         83
  34.8324         72
  34.8696         60
  34.9067         61
  34.9439         45
  34.9810         51
  35.0182         47
  35.0553         54
  35.0925         54
  35.1296         50
  35.1668         51
  35.2039         45
  35.2411         48
  35.2782         55
  35.3154         54
  35.3525         38
  35.3897         43
  35.4268         54
  35.4640         50
  35.5011         49
  35.5383         39
  35.5754         37
  35.6126         36
  35.6497         54
  35.6869         42
  35.7240         55
  35.7612         40
  35.7983         40
  35.8355         46
  35.8726         42
  35.9098         51
  35.9469         49
  35.9841         47
  36.0213         32
  36.0584         52
  36.0956         35
  36.1327         45
  36.1699         46
  36.2070         50
  36.2442         40
  36.2813         38
  36.3185         47
  36.3556         43
  36.3928         43
  36.4299         42
  36.4671         45
  36.5042         35
  36.5414         48
  36.5785         45
  36.6157         51
  36.6528         34
  36.6900         50
  36.7271         41
  36.7643         40
  36.8014         35
  36.8386         42
  36.8757         40
  36.9129         42
  36.9500         47
  36.9872         46
  37.0243         41
  37.0615         41
  37.0986         43
  37.1358         48
  37.1729         50
  37.2101         47
  37.2472         39
  37.2844         44
  37.3215         44
  37.3587         40
  37.3958         49
  37.4330         60
  37.4701         51
  37.5073         59
  37.5445         50
  37.5816         45
  37.6188         53
  37.6559         43
  37.6931         47
  37.7302         44
  37.7674         45
  37.8045         34
  37.8417         46
  37.8788         39
  37.9160         39
  37.9531         46
  37.9903         41
  38.0274         44
  38.0646         38
  38.1017         41
  38.1389         46
  38.1760         46
  38.2132         30
  38.2503         51
  38.2875         33
  38.3246         39
  38.3618         42
  38.3989         43
  38.4361         28
  38.4732         34
  38.5104         45
  38.5475         34
  38.5847         47
  38.6218         43
  38.6590         39
  38.6961         38
  38.7333         44
  38.7704         36
  38.8076         58
  38.8447         36
  38.8819         56
  38.9190         49
  38.9562         42
  38.9933         38
  39.0305         34
  39.0677         25
  39.1048         34
  39.1420         36
  39.1791         53
  39.2163         44
  39.2534         41
  39.2906         37
  39.3277         36
  39.3649         34
  39.4020         48
  39.4392         37
  39.4763         44
  39.5135         34
  39.5506         34
  39.5878         43
  39.6249         42
  39.6621         28
  39.6992         38
  39.7364         31
  39.7735         41
  39.8107         31
  39.8478         34
  39.8850         42
  39.9221         32
  39.9593         35
  39.9964         34
  40.0336         51
  40.0707         39
  40.1079         39
  40.1450         29
  40.1822         45
  40.2193         37
  40.2565         36
  40.2936         43
  40.3308         39
  40.3679         28
  40.4051         32
  40.4422         46
  40.4794         40
  40.5165         43
  40.5537         39
  40.5908         35
  40.6280         41
  40.6652         31
  40.7023         42
  40.7395         42
  40.7766         43
  40.8138         34
  40.8509         26
  40.8881         28
  40.9252         41
  40.9624         42
  40.9995         42
  41.0367         46
  41.0738         39
  41.1110         45
  41.1481         49
  41.1853         36
  41.2224         34
  41.2596         28
  41.2967         36
  41.3339         33
  41.3710         31
  41.4082         32
  41.4453         35
  41.4825         36
  41.5196         40
  41.5568         24
  41.5939         37
  41.6311         36
  41.6682         43
  41.7054         40
  41.7425         34
  41.7797         26
  41.8168         34
  41.8540         39
  41.8911         31
  41.9283         32
  41.9654         31
  42.0026         32
  42.0397         31
  42.0769         25
  42.1140         33
  42.1512         33
  42.1884         38
  42.2255         38
  42.2627         49
  42.2998         43
  42.3370         37
  42.3741         40
  42.4113         34
  42.4484         34
  42.4856         31
  42.5227         36
  42.5599         45
  42.5970         33
  42.6342         47
  42.6713         30
  42.7085         33
  42.7456         18
  42.7828         40
  42.8199         38
  42.8571         41
  42.8942         42
  42.9314         39
  42.9685         33
  43.0057         34
  43.0428         33
  43.0800         34
  43.1171         50
  43.1543         44
  43.1914         37
  43.2286         47
  43.2657         38
  43.3029         50
  43.3400         48
  43.3772         48
  43.4143         30
  43.4515         43
  43.4886         52
  43.5258         59
  43.5629         43
  43.6001         45
  43.6372         45
  43.6744         34
  43.7116         39
  43.7487         33
  43.7859         36
  43.8230         37
  43.8602         32
  43.8973         36
  43.9345         38
  43.9716         49
  44.0088         28
  44.0459         29
  44.0831         48
  44.1202         28
  44.1574         44
  44.1945         36
  44.2317         38
  44.2688         38
  44.3060         37
  44.3431         48
  44.3803         43
  44.4174         48
  44.4546         43
  44.4917         46
  44.5289         41
  44.5660         43
  44.6032         39
  44.6403         43
  44.6775         38
  44.7146         45
  44.7518         39
  44.7889         48
  44.8261         35
  44.8632         31
  44.9004         40
  44.9375         30
  44.9747         28
  45.0118         32
  45.0490         33
  45.0861         42
  45.1233         40
  45.1604         23
  45.1976         30
  45.2347         36
  45.2719         40
  45.3091         34
  45.3462         23
  45.3834         33
  45.4205         28
  45.4577         34
  45.4948         36
  45.5320         33
  45.5691         33
  45.6063         28
  45.6434         28
  45.6806         31
  45.7177         41
  45.7549         34
  45.7920         26
  45.8292         29
  45.8663         33
  45.9035         35
  45.9406         33
  45.9778         30
  46.0149         37
  46.0521         44
  46.0892         32
  46.1264         33
  46.1635         19
  46.2007         20
  46.2378         32
  46.2750         39
  46.3121         37
  46.3493         33
  46.3864         26
  46.4236         25
  46.4607         34
  46.4979         36
  46.5350         41
  46.5722         31
  46.6093         23
  46.6465         18
  46.6836         39
  46.7208         34
  46.7579         35
  46.7951         40
  46.8323         26
  46.8694         20
  46.9066         35
  46.9437         36
  46.9809         24
  47.0180         32
  47.0552         23
  47.0923         29
  47.1295         33
  47.1666         25
  47.2038         30
  47.2409         29
  47.2781         34
  47.3152         27
  47.3524         23
  47.3895         31
  47.4267         35
  47.4638         32
  47.5010         22
  47.5381         26
  47.5753         28
  47.6124         32
  47.6496         32
  47.6867         30
  47.7239         34
  47.7610         36
  47.7982         33
  47.8353         38
  47.8725         30
  47.9096         29
  47.9468         36
  47.9839         29
  48.0211         27
  48.0582         33
  48.0954         32
  48.1325         27
  48.1697         23
  48.2068         29
  48.2440         26
  48.2811         38
  48.3183         30
  48.3555         22
  48.3926         26
  48.4298         31
  48.4669         33
  48.5041         36
  48.5412         31
  48.5784         22
  48.6155         30
  48.6527         20
  48.6898         29
  48.7270         37
  48.7641         27
  48.8013         41
  48.8384         28
  48.8756         25
  48.9127         47
  48.9499         55
  48.9870         46
  49.0242         32
  49.0613         52
  49.0985         31
  49.1356         29
  49.1728         28
  49.2099         28
  49.2471         23
  49.2842         32
  49.3214         36
  49.3585         35
  49.3957         25
  49.4328         33
  49.4700         26
  49.5071         34
  49.5443         24
  49.5814         31
  49.6186         34
  49.6557         30
  49.6929         31
  49.7300         41
  49.7672         23
  49.8043         28
  49.8415         35
  49.8786         37
  49.9158         26
  49.9530         20
  49.9901         25
  50.0273         26
  50.0644         28
  50.1016         25
  50.1387         20
  50.1759         38
  50.2130         26
  50.2502         28
  50.2873         22
  50.3245         25
  50.3616         32
  50.3988         30
  50.4359         30
  50.4731         29
  50.5102         39
  50.5474         23
  50.5845         30
  50.6217         35
  50.6588         21
  50.6960         29
  50.7331         31
  50.7703         28
  50.8074         30
  50.8446         15
  50.8817         27
  50.9189         25
  50.9560         37
  50.9932         27
  51.0303         35
  51.0675         20
  51.1046         30
  51.1418         30
  51.1789         32
  51.2161         24
  51.2532         27
  51.2904         29
  51.3275         28
  51.3647         35
  51.4018         47
  51.4390         31
  51.4762         37
  51.5133         21
  51.5505         39
  51.5876         28
  51.6248         33
  51.6619         21
  51.6991         23
  51.7362         36
  51.7734         28
  51.8105         39
  51.8477         34
  51.8848         33
  51.9220         31
  51.9591         32
  51.9963         33
  52.0334         23
  52.0706         29
  52.1077         27
  52.1449         29
  52.1820         29
  52.2192         27
  52.2563         32
  52.2935         28
  52.3306         32
  52.3678         28
  52.4049         30
  52.4421         27
  52.4792         23
  52.5164         30
  52.5535         32
  52.5907         41
  52.6278         26
  52.6650         24
  52.7021         30
  52.7393         39
  52.7764         24
  52.8136         23
  52.8507         25
  52.8879         39
  52.9250         28
  52.9622         41
  52.9994         31
  53.0365         40
  53.0737         28
  53.1108         27
  53.1480         27
  53.1851         23
  53.2223         29
  53.2594         24
  53.2966         25
  53.3337         31
  53.3709         24
  53.4080         27
  53.4452         32
  53.4823         27
  53.5195         32
  53.5566         27
  53.5938         26
  53.6309         21
  53.6681         29
  53.7052         31
  53.7424         30
  53.7795         31
  53.8167         24
  53.8538         17
  53.8910         31
  53.9281         29
  53.9653         32
  54.0024         44
  54.0396         45
  54.0767         28
  54.1139         27
  54.1510         28
  54.1882         31
  54.2253         23
  54.2625         23
  54.2996         34
  54.3368         32
  54.3739         27
  54.4111         29
  54.4482         25
  54.4854         26
  54.5225         30
  54.5597         26
  54.5969         18
  54.6340         31
  54.6712         21
  54.7083         33
  54.7455         36
  54.7826         28
  54.8198         26
  54.8569         29
  54.8941         35
  54.9312         24
  54.9684         32
  55.0055         20
  55.0427         28
  55.0798         25
  55.1170         29
  55.1541         32
  55.1913         25
  55.2284         24
  55.2656         22
  55.3027         24
  55.3399         24
  55.3770         30
  55.4142         34
  55.4513         29
  55.4885         19
  55.5256         38
  55.5628         23
  55.5999         25
  55.6371         25
  55.6742         25
  55.7114         30
  55.7485         24
  55.7857         34
  55.8228         18
  55.8600         28
  55.8971         27
  55.9343         29
  55.9714         36
  56.0086         31
  56.0457         33
  56.0829         32
  56.1201         19
  56.1572         35
  56.1944         32
  56.2315         34
  56.2687         31
  56.3058         27
  56.3430         31
  56.3801         23
  56.4173         21
  56.4544         24
  56.4916         27
  56.5287         31
  56.5659         27
  56.6030         24
  56.6402         37
  56.6773         25
  56.7145         19
  56.7516         24
  56.7888         28
  56.8259         27
  56.8631         25
  56.9002         24
  56.9374         28
  56.9745         29
  57.0117         31
  57.0488         21
  57.0860         39
  57.1231         39
  57.1603         30
  57.1974         28
  57.2346         32
  57.2717         17
  57.3089         25
  57.3460         17
  57.3832         27
  57.4203         25
  57.4575         23
  57.4946         21
  57.5318         29
  57.5689         26
  57.6061         36
  57.6433         33
  57.6804         25
  57.7176         23
  57.7547         34
  57.7919         27
  57.8290         23
  57.8662         22
  57.9033         22
  57.9405         33
  57.9776         31
  58.0148         23
  58.0519         40
  58.0891         25
  58.1262         21
  58.1634         17
  58.2005         22
  58.2377         25
  58.2748         28
  58.3120         25
  58.3491         24
  58.3863         34
  58.4234         21
  58.4606         24
  58.4977         23
  58.5349         42
  58.5720         31
  58.6092         27
  58.6463         28
  58.6835         24
  58.7206         21
  58.7578         22
  58.7949         32
  58.8321         31
  58.8692         27
  58.9064         17
  58.9435         31
  58.9807         27
  59.0178         21
  59.0550         25
  59.0921         29
  59.1293         29
  59.1664         21
  59.2036         28
  59.2408         27
  59.2779         33
  59.3151         18
  59.3522         28
  59.3894         22
  59.4265         27
  59.4637         29
  59.5008         28
  59.5380         19
  59.5751         23
  59.6123         24
  59.6494         17
  59.6866         28
  59.7237         19
  59.7609         21
  59.7980         30
  59.8352         21
  59.8723         21
  59.9095         34
  59.9466         21
  59.9838         32
  60.0024         23