File: notebooks/data/xrd_data/ML_20220720_3_SJD_4_LaB6-2min.uxd
; (content of file Y:\Sam\Apurva-07-20-2022\puck4\ML_20220718_3_SJD_0_LaB6-2min.raw)
_FILEVERSION = 3
_SAMPLE = ML_20220718_3_SJD_0_LaB6-2mi
_+SAMPLE =
_SITE = USA
_USER = Administrator
_GONIOMETER_CODE = 20
; Goniometer : D8 theta/2theta, stage : Unknown
_ATTACHMENTS_CODE = 0
_GONIOMETER_RADIUS = 200.5
_FIXED_DIVSLIT = 0.6
_FIXED_SAMPLESLIT = 0
_SOLLER_SLITS = 2
_FIXED_DETSLIT = 9.55
_MONOCHROMATOR = 0
; Incident beam monochromator : None
_SOLLER_SLITS_2 = N
_THIN_FILM = N
_BETA_FILTER = Y
_FIXED_ANTISLIT = 5.89
_ANALYZER_CODE = 0
; Received beam analyzer : None
_DATEMEASURED = "21-Jul-2022 02:53:54"
_WL_UNIT = A
_WL1 = 1.5406
_WL2 = 1.54439
_WL3 = 1.39222
_WLRATIO = 0.5
_ANODE = Cu
_V4_INF_CREATOR = XRDWizard
_V4_INF_CREATOR_VERSION = V2.9.0.22
_V4_INF_WIZARD_VERSION = V2.9.0.22
_V4_INF_WIZARD_ADDINS = V2.9.0.22
_V4_INF_WIZARD_DOCTYPE = XRD
_V4_INF_OSUSER = McQueenLab
_V4_INF_USER = Administrator
_V4_INF_SITE = USA
_V4_INF_SAMPLEID = ML_20220718_3_SJD_0_LaB6-2mi

; Data for range 1
_DRIVE = COUPLED
_STEPTIME = 5.64
_STEPSIZE = 0.0185756
_STEPMODE = C
_START = 5
_THETA = 2.5
_2THETA = 5
_KHI = 0
_PHI = 0
_X = 0
_Y = 0
_Z = 0
_DETECTOR = 5
; Detector type : Unknown
_DETECTORSLIT = unkn
_AUX1 = 0
_AUX2 = 0
_AUX3 = 0
_TIMESTARTED = 15
_TEMP_RATE = -1
_TEMP_DELAY = -1
_KV = 40
_MA = 40
_RANGE_WL = 1.5406
_3DPLANE = 0
_V4_ADDITIONALDETECTOR = 257
_V4_PSD2THETA = 3.4139
_V4_PSDCHANNEL1 = 0
_V4_PSDAPERTURE = 12.68
_V4_PSDTYPE = 5
_V4_PSDFIXED = 0
_V4_COUNTERS_MASK = 4096
_V4_DRIVES_MASK = 0
_V4_ENCODERS_MASK = 0
_2THETACOUNTS = 1
; 2THETA  PSD
   5.0000        127
   5.0372        130
   5.0743        113
   5.1115        109
   5.1486        115
   5.1858        113
   5.2229        123
   5.2601        115
   5.2972        111
   5.3344         97
   5.3715        131
   5.4087        121
   5.4458        114
   5.4830        117
   5.5201        102
   5.5573        107
   5.5944        119
   5.6316        104
   5.6687        113
   5.7059        101
   5.7430        107
   5.7802        102
   5.8173        117
   5.8545         87
   5.8916         99
   5.9288        123
   5.9659         92
   6.0031        107
   6.0402         97
   6.0774         98
   6.1145         94
   6.1517         80
   6.1888         91
   6.2260         89
   6.2631         94
   6.3003         98
   6.3374        100
   6.3746         83
   6.4117         95
   6.4489         88
   6.4860         86
   6.5232         97
   6.5604         79
   6.5975         93
   6.6347         76
   6.6718         97
   6.7090         74
   6.7461         77
   6.7833         80
   6.8204         74
   6.8576         83
   6.8947         71
   6.9319         82
   6.9690         77
   7.0062         76
   7.0433         72
   7.0805         68
   7.1176         67
   7.1548         79
   7.1919         76
   7.2291         76
   7.2662         65
   7.3034         88
   7.3405         66
   7.3777         70
   7.4148         90
   7.4520         72
   7.4891         83
   7.5263         82
   7.5634         85
   7.6006         97
   7.6377         86
   7.6749         77
   7.7120        101
   7.7492         90
   7.7863         77
   7.8235         94
   7.8606         93
   7.8978         83
   7.9349         90
   7.9721        110
   8.0092         90
   8.0464         93
   8.0835         92
   8.1207         99
   8.1579         89
   8.1950        101
   8.2322         84
   8.2693         78
   8.3065         97
   8.3436         75
   8.3808         91
   8.4179         96
   8.4551         85
   8.4922         83
   8.5294        109
   8.5665         78
   8.6037        108
   8.6408        110
   8.6780         78
   8.7151        100
   8.7523        104
   8.7894         78
   8.8266        108
   8.8637         92
   8.9009         92
   8.9380        112
   8.9752        104
   9.0123        112
   9.0495        110
   9.0866         97
   9.1238        105
   9.1609        128
   9.1981        111
   9.2352        103
   9.2724        107
   9.3095        111
   9.3467        115
   9.3838         95
   9.4210        104
   9.4581         96
   9.4953         93
   9.5324         98
   9.5696        111
   9.6067        112
   9.6439        100
   9.6811        107
   9.7182        130
   9.7554        111
   9.7925         89
   9.8297        114
   9.8668         96
   9.9040        123
   9.9411        111
   9.9783        108
  10.0154        116
  10.0526        129
  10.0897        123
  10.1269        130
  10.1640        103
  10.2012        100
  10.2383        118
  10.2755        125
  10.3126        113
  10.3498        120
  10.3869         96
  10.4241        121
  10.4612        110
  10.4984        135
  10.5355        116
  10.5727        111
  10.6098        108
  10.6470        111
  10.6841        115
  10.7213        117
  10.7584        134
  10.7956        132
  10.8327        110
  10.8699        123
  10.9070        116
  10.9442        123
  10.9813        136
  11.0185         98
  11.0556         86
  11.0928        111
  11.1299        110
  11.1671        116
  11.2043        127
  11.2414        106
  11.2786        123
  11.3157        120
  11.3529        110
  11.3900        110
  11.4272        112
  11.4643        116
  11.5015        120
  11.5386        124
  11.5758        101
  11.6129        121
  11.6501        126
  11.6872        119
  11.7244        114
  11.7615        109
  11.7987        127
  11.8358         99
  11.8730        114
  11.9101        113
  11.9473        111
  11.9844        135
  12.0216        103
  12.0587        110
  12.0959        118
  12.1330        104
  12.1702        107
  12.2073        114
  12.2445        103
  12.2816         99
  12.3188        117
  12.3559        103
  12.3931        102
  12.4302        108
  12.4674         98
  12.5045        119
  12.5417        119
  12.5788         91
  12.6160        101
  12.6531        109
  12.6903         91
  12.7274         95
  12.7646         96
  12.8018        111
  12.8389         98
  12.8761         88
  12.9132         88
  12.9504         81
  12.9875         95
  13.0247         88
  13.0618         95
  13.0990        110
  13.1361        104
  13.1733         93
  13.2104        115
  13.2476         98
  13.2847         97
  13.3219         89
  13.3590         89
  13.3962         85
  13.4333         81
  13.4705         84
  13.5076        102
  13.5448         88
  13.5819         92
  13.6191         87
  13.6562         90
  13.6934         94
  13.7305         90
  13.7677         85
  13.8048         97
  13.8420         87
  13.8791         93
  13.9163         90
  13.9534        108
  13.9906         83
  14.0277        100
  14.0649         97
  14.1020         86
  14.1392         94
  14.1763         93
  14.2135         94
  14.2506         76
  14.2878         89
  14.3250         86
  14.3621         76
  14.3993         79
  14.4364         79
  14.4736         70
  14.5107         80
  14.5479         71
  14.5850         94
  14.6222         74
  14.6593         92
  14.6965         76
  14.7336         88
  14.7708         85
  14.8079         61
  14.8451         71
  14.8822         68
  14.9194         72
  14.9565         76
  14.9937         78
  15.0308         99
  15.0680         77
  15.1051        109
  15.1423         81
  15.1794         97
  15.2166         83
  15.2537         88
  15.2909         91
  15.3280         75
  15.3652         85
  15.4023         81
  15.4395         80
  15.4766         81
  15.5138         66
  15.5509         95
  15.5881         68
  15.6252         90
  15.6624         82
  15.6995         78
  15.7367         74
  15.7738         72
  15.8110         75
  15.8482         61
  15.8853         83
  15.9225         64
  15.9596         71
  15.9968         86
  16.0339         68
  16.0711         84
  16.1082         71
  16.1454         91
  16.1825         90
  16.2197         67
  16.2568         76
  16.2940         80
  16.3311         85
  16.3683         66
  16.4054         77
  16.4426         94
  16.4797         94
  16.5169         90
  16.5540         91
  16.5912         68
  16.6283         84
  16.6655         84
  16.7026         56
  16.7398         85
  16.7769         94
  16.8141         75
  16.8512         87
  16.8884         75
  16.9255         61
  16.9627         82
  16.9998         66
  17.0370         80
  17.0741         77
  17.1113         73
  17.1484         82
  17.1856         85
  17.2227         90
  17.2599         70
  17.2970         75
  17.3342         76
  17.3713         73
  17.4085         83
  17.4457         83
  17.4828         83
  17.5200         70
  17.5571         77
  17.5943         86
  17.6314         80
  17.6686         92
  17.7057         77
  17.7429         78
  17.7800         79
  17.8172         84
  17.8543         64
  17.8915         77
  17.9286         70
  17.9658         70
  18.0029         82
  18.0401         81
  18.0772         89
  18.1144         81
  18.1515         86
  18.1887         74
  18.2258         74
  18.2630         71
  18.3001         84
  18.3373         74
  18.3744         82
  18.4116         86
  18.4487         77
  18.4859         89
  18.5230         93
  18.5602         69
  18.5973         71
  18.6345         81
  18.6716         87
  18.7088         69
  18.7459         90
  18.7831         80
  18.8202         90
  18.8574         75
  18.8945         85
  18.9317         90
  18.9689         91
  19.0060         87
  19.0432         87
  19.0803         72
  19.1175         76
  19.1546         81
  19.1918         79
  19.2289         71
  19.2661         90
  19.3032         85
  19.3404         82
  19.3775         81
  19.4147         76
  19.4518         99
  19.4890         92
  19.5261         72
  19.5633         78
  19.6004         89
  19.6376         82
  19.6747         88
  19.7119         91
  19.7490         82
  19.7862         85
  19.8233         75
  19.8605         77
  19.8976        110
  19.9348         91
  19.9719         66
  20.0091        101
  20.0462         74
  20.0834         96
  20.1205         83
  20.1577         87
  20.1948        100
  20.2320         93
  20.2691        101
  20.3063         91
  20.3434         93
  20.3806         75
  20.4177         80
  20.4549         95
  20.4921         89
  20.5292         99
  20.5664         97
  20.6035         80
  20.6407         78
  20.6778         89
  20.7150         96
  20.7521         84
  20.7893        102
  20.8264         91
  20.8636         97
  20.9007         99
  20.9379         97
  20.9750         91
  21.0122        100
  21.0493         96
  21.0865        102
  21.1236        104
  21.1608        129
  21.1979        160
  21.2351        141
  21.2722        153
  21.3094        188
  21.3465        271
  21.3837        187
  21.4208        134
  21.4580         97
  21.4951         87
  21.5323         88
  21.5694         86
  21.6066        108
  21.6437        101
  21.6809         86
  21.7180        111
  21.7552         76
  21.7923         91
  21.8295         79
  21.8666         98
  21.9038        102
  21.9409        107
  21.9781         92
  22.0152         89
  22.0524         88
  22.0896         98
  22.1267         93
  22.1639        113
  22.2010         88
  22.2382        104
  22.2753        105
  22.3125        108
  22.3496         94
  22.3868        104
  22.4239         87
  22.4611         86
  22.4982         95
  22.5354        111
  22.5725        102
  22.6097         91
  22.6468         81
  22.6840        103
  22.7211         99
  22.7583         90
  22.7954        111
  22.8326        104
  22.8697         94
  22.9069         91
  22.9440         83
  22.9812         96
  23.0183        120
  23.0555        104
  23.0926        101
  23.1298         97
  23.1669        112
  23.2041        103
  23.2412         92
  23.2784        100
  23.3155         89
  23.3527         72
  23.3898        109
  23.4270        108
  23.4641        112
  23.5013         89
  23.5384        102
  23.5756        110
  23.6128        102
  23.6499         82
  23.6871         96
  23.7242         92
  23.7614        106
  23.7985         95
  23.8357        108
  23.8728        103
  23.9100        101
  23.9471         95
  23.9843        118
  24.0214        102
  24.0586        108
  24.0957         93
  24.1329         97
  24.1700         88
  24.2072        101
  24.2443        126
  24.2815        109
  24.3186        102
  24.3558         94
  24.3929         86
  24.4301        101
  24.4672         94
  24.5044        109
  24.5415         87
  24.5787         96
  24.6158        112
  24.6530         90
  24.6901        100
  24.7273         93
  24.7644         90
  24.8016         99
  24.8387         97
  24.8759        106
  24.9130        101
  24.9502         77
  24.9873         87
  25.0245         92
  25.0616         91
  25.0988        115
  25.1360         67
  25.1731         93
  25.2103         99
  25.2474         73
  25.2846         93
  25.3217         98
  25.3589        106
  25.3960         78
  25.4332         88
  25.4703         96
  25.5075         83
  25.5446         88
  25.5818         97
  25.6189         92
  25.6561         87
  25.6932         76
  25.7304         93
  25.7675         92
  25.8047         88
  25.8418        127
  25.8790        102
  25.9161        119
  25.9533        106
  25.9904         88
  26.0276         92
  26.0647        101
  26.1019         91
  26.1390        105
  26.1762        106
  26.2133        103
  26.2505         86
  26.2876         92
  26.3248         90
  26.3619         96
  26.3991         96
  26.4362         77
  26.4734        101
  26.5105         99
  26.5477         87
  26.5848        100
  26.6220         82
  26.6591        103
  26.6963         95
  26.7335        120
  26.7706        103
  26.8078        103
  26.8449         87
  26.8821         88
  26.9192         87
  26.9564         87
  26.9935         92
  27.0307         93
  27.0678        102
  27.1050         92
  27.1421        110
  27.1793        109
  27.2164        109
  27.2536        119
  27.2907        114
  27.3279         92
  27.3650         79
  27.4022         91
  27.4393         98
  27.4765         84
  27.5136         94
  27.5508         90
  27.5879         76
  27.6251         71
  27.6622         85
  27.6994         84
  27.7365         83
  27.7737        108
  27.8108         90
  27.8480         80
  27.8851        106
  27.9223         84
  27.9594         92
  27.9966         72
  28.0337        101
  28.0709         65
  28.1080         82
  28.1452         72
  28.1823         79
  28.2195         72
  28.2567         65
  28.2938         76
  28.3310         83
  28.3681         77
  28.4053         92
  28.4424         63
  28.4796         85
  28.5167         93
  28.5539         69
  28.5910         72
  28.6282        100
  28.6653         79
  28.7025         79
  28.7396         87
  28.7768         62
  28.8139         67
  28.8511         79
  28.8882         65
  28.9254         72
  28.9625         75
  28.9997         94
  29.0368         68
  29.0740         84
  29.1111         87
  29.1483         79
  29.1854         81
  29.2226         73
  29.2597         80
  29.2969         74
  29.3340         85
  29.3712         76
  29.4083         80
  29.4455         92
  29.4826         66
  29.5198         73
  29.5569         74
  29.5941         67
  29.6312         64
  29.6684         56
  29.7055         64
  29.7427         72
  29.7799         80
  29.8170         79
  29.8542         76
  29.8913         78
  29.9285         70
  29.9656         70
  30.0028         75
  30.0399         81
  30.0771         82
  30.1142         70
  30.1514         71
  30.1885         68
  30.2257         76
  30.2628         83
  30.3000         91
  30.3371        109
  30.3743        160
  30.4114        120
  30.4486        116
  30.4857         92
  30.5229         76
  30.5600         80
  30.5972         72
  30.6343         67
  30.6715         70
  30.7086         65
  30.7458         68
  30.7829         71
  30.8201         76
  30.8572         80
  30.8944         57
  30.9315         64
  30.9687         70
  31.0058         62
  31.0430         85
  31.0801         71
  31.1173         68
  31.1544         67
  31.1916         72
  31.2287         85
  31.2659         72
  31.3030         79
  31.3402         67
  31.3774         67
  31.4145         69
  31.4517         70
  31.4888         83
  31.5260         73
  31.5631         61
  31.6003         55
  31.6374         58
  31.6746         54
  31.7117         72
  31.7489         61
  31.7860         61
  31.8232         60
  31.8603         65
  31.8975         60
  31.9346         72
  31.9718         73
  32.0089         54
  32.0461         62
  32.0832         48
  32.1204         64
  32.1575         54
  32.1947         74
  32.2318         69
  32.2690         74
  32.3061         57
  32.3433         63
  32.3804         62
  32.4176         68
  32.4547         80
  32.4919         73
  32.5290         62
  32.5662         72
  32.6033         62
  32.6405         55
  32.6776         62
  32.7148         63
  32.7519         65
  32.7891         66
  32.8262         68
  32.8634         61
  32.9006         53
  32.9377         67
  32.9749         67
  33.0120         55
  33.0492         66
  33.0863         59
  33.1235         47
  33.1606         60
  33.1978         67
  33.2349         70
  33.2721         55
  33.3092         67
  33.3464         55
  33.3835         58
  33.4207         62
  33.4578         54
  33.4950         58
  33.5321         57
  33.5693         67
  33.6064         54
  33.6436         64
  33.6807         54
  33.7179         63
  33.7550         40
  33.7922         53
  33.8293         48
  33.8665         50
  33.9036         51
  33.9408         58
  33.9779         48
  34.0151         64
  34.0522         61
  34.0894         61
  34.1265         61
  34.1637         67
  34.2008         54
  34.2380         47
  34.2751         48
  34.3123         41
  34.3494         65
  34.3866         48
  34.4238         48
  34.4609         55
  34.4981         57
  34.5352         67
  34.5724         66
  34.6095         62
  34.6467         74
  34.6838         62
  34.7210         82
  34.7581         79
  34.7953         72
  34.8324         61
  34.8696         63
  34.9067         66
  34.9439         64
  34.9810         50
  35.0182         64
  35.0553         63
  35.0925         60
  35.1296         56
  35.1668         59
  35.2039         44
  35.2411         52
  35.2782         57
  35.3154         43
  35.3525         51
  35.3897         56
  35.4268         58
  35.4640         47
  35.5011         48
  35.5383         56
  35.5754         56
  35.6126         60
  35.6497         45
  35.6869         43
  35.7240         69
  35.7612         57
  35.7983         58
  35.8355         51
  35.8726         45
  35.9098         47
  35.9469         48
  35.9841         42
  36.0213         44
  36.0584         40
  36.0956         68
  36.1327         47
  36.1699         52
  36.2070         37
  36.2442         45
  36.2813         59
  36.3185         43
  36.3556         41
  36.3928         56
  36.4299         43
  36.4671         42
  36.5042         43
  36.5414         51
  36.5785         36
  36.6157         57
  36.6528         64
  36.6900         43
  36.7271         50
  36.7643         53
  36.8014         52
  36.8386         40
  36.8757         36
  36.9129         51
  36.9500         42
  36.9872         43
  37.0243         47
  37.0615         35
  37.0986         50
  37.1358         57
  37.1729         50
  37.2101         37
  37.2472         54
  37.2844         30
  37.3215         39
  37.3587         59
  37.3958         64
  37.4330         74
  37.4701         44
  37.5073         66
  37.5445         63
  37.5816         55
  37.6188         42
  37.6559         48
  37.6931         40
  37.7302         34
  37.7674         41
  37.8045         53
  37.8417         48
  37.8788         33
  37.9160         38
  37.9531         52
  37.9903         43
  38.0274         34
  38.0646         43
  38.1017         41
  38.1389         52
  38.1760         41
  38.2132         36
  38.2503         39
  38.2875         38
  38.3246         45
  38.3618         51
  38.3989         33
  38.4361         37
  38.4732         32
  38.5104         45
  38.5475         43
  38.5847         48
  38.6218         38
  38.6590         38
  38.6961         49
  38.7333         46
  38.7704         35
  38.8076         46
  38.8447         47
  38.8819         41
  38.9190         47
  38.9562         42
  38.9933         38
  39.0305         53
  39.0677         35
  39.1048         46
  39.1420         49
  39.1791         40
  39.2163         49
  39.2534         36
  39.2906         46
  39.3277         35
  39.3649         24
  39.4020         37
  39.4392         35
  39.4763         40
  39.5135         34
  39.5506         33
  39.5878         39
  39.6249         39
  39.6621         36
  39.6992         38
  39.7364         42
  39.7735         39
  39.8107         31
  39.8478         30
  39.8850         37
  39.9221         30
  39.9593         38
  39.9964         35
  40.0336         35
  40.0707         54
  40.1079         42
  40.1450         32
  40.1822         46
  40.2193         33
  40.2565         45
  40.2936         44
  40.3308         32
  40.3679         28
  40.4051         33
  40.4422         46
  40.4794         38
  40.5165         38
  40.5537         41
  40.5908         32
  40.6280         39
  40.6652         46
  40.7023         24
  40.7395         53
  40.7766         29
  40.8138         46
  40.8509         38
  40.8881         41
  40.9252         43
  40.9624         38
  40.9995         35
  41.0367         31
  41.0738         43
  41.1110         32
  41.1481         32
  41.1853         34
  41.2224         44
  41.2596         39
  41.2967         41
  41.3339         35
  41.3710         38
  41.4082         42
  41.4453         35
  41.4825         35
  41.5196         26
  41.5568         35
  41.5939         33
  41.6311         38
  41.6682         42
  41.7054         35
  41.7425         35
  41.7797         29
  41.8168         38
  41.8540         45
  41.8911         43
  41.9283         34
  41.9654         26
  42.0026         42
  42.0397         28
  42.0769         41
  42.1140         37
  42.1512         44
  42.1884         43
  42.2255         35
  42.2627         31
  42.2998         31
  42.3370         44
  42.3741         28
  42.4113         39
  42.4484         26
  42.4856         31
  42.5227         39
  42.5599         43
  42.5970         32
  42.6342         33
  42.6713         47
  42.7085         38
  42.7456         31
  42.7828         28
  42.8199         37
  42.8571         44
  42.8942         48
  42.9314         36
  42.9685         30
  43.0057         31
  43.0428         36
  43.0800         34
  43.1171         50
  43.1543         38
  43.1914         39
  43.2286         48
  43.2657         46
  43.3029         42
  43.3400         40
  43.3772         34
  43.4143         43
  43.4515         43
  43.4886         65
  43.5258         37
  43.5629         35
  43.6001         39
  43.6372         49
  43.6744         39
  43.7116         32
  43.7487         33
  43.7859         45
  43.8230         32
  43.8602         33
  43.8973         34
  43.9345         48
  43.9716         34
  44.0088         37
  44.0459         36
  44.0831         30
  44.1202         39
  44.1574         36
  44.1945         45
  44.2317         34
  44.2688         47
  44.3060         32
  44.3431         34
  44.3803         39
  44.4174         30
  44.4546         31
  44.4917         35
  44.5289         44
  44.5660         48
  44.6032         49
  44.6403         39
  44.6775         53
  44.7146         36
  44.7518         36
  44.7889         36
  44.8261         36
  44.8632         32
  44.9004         41
  44.9375         40
  44.9747         34
  45.0118         28
  45.0490         36
  45.0861         29
  45.1233         30
  45.1604         31
  45.1976         34
  45.2347         37
  45.2719         35
  45.3091         32
  45.3462         35
  45.3834         37
  45.4205         31
  45.4577         41
  45.4948         38
  45.5320         41
  45.5691         39
  45.6063         36
  45.6434         37
  45.6806         35
  45.7177         31
  45.7549         28
  45.7920         29
  45.8292         44
  45.8663         28
  45.9035         34
  45.9406         24
  45.9778         34
  46.0149         35
  46.0521         31
  46.0892         43
  46.1264         35
  46.1635         24
  46.2007         33
  46.2378         37
  46.2750         37
  46.3121         35
  46.3493         30
  46.3864         29
  46.4236         39
  46.4607         29
  46.4979         35
  46.5350         41
  46.5722         46
  46.6093         27
  46.6465         34
  46.6836         37
  46.7208         37
  46.7579         30
  46.7951         33
  46.8323         26
  46.8694         39
  46.9066         30
  46.9437         30
  46.9809         25
  47.0180         34
  47.0552         40
  47.0923         29
  47.1295         32
  47.1666         40
  47.2038         26
  47.2409         25
  47.2781         36
  47.3152         33
  47.3524         24
  47.3895         33
  47.4267         32
  47.4638         24
  47.5010         47
  47.5381         40
  47.5753         44
  47.6124         26
  47.6496         33
  47.6867         27
  47.7239         32
  47.7610         29
  47.7982         20
  47.8353         32
  47.8725         27
  47.9096         37
  47.9468         34
  47.9839         25
  48.0211         33
  48.0582         31
  48.0954         31
  48.1325         31
  48.1697         29
  48.2068         45
  48.2440         37
  48.2811         26
  48.3183         32
  48.3555         30
  48.3926         26
  48.4298         26
  48.4669         32
  48.5041         30
  48.5412         28
  48.5784         31
  48.6155         43
  48.6527         29
  48.6898         37
  48.7270         35
  48.7641         29
  48.8013         38
  48.8384         31
  48.8756         35
  48.9127         61
  48.9499         49
  48.9870         46
  49.0242         31
  49.0613         33
  49.0985         48
  49.1356         42
  49.1728         29
  49.2099         37
  49.2471         25
  49.2842         29
  49.3214         24
  49.3585         22
  49.3957         28
  49.4328         28
  49.4700         39
  49.5071         31
  49.5443         32
  49.5814         24
  49.6186         42
  49.6557         37
  49.6929         33
  49.7300         34
  49.7672         28
  49.8043         35
  49.8415         28
  49.8786         30
  49.9158         28
  49.9530         30
  49.9901         32
  50.0273         24
  50.0644         26
  50.1016         26
  50.1387         36
  50.1759         41
  50.2130         26
  50.2502         23
  50.2873         26
  50.3245         32
  50.3616         26
  50.3988         28
  50.4359         26
  50.4731         33
  50.5102         36
  50.5474         30
  50.5845         26
  50.6217         33
  50.6588         28
  50.6960         37
  50.7331         35
  50.7703         35
  50.8074         26
  50.8446         34
  50.8817         20
  50.9189         24
  50.9560         31
  50.9932         28
  51.0303         36
  51.0675         28
  51.1046         36
  51.1418         27
  51.1789         34
  51.2161         24
  51.2532         31
  51.2904         27
  51.3275         29
  51.3647         37
  51.4018         18
  51.4390         34
  51.4762         30
  51.5133         32
  51.5505         33
  51.5876         35
  51.6248         39
  51.6619         28
  51.6991         29
  51.7362         35
  51.7734         34
  51.8105         38
  51.8477         27
  51.8848         34
  51.9220         37
  51.9591         29
  51.9963         32
  52.0334         23
  52.0706         20
  52.1077         28
  52.1449         19
  52.1820         30
  52.2192         26
  52.2563         21
  52.2935         27
  52.3306         30
  52.3678         27
  52.4049         29
  52.4421         29
  52.4792         24
  52.5164         24
  52.5535         24
  52.5907         26
  52.6278         43
  52.6650         22
  52.7021         17
  52.7393         30
  52.7764         26
  52.8136         31
  52.8507         43
  52.8879         38
  52.9250         23
  52.9622         29
  52.9994         28
  53.0365         27
  53.0737         37
  53.1108         21
  53.1480         22
  53.1851         26
  53.2223         38
  53.2594         23
  53.2966         36
  53.3337         24
  53.3709         24
  53.4080         25
  53.4452         22
  53.4823         33
  53.5195         37
  53.5566         26
  53.5938         28
  53.6309         29
  53.6681         33
  53.7052         27
  53.7424         31
  53.7795         27
  53.8167         27
  53.8538         34
  53.8910         37
  53.9281         33
  53.9653         47
  54.0024         34
  54.0396         33
  54.0767         39
  54.1139         41
  54.1510         41
  54.1882         32
  54.2253         36
  54.2625         38
  54.2996         32
  54.3368         31
  54.3739         38
  54.4111         28
  54.4482         27
  54.4854         27
  54.5225         30
  54.5597         32
  54.5969         28
  54.6340         24
  54.6712         28
  54.7083         25
  54.7455         24
  54.7826         31
  54.8198         30
  54.8569         23
  54.8941         36
  54.9312         27
  54.9684         24
  55.0055         27
  55.0427         21
  55.0798         33
  55.1170         33
  55.1541         25
  55.1913         23
  55.2284         24
  55.2656         27
  55.3027         26
  55.3399         28
  55.3770         29
  55.4142         34
  55.4513         37
  55.4885         27
  55.5256         27
  55.5628         31
  55.5999         29
  55.6371         28
  55.6742         21
  55.7114         31
  55.7485         27
  55.7857         33
  55.8228         25
  55.8600         43
  55.8971         19
  55.9343         35
  55.9714         35
  56.0086         23
  56.0457         33
  56.0829         40
  56.1201         27
  56.1572         21
  56.1944         32
  56.2315         28
  56.2687         31
  56.3058         32
  56.3430         25
  56.3801         32
  56.4173         26
  56.4544         28
  56.4916         38
  56.5287         31
  56.5659         23
  56.6030         24
  56.6402         22
  56.6773         30
  56.7145         30
  56.7516         32
  56.7888         26
  56.8259         33
  56.8631         27
  56.9002         31
  56.9374         28
  56.9745         23
  57.0117         25
  57.0488         32
  57.0860         21
  57.1231         27
  57.1603         28
  57.1974         26
  57.2346         29
  57.2717         29
  57.3089         22
  57.3460         31
  57.3832         28
  57.4203         25
  57.4575         29
  57.4946         22
  57.5318         23
  57.5689         30
  57.6061         37
  57.6433         24
  57.6804         27
  57.7176         34
  57.7547         25
  57.7919         31
  57.8290         30
  57.8662         23
  57.9033         29
  57.9405         24
  57.9776         38
  58.0148         22
  58.0519         26
  58.0891         24
  58.1262         23
  58.1634         32
  58.2005         32
  58.2377         31
  58.2748         32
  58.3120         20
  58.3491         18
  58.3863         27
  58.4234         19
  58.4606         31
  58.4977         27
  58.5349         25
  58.5720         23
  58.6092         29
  58.6463         35
  58.6835         33
  58.7206         23
  58.7578         27
  58.7949         24
  58.8321         23
  58.8692         29
  58.9064         31
  58.9435         24
  58.9807         27
  59.0178         24
  59.0550         22
  59.0921         30
  59.1293         25
  59.1664         29
  59.2036         29
  59.2408         17
  59.2779         15
  59.3151         28
  59.3522         34
  59.3894         22
  59.4265         18
  59.4637         32
  59.5008         27
  59.5380         26
  59.5751         24
  59.6123         32
  59.6494         25
  59.6866         17
  59.7237         21
  59.7609         27
  59.7980         28
  59.8352         24
  59.8723         26
  59.9095         26
  59.9466         26
  59.9838         31
  60.0024         19