File: notebooks/data/xrd_data/ML_20220721_30_SJD_4_LaB6-4min.uxd
; (content of file Y:\Sam\Apurva-07-20-2022\puck1\ML_20220721_30_SJD_0_LaB6-4min.raw)
_FILEVERSION = 3
_SAMPLE = ML_20220721_30_SJD_0_LaB6-4min
_+SAMPLE =
_SITE = USA
_USER = Administrator
_GONIOMETER_CODE = 20
; Goniometer : D8 theta/2theta, stage : Unknown
_ATTACHMENTS_CODE = 0
_GONIOMETER_RADIUS = 200.5
_FIXED_DIVSLIT = 0.6
_FIXED_SAMPLESLIT = 0
_SOLLER_SLITS = 2
_FIXED_DETSLIT = 9.55
_MONOCHROMATOR = 0
; Incident beam monochromator : None
_SOLLER_SLITS_2 = N
_THIN_FILM = N
_BETA_FILTER = Y
_FIXED_ANTISLIT = 5.89
_ANALYZER_CODE = 0
; Received beam analyzer : None
_DATEMEASURED = "25-Jul-2022 16:07:01"
_WL_UNIT = A
_WL1 = 1.5406
_WL2 = 1.54439
_WL3 = 1.39222
_WLRATIO = 0.5
_ANODE = Cu
_V4_INF_CREATOR = XRDWizard
_V4_INF_CREATOR_VERSION = V2.9.0.22
_V4_INF_WIZARD_VERSION = V2.9.0.22
_V4_INF_WIZARD_ADDINS = V2.9.0.22
_V4_INF_WIZARD_DOCTYPE = XRD
_V4_INF_OSUSER = McQueenLab
_V4_INF_USER = Administrator
_V4_INF_SITE = USA
_V4_INF_SAMPLEID = ML_20220721_30_SJD_0_LaB6-4min

; Data for range 1
_DRIVE = COUPLED
_STEPTIME = 11.28
_STEPSIZE = 0.0185756
_STEPMODE = C
_START = 5
_THETA = 2.5
_2THETA = 5
_KHI = 0
_PHI = 0
_X = 0
_Y = 0
_Z = 0
_DETECTOR = 5
; Detector type : Unknown
_DETECTORSLIT = unkn
_AUX1 = 0
_AUX2 = 0
_AUX3 = 0
_TIMESTARTED = 16
_TEMP_RATE = -1
_TEMP_DELAY = -1
_KV = 40
_MA = 40
_RANGE_WL = 1.5406
_3DPLANE = 0
_V4_ADDITIONALDETECTOR = 257
_V4_PSD2THETA = 3.3674
_V4_PSDCHANNEL1 = 0
_V4_PSDAPERTURE = 12.68
_V4_PSDTYPE = 5
_V4_PSDFIXED = 0
_V4_COUNTERS_MASK = 4096
_V4_DRIVES_MASK = 0
_V4_ENCODERS_MASK = 0
_2THETACOUNTS = 1
; 2THETA  PSD
   5.0000        249
   5.0372        276
   5.0743        257
   5.1115        263
   5.1486        235
   5.1858        258
   5.2229        260
   5.2601        244
   5.2972        245
   5.3344        226
   5.3715        228
   5.4087        222
   5.4458        223
   5.4830        237
   5.5201        237
   5.5573        229
   5.5944        218
   5.6316        229
   5.6687        193
   5.7059        202
   5.7430        250
   5.7802        259
   5.8173        203
   5.8545        206
   5.8916        218
   5.9288        186
   5.9659        225
   6.0031        233
   6.0402        222
   6.0774        189
   6.1145        193
   6.1517        181
   6.1888        200
   6.2260        201
   6.2631        224
   6.3003        213
   6.3374        205
   6.3746        202
   6.4117        188
   6.4489        158
   6.4860        175
   6.5232        194
   6.5604        195
   6.5975        189
   6.6347        184
   6.6718        177
   6.7090        169
   6.7461        172
   6.7833        177
   6.8204        167
   6.8576        188
   6.8947        172
   6.9319        151
   6.9690        181
   7.0062        153
   7.0433        138
   7.0805        161
   7.1176        161
   7.1548        162
   7.1919        136
   7.2291        177
   7.2662        167
   7.3034        147
   7.3405        164
   7.3777        164
   7.4148        176
   7.4520        165
   7.4891        162
   7.5263        154
   7.5634        166
   7.6006        195
   7.6377        171
   7.6749        157
   7.7120        179
   7.7492        172
   7.7863        184
   7.8235        205
   7.8606        191
   7.8978        160
   7.9349        170
   7.9721        193
   8.0092        164
   8.0464        171
   8.0835        212
   8.1207        180
   8.1579        160
   8.1950        186
   8.2322        184
   8.2693        200
   8.3065        192
   8.3436        198
   8.3808        192
   8.4179        200
   8.4551        194
   8.4922        193
   8.5294        204
   8.5665        231
   8.6037        175
   8.6408        218
   8.6780        210
   8.7151        215
   8.7523        194
   8.7894        206
   8.8266        223
   8.8637        236
   8.9009        210
   8.9380        188
   8.9752        198
   9.0123        256
   9.0495        173
   9.0866        226
   9.1238        248
   9.1609        218
   9.1981        207
   9.2352        212
   9.2724        213
   9.3095        208
   9.3467        229
   9.3838        245
   9.4210        221
   9.4581        203
   9.4953        232
   9.5324        232
   9.5696        258
   9.6067        228
   9.6439        226
   9.6811        198
   9.7182        229
   9.7554        258
   9.7925        208
   9.8297        248
   9.8668        241
   9.9040        238
   9.9411        252
   9.9783        225
  10.0154        231
  10.0526        233
  10.0897        245
  10.1269        265
  10.1640        238
  10.2012        243
  10.2383        253
  10.2755        264
  10.3126        245
  10.3498        215
  10.3869        242
  10.4241        254
  10.4612        249
  10.4984        250
  10.5355        224
  10.5727        267
  10.6098        274
  10.6470        245
  10.6841        242
  10.7213        234
  10.7584        242
  10.7956        259
  10.8327        274
  10.8699        251
  10.9070        237
  10.9442        242
  10.9813        244
  11.0185        244
  11.0556        267
  11.0928        231
  11.1299        253
  11.1671        251
  11.2043        214
  11.2414        241
  11.2786        238
  11.3157        265
  11.3529        258
  11.3900        224
  11.4272        245
  11.4643        255
  11.5015        241
  11.5386        222
  11.5758        268
  11.6129        243
  11.6501        216
  11.6872        216
  11.7244        227
  11.7615        250
  11.7987        251
  11.8358        262
  11.8730        230
  11.9101        247
  11.9473        238
  11.9844        239
  12.0216        237
  12.0587        223
  12.0959        210
  12.1330        228
  12.1702        237
  12.2073        229
  12.2445        226
  12.2816        259
  12.3188        216
  12.3559        249
  12.3931        221
  12.4302        206
  12.4674        213
  12.5045        228
  12.5417        233
  12.5788        224
  12.6160        184
  12.6531        221
  12.6903        200
  12.7274        204
  12.7646        198
  12.8018        243
  12.8389        193
  12.8761        234
  12.9132        220
  12.9504        209
  12.9875        191
  13.0247        194
  13.0618        202
  13.0990        219
  13.1361        200
  13.1733        195
  13.2104        197
  13.2476        175
  13.2847        186
  13.3219        202
  13.3590        196
  13.3962        205
  13.4333        212
  13.4705        207
  13.5076        188
  13.5448        203
  13.5819        186
  13.6191        196
  13.6562        199
  13.6934        182
  13.7305        237
  13.7677        190
  13.8048        197
  13.8420        195
  13.8791        204
  13.9163        177
  13.9534        176
  13.9906        202
  14.0277        172
  14.0649        210
  14.1020        191
  14.1392        196
  14.1763        187
  14.2135        170
  14.2506        195
  14.2878        155
  14.3250        181
  14.3621        185
  14.3993        192
  14.4364        159
  14.4736        185
  14.5107        203
  14.5479        154
  14.5850        194
  14.6222        183
  14.6593        174
  14.6965        171
  14.7336        173
  14.7708        174
  14.8079        171
  14.8451        171
  14.8822        188
  14.9194        173
  14.9565        158
  14.9937        177
  15.0308        148
  15.0680        166
  15.1051        178
  15.1423        152
  15.1794        158
  15.2166        189
  15.2537        175
  15.2909        161
  15.3280        164
  15.3652        163
  15.4023        164
  15.4395        154
  15.4766        163
  15.5138        164
  15.5509        185
  15.5881        136
  15.6252        170
  15.6624        156
  15.6995        168
  15.7367        179
  15.7738        155
  15.8110        167
  15.8482        134
  15.8853        169
  15.9225        159
  15.9596        160
  15.9968        171
  16.0339        182
  16.0711        171
  16.1082        142
  16.1454        163
  16.1825        142
  16.2197        154
  16.2568        159
  16.2940        175
  16.3311        164
  16.3683        164
  16.4054        147
  16.4426        157
  16.4797        179
  16.5169        134
  16.5540        158
  16.5912        172
  16.6283        164
  16.6655        160
  16.7026        185
  16.7398        165
  16.7769        140
  16.8141        139
  16.8512        178
  16.8884        146
  16.9255        156
  16.9627        157
  16.9998        150
  17.0370        152
  17.0741        154
  17.1113        135
  17.1484        155
  17.1856        152
  17.2227        156
  17.2599        160
  17.2970        145
  17.3342        161
  17.3713        175
  17.4085        148
  17.4457        162
  17.4828        145
  17.5200        160
  17.5571        170
  17.5943        177
  17.6314        181
  17.6686        175
  17.7057        163
  17.7429        188
  17.7800        168
  17.8172        172
  17.8543        167
  17.8915        158
  17.9286        142
  17.9658        174
  18.0029        163
  18.0401        151
  18.0772        188
  18.1144        170
  18.1515        145
  18.1887        166
  18.2258        135
  18.2630        178
  18.3001        172
  18.3373        167
  18.3744        176
  18.4116        170
  18.4487        177
  18.4859        172
  18.5230        170
  18.5602        175
  18.5973        157
  18.6345        169
  18.6716        181
  18.7088        195
  18.7459        179
  18.7831        158
  18.8202        161
  18.8574        188
  18.8945        156
  18.9317        164
  18.9689        177
  19.0060        151
  19.0432        180
  19.0803        164
  19.1175        178
  19.1546        171
  19.1918        169
  19.2289        166
  19.2661        178
  19.3032        159
  19.3404        143
  19.3775        156
  19.4147        165
  19.4518        182
  19.4890        200
  19.5261        146
  19.5633        179
  19.6004        177
  19.6376        186
  19.6747        192
  19.7119        179
  19.7490        173
  19.7862        193
  19.8233        180
  19.8605        191
  19.8976        172
  19.9348        164
  19.9719        190
  20.0091        167
  20.0462        192
  20.0834        164
  20.1205        198
  20.1577        157
  20.1948        207
  20.2320        190
  20.2691        175
  20.3063        188
  20.3434        170
  20.3806        166
  20.4177        182
  20.4549        160
  20.4921        178
  20.5292        160
  20.5664        200
  20.6035        182
  20.6407        215
  20.6778        218
  20.7150        186
  20.7521        181
  20.7893        200
  20.8264        196
  20.8636        189
  20.9007        197
  20.9379        187
  20.9750        188
  21.0122        212
  21.0493        220
  21.0865        202
  21.1236        217
  21.1608        265
  21.1979        304
  21.2351        309
  21.2722        329
  21.3094        322
  21.3465        534
  21.3837        395
  21.4208        363
  21.4580        226
  21.4951        225
  21.5323        235
  21.5694        177
  21.6066        189
  21.6437        209
  21.6809        206
  21.7180        193
  21.7552        183
  21.7923        173
  21.8295        226
  21.8666        219
  21.9038        197
  21.9409        193
  21.9781        198
  22.0152        215
  22.0524        175
  22.0896        205
  22.1267        200
  22.1639        186
  22.2010        194
  22.2382        205
  22.2753        202
  22.3125        189
  22.3496        229
  22.3868        212
  22.4239        214
  22.4611        178
  22.4982        216
  22.5354        206
  22.5725        184
  22.6097        209
  22.6468        192
  22.6840        182
  22.7211        186
  22.7583        207
  22.7954        196
  22.8326        201
  22.8697        224
  22.9069        203
  22.9440        209
  22.9812        196
  23.0183        218
  23.0555        179
  23.0926        206
  23.1298        207
  23.1669        182
  23.2041        216
  23.2412        207
  23.2784        202
  23.3155        208
  23.3527        198
  23.3898        175
  23.4270        213
  23.4641        184
  23.5013        202
  23.5384        207
  23.5756        213
  23.6128        182
  23.6499        221
  23.6871        223
  23.7242        205
  23.7614        196
  23.7985        229
  23.8357        194
  23.8728        205
  23.9100        198
  23.9471        191
  23.9843        216
  24.0214        203
  24.0586        201
  24.0957        220
  24.1329        200
  24.1700        206
  24.2072        200
  24.2443        222
  24.2815        254
  24.3186        201
  24.3558        237
  24.3929        212
  24.4301        180
  24.4672        174
  24.5044        219
  24.5415        197
  24.5787        205
  24.6158        182
  24.6530        190
  24.6901        182
  24.7273        196
  24.7644        201
  24.8016        189
  24.8387        188
  24.8759        208
  24.9130        195
  24.9502        191
  24.9873        225
  25.0245        210
  25.0616        194
  25.0988        193
  25.1360        209
  25.1731        218
  25.2103        212
  25.2474        192
  25.2846        202
  25.3217        213
  25.3589        220
  25.3960        201
  25.4332        181
  25.4703        189
  25.5075        215
  25.5446        200
  25.5818        186
  25.6189        198
  25.6561        169
  25.6932        207
  25.7304        173
  25.7675        199
  25.8047        188
  25.8418        185
  25.8790        202
  25.9161        179
  25.9533        202
  25.9904        179
  26.0276        226
  26.0647        186
  26.1019        188
  26.1390        214
  26.1762        196
  26.2133        195
  26.2505        204
  26.2876        189
  26.3248        192
  26.3619        207
  26.3991        196
  26.4362        188
  26.4734        195
  26.5105        203
  26.5477        169
  26.5848        194
  26.6220        206
  26.6591        184
  26.6963        186
  26.7335        183
  26.7706        182
  26.8078        200
  26.8449        176
  26.8821        174
  26.9192        188
  26.9564        205
  26.9935        195
  27.0307        187
  27.0678        194
  27.1050        177
  27.1421        201
  27.1793        237
  27.2164        278
  27.2536        213
  27.2907        244
  27.3279        221
  27.3650        181
  27.4022        190
  27.4393        175
  27.4765        202
  27.5136        194
  27.5508        187
  27.5879        164
  27.6251        187
  27.6622        175
  27.6994        188
  27.7365        176
  27.7737        170
  27.8108        188
  27.8480        193
  27.8851        176
  27.9223        184
  27.9594        179
  27.9966        176
  28.0337        172
  28.0709        188
  28.1080        162
  28.1452        174
  28.1823        167
  28.2195        171
  28.2567        173
  28.2938        169
  28.3310        154
  28.3681        179
  28.4053        182
  28.4424        166
  28.4796        152
  28.5167        180
  28.5539        152
  28.5910        142
  28.6282        159
  28.6653        164
  28.7025        157
  28.7396        138
  28.7768        154
  28.8139        155
  28.8511        162
  28.8882        165
  28.9254        171
  28.9625        143
  28.9997        167
  29.0368        170
  29.0740        169
  29.1111        165
  29.1483        177
  29.1854        158
  29.2226        171
  29.2597        142
  29.2969        143
  29.3340        146
  29.3712        158
  29.4083        168
  29.4455        147
  29.4826        147
  29.5198        152
  29.5569        152
  29.5941        169
  29.6312        176
  29.6684        145
  29.7055        179
  29.7427        157
  29.7799        161
  29.8170        169
  29.8542        159
  29.8913        139
  29.9285        150
  29.9656        180
  30.0028        150
  30.0399        141
  30.0771        169
  30.1142        132
  30.1514        139
  30.1885        166
  30.2257        185
  30.2628        187
  30.3000        170
  30.3371        208
  30.3743        345
  30.4114        270
  30.4486        260
  30.4857        202
  30.5229        172
  30.5600        144
  30.5972        171
  30.6343        131
  30.6715        154
  30.7086        148
  30.7458        148
  30.7829        144
  30.8201        134
  30.8572        158
  30.8944        130
  30.9315        151
  30.9687        152
  31.0058        148
  31.0430        153
  31.0801        151
  31.1173        140
  31.1544        131
  31.1916        119
  31.2287        137
  31.2659        142
  31.3030        146
  31.3402        160
  31.3774        127
  31.4145        153
  31.4517        140
  31.4888        155
  31.5260        135
  31.5631        158
  31.6003        139
  31.6374        147
  31.6746        134
  31.7117        143
  31.7489        144
  31.7860        135
  31.8232        148
  31.8603        138
  31.8975        144
  31.9346        138
  31.9718        125
  32.0089        111
  32.0461        131
  32.0832        136
  32.1204        130
  32.1575        135
  32.1947        154
  32.2318        135
  32.2690        129
  32.3061        131
  32.3433        127
  32.3804        145
  32.4176        142
  32.4547        156
  32.4919        141
  32.5290        145
  32.5662        152
  32.6033        141
  32.6405        151
  32.6776        126
  32.7148        135
  32.7519        116
  32.7891        119
  32.8262        132
  32.8634        112
  32.9006        113
  32.9377        117
  32.9749        133
  33.0120        129
  33.0492        101
  33.0863        116
  33.1235        142
  33.1606        122
  33.1978        127
  33.2349        132
  33.2721        107
  33.3092        116
  33.3464        117
  33.3835        152
  33.4207        123
  33.4578        107
  33.4950        114
  33.5321        125
  33.5693        114
  33.6064        111
  33.6436        109
  33.6807        114
  33.7179        102
  33.7550        118
  33.7922        139
  33.8293         89
  33.8665        109
  33.9036        139
  33.9408        106
  33.9779        117
  34.0151        113
  34.0522        131
  34.0894        114
  34.1265        112
  34.1637        111
  34.2008        103
  34.2380        117
  34.2751        119
  34.3123        113
  34.3494        116
  34.3866        134
  34.4238        108
  34.4609        110
  34.4981        119
  34.5352        134
  34.5724        126
  34.6095        128
  34.6467        142
  34.6838        155
  34.7210        142
  34.7581        165
  34.7953        155
  34.8324        136
  34.8696        116
  34.9067        135
  34.9439        109
  34.9810        123
  35.0182        122
  35.0553        123
  35.0925        110
  35.1296        123
  35.1668        105
  35.2039        115
  35.2411        107
  35.2782        129
  35.3154         95
  35.3525        125
  35.3897         98
  35.4268        112
  35.4640        111
  35.5011         94
  35.5383        104
  35.5754        108
  35.6126        101
  35.6497        105
  35.6869         89
  35.7240         90
  35.7612        109
  35.7983        112
  35.8355        107
  35.8726         95
  35.9098        108
  35.9469        103
  35.9841         91
  36.0213         91
  36.0584         82
  36.0956        118
  36.1327        103
  36.1699         96
  36.2070        104
  36.2442         87
  36.2813         98
  36.3185         88
  36.3556         90
  36.3928        115
  36.4299         93
  36.4671         94
  36.5042        107
  36.5414        104
  36.5785        116
  36.6157         94
  36.6528         99
  36.6900         96
  36.7271         93
  36.7643         88
  36.8014         90
  36.8386        105
  36.8757         87
  36.9129         89
  36.9500         95
  36.9872         99
  37.0243         89
  37.0615         96
  37.0986         94
  37.1358         98
  37.1729        100
  37.2101         92
  37.2472         92
  37.2844         96
  37.3215         87
  37.3587        132
  37.3958        105
  37.4330        135
  37.4701        155
  37.5073        117
  37.5445        122
  37.5816         91
  37.6188         75
  37.6559         86
  37.6931        110
  37.7302         88
  37.7674         77
  37.8045         89
  37.8417         88
  37.8788         80
  37.9160         74
  37.9531         81
  37.9903         88
  38.0274         73
  38.0646         71
  38.1017         92
  38.1389         85
  38.1760         84
  38.2132         89
  38.2503         89
  38.2875         75
  38.3246         98
  38.3618         79
  38.3989        103
  38.4361         88
  38.4732         87
  38.5104         90
  38.5475         73
  38.5847         69
  38.6218         82
  38.6590         70
  38.6961        100
  38.7333         81
  38.7704         86
  38.8076         85
  38.8447         84
  38.8819         90
  38.9190         91
  38.9562         96
  38.9933         64
  39.0305         85
  39.0677         77
  39.1048         86
  39.1420         72
  39.1791         79
  39.2163        104
  39.2534         82
  39.2906         84
  39.3277         80
  39.3649         76
  39.4020         85
  39.4392         79
  39.4763         81
  39.5135         82
  39.5506         92
  39.5878         76
  39.6249         77
  39.6621         71
  39.6992         81
  39.7364         77
  39.7735         76
  39.8107         61
  39.8478         80
  39.8850         72
  39.9221         78
  39.9593         82
  39.9964         77
  40.0336         77
  40.0707         86
  40.1079         70
  40.1450         89
  40.1822         94
  40.2193         70
  40.2565         75
  40.2936         91
  40.3308         90
  40.3679         90
  40.4051         63
  40.4422         85
  40.4794         79
  40.5165         75
  40.5537         75
  40.5908         72
  40.6280         71
  40.6652         58
  40.7023         80
  40.7395         62
  40.7766         88
  40.8138         66
  40.8509         80
  40.8881         82
  40.9252         92
  40.9624         92
  40.9995         81
  41.0367         88
  41.0738         85
  41.1110         76
  41.1481         72
  41.1853         63
  41.2224         72
  41.2596         75
  41.2967         77
  41.3339         68
  41.3710         76
  41.4082         79
  41.4453         59
  41.4825         67
  41.5196         87
  41.5568         59
  41.5939         77
  41.6311         66
  41.6682         73
  41.7054         77
  41.7425         75
  41.7797         79
  41.8168         69
  41.8540         72
  41.8911         71
  41.9283         85
  41.9654         74
  42.0026         70
  42.0397         77
  42.0769         69
  42.1140         68
  42.1512         87
  42.1884         86
  42.2255         82
  42.2627         71
  42.2998         74
  42.3370         84
  42.3741         67
  42.4113         97
  42.4484         82
  42.4856         76
  42.5227         89
  42.5599         79
  42.5970         84
  42.6342         74
  42.6713         85
  42.7085         82
  42.7456         70
  42.7828         80
  42.8199         74
  42.8571         74
  42.8942         92
  42.9314         85
  42.9685         80
  43.0057         72
  43.0428         73
  43.0800         91
  43.1171         71
  43.1543         76
  43.1914         83
  43.2286         79
  43.2657         98
  43.3029         73
  43.3400         89
  43.3772         76
  43.4143         72
  43.4515         85
  43.4886        125
  43.5258        145
  43.5629         82
  43.6001         97
  43.6372        100
  43.6744         93
  43.7116         81
  43.7487         87
  43.7859         75
  43.8230         81
  43.8602         68
  43.8973         80
  43.9345         77
  43.9716         92
  44.0088         75
  44.0459         70
  44.0831         76
  44.1202         77
  44.1574         56
  44.1945         63
  44.2317         72
  44.2688         77
  44.3060         85
  44.3431         77
  44.3803         70
  44.4174         71
  44.4546         66
  44.4917         74
  44.5289         71
  44.5660         78
  44.6032         71
  44.6403         65
  44.6775         89
  44.7146        103
  44.7518         86
  44.7889         82
  44.8261         66
  44.8632         67
  44.9004         77
  44.9375         60
  44.9747         80
  45.0118         71
  45.0490         61
  45.0861         78
  45.1233         72
  45.1604         68
  45.1976         92
  45.2347         57
  45.2719         64
  45.3091         77
  45.3462         82
  45.3834         76
  45.4205         72
  45.4577         70
  45.4948         72
  45.5320         62
  45.5691         62
  45.6063         70
  45.6434         62
  45.6806         69
  45.7177         66
  45.7549         80
  45.7920         67
  45.8292         62
  45.8663         64
  45.9035         62
  45.9406         73
  45.9778         76
  46.0149         54
  46.0521         82
  46.0892         67
  46.1264         73
  46.1635         66
  46.2007         68
  46.2378         74
  46.2750         55
  46.3121         50
  46.3493         60
  46.3864         86
  46.4236         67
  46.4607         73
  46.4979         76
  46.5350         54
  46.5722         57
  46.6093         76
  46.6465         61
  46.6836         54
  46.7208         73
  46.7579         75
  46.7951         62
  46.8323         73
  46.8694         70
  46.9066         56
  46.9437         76
  46.9809         65
  47.0180         67
  47.0552         61
  47.0923         68
  47.1295         63
  47.1666         71
  47.2038         59
  47.2409         89
  47.2781         63
  47.3152         89
  47.3524         61
  47.3895         52
  47.4267         64
  47.4638         55
  47.5010         68
  47.5381         81
  47.5753         63
  47.6124         71
  47.6496         64
  47.6867         61
  47.7239         63
  47.7610         70
  47.7982         65
  47.8353         53
  47.8725         57
  47.9096         61
  47.9468         55
  47.9839         64
  48.0211         55
  48.0582         68
  48.0954         67
  48.1325         68
  48.1697         69
  48.2068         64
  48.2440         68
  48.2811         68
  48.3183         70
  48.3555         55
  48.3926         61
  48.4298         64
  48.4669         66
  48.5041         81
  48.5412         82
  48.5784         64
  48.6155         54
  48.6527         66
  48.6898         76
  48.7270         51
  48.7641         61
  48.8013         67
  48.8384         75
  48.8756         56
  48.9127         60
  48.9499        121
  48.9870         97
  49.0242         89
  49.0613         94
  49.0985        125
  49.1356         76
  49.1728         84
  49.2099         72
  49.2471         64
  49.2842         52
  49.3214         49
  49.3585         57
  49.3957         62
  49.4328         54
  49.4700         64
  49.5071         63
  49.5443         64
  49.5814         79
  49.6186         78
  49.6557         58
  49.6929         59
  49.7300         53
  49.7672         68
  49.8043         53
  49.8415         63
  49.8786         71
  49.9158         57
  49.9530         53
  49.9901         74
  50.0273         63
  50.0644         66
  50.1016         56
  50.1387         61
  50.1759         69
  50.2130         64
  50.2502         65
  50.2873         70
  50.3245         77
  50.3616         54
  50.3988         68
  50.4359         72
  50.4731         72
  50.5102         51
  50.5474         57
  50.5845         65
  50.6217         55
  50.6588         71
  50.6960         50
  50.7331         60
  50.7703         68
  50.8074         52
  50.8446         67
  50.8817         58
  50.9189         54
  50.9560         53
  50.9932         57
  51.0303         58
  51.0675         49
  51.1046         60
  51.1418         62
  51.1789         46
  51.2161         61
  51.2532         64
  51.2904         55
  51.3275         50
  51.3647         60
  51.4018         70
  51.4390         56
  51.4762         77
  51.5133         61
  51.5505         74
  51.5876         50
  51.6248         52
  51.6619         50
  51.6991         62
  51.7362         52
  51.7734         72
  51.8105         89
  51.8477         68
  51.8848         64
  51.9220         63
  51.9591         75
  51.9963         58
  52.0334         59
  52.0706         70
  52.1077         61
  52.1449         60
  52.1820         58
  52.2192         61
  52.2563         59
  52.2935         48
  52.3306         52
  52.3678         55
  52.4049         59
  52.4421         67
  52.4792         58
  52.5164         54
  52.5535         64
  52.5907         73
  52.6278         58
  52.6650         57
  52.7021         46
  52.7393         57
  52.7764         51
  52.8136         69
  52.8507         59
  52.8879         64
  52.9250         69
  52.9622         74
  52.9994         64
  53.0365         60
  53.0737         63
  53.1108         60
  53.1480         63
  53.1851         63
  53.2223         56
  53.2594         60
  53.2966         58
  53.3337         62
  53.3709         70
  53.4080         57
  53.4452         57
  53.4823         59
  53.5195         52
  53.5566         54
  53.5938         58
  53.6309         47
  53.6681         67
  53.7052         45
  53.7424         70
  53.7795         43
  53.8167         59
  53.8538         54
  53.8910         69
  53.9281         56
  53.9653         93
  54.0024         88
  54.0396         62
  54.0767         66
  54.1139         76
  54.1510         62
  54.1882         64
  54.2253         67
  54.2625         63
  54.2996         53
  54.3368         60
  54.3739         59
  54.4111         63
  54.4482         45
  54.4854         68
  54.5225         51
  54.5597         59
  54.5969         57
  54.6340         54
  54.6712         55
  54.7083         59
  54.7455         51
  54.7826         59
  54.8198         55
  54.8569         80
  54.8941         50
  54.9312         65
  54.9684         56
  55.0055         56
  55.0427         62
  55.0798         52
  55.1170         60
  55.1541         49
  55.1913         59
  55.2284         56
  55.2656         51
  55.3027         58
  55.3399         40
  55.3770         81
  55.4142         44
  55.4513         55
  55.4885         62
  55.5256         42
  55.5628         49
  55.5999         56
  55.6371         67
  55.6742         57
  55.7114         39
  55.7485         54
  55.7857         57
  55.8228         68
  55.8600         54
  55.8971         58
  55.9343         46
  55.9714         53
  56.0086         52
  56.0457         65
  56.0829         68
  56.1201         54
  56.1572         61
  56.1944         63
  56.2315         65
  56.2687         63
  56.3058         49
  56.3430         56
  56.3801         56
  56.4173         52
  56.4544         61
  56.4916         55
  56.5287         54
  56.5659         51
  56.6030         61
  56.6402         48
  56.6773         67
  56.7145         62
  56.7516         59
  56.7888         58
  56.8259         54
  56.8631         60
  56.9002         60
  56.9374         55
  56.9745         56
  57.0117         59
  57.0488         60
  57.0860         48
  57.1231         53
  57.1603         51
  57.1974         58
  57.2346         54
  57.2717         49
  57.3089         46
  57.3460         49
  57.3832         68
  57.4203         55
  57.4575         59
  57.4946         49
  57.5318         67
  57.5689         59
  57.6061         60
  57.6433         61
  57.6804         54
  57.7176         50
  57.7547         52
  57.7919         61
  57.8290         54
  57.8662         54
  57.9033         77
  57.9405         69
  57.9776         55
  58.0148         54
  58.0519         57
  58.0891         64
  58.1262         52
  58.1634         61
  58.2005         54
  58.2377         47
  58.2748         53
  58.3120         51
  58.3491         61
  58.3863         68
  58.4234         54
  58.4606         66
  58.4977         61
  58.5349         60
  58.5720         67
  58.6092         56
  58.6463         52
  58.6835         52
  58.7206         45
  58.7578         60
  58.7949         56
  58.8321         63
  58.8692         71
  58.9064         52
  58.9435         61
  58.9807         64
  59.0178         49
  59.0550         55
  59.0921         58
  59.1293         61
  59.1664         51
  59.2036         51
  59.2408         51
  59.2779         61
  59.3151         53
  59.3522         50
  59.3894         56
  59.4265         35
  59.4637         58
  59.5008         52
  59.5380         58
  59.5751         57
  59.6123         43
  59.6494         61
  59.6866         48
  59.7237         65
  59.7609         59
  59.7980         59
  59.8352         62
  59.8723         56
  59.9095         64
  59.9466         65
  59.9838         57
  60.0024         55