File: notebooks/data/xrd_data/ML_20220718_47_SJD_4_LaB6-4min.uxd
; (content of file Y:\Sam\Apurva-07-20-2022\puck4\ML_20220718_47_SJD_4_LaB6-4min.raw)
_FILEVERSION = 3
_SAMPLE = ML_20220718_47_SJD_4_LaB6-4min
_+SAMPLE =
_SITE = USA
_USER = Administrator
_GONIOMETER_CODE = 20
; Goniometer : D8 theta/2theta, stage : Unknown
_ATTACHMENTS_CODE = 0
_GONIOMETER_RADIUS = 200.5
_FIXED_DIVSLIT = 0.6
_FIXED_SAMPLESLIT = 0
_SOLLER_SLITS = 2
_FIXED_DETSLIT = 9.55
_MONOCHROMATOR = 0
; Incident beam monochromator : None
_SOLLER_SLITS_2 = N
_THIN_FILM = N
_BETA_FILTER = Y
_FIXED_ANTISLIT = 5.89
_ANALYZER_CODE = 0
; Received beam analyzer : None
_DATEMEASURED = "26-Jul-2022 13:47:21"
_WL_UNIT = A
_WL1 = 1.5406
_WL2 = 1.54439
_WL3 = 1.39222
_WLRATIO = 0.5
_ANODE = Cu
_V4_INF_CREATOR = XRDWizard
_V4_INF_CREATOR_VERSION = V2.9.0.22
_V4_INF_WIZARD_VERSION = V2.9.0.22
_V4_INF_WIZARD_ADDINS = V2.9.0.22
_V4_INF_WIZARD_DOCTYPE = XRD
_V4_INF_OSUSER = McQueenLab
_V4_INF_USER = Administrator
_V4_INF_SITE = USA
_V4_INF_SAMPLEID = ML_20220718_47_SJD_4_LaB6-4min

; Data for range 1
_DRIVE = COUPLED
_STEPTIME = 11.28
_STEPSIZE = 0.0185756
_STEPMODE = C
_START = 5
_THETA = 2.5
_2THETA = 5
_KHI = 0
_PHI = 0
_X = 0
_Y = 0
_Z = 0
_DETECTOR = 5
; Detector type : Unknown
_DETECTORSLIT = unkn
_AUX1 = 0
_AUX2 = 0
_AUX3 = 0
_TIMESTARTED = 15
_TEMP_RATE = -1
_TEMP_DELAY = -1
_KV = 40
_MA = 40
_RANGE_WL = 1.5406
_3DPLANE = 0
_V4_ADDITIONALDETECTOR = 257
_V4_PSD2THETA = 3.3662
_V4_PSDCHANNEL1 = 0
_V4_PSDAPERTURE = 12.68
_V4_PSDTYPE = 5
_V4_PSDFIXED = 0
_V4_COUNTERS_MASK = 4096
_V4_DRIVES_MASK = 0
_V4_ENCODERS_MASK = 0
_2THETACOUNTS = 1
; 2THETA  PSD
   5.0000        252
   5.0372        232
   5.0743        275
   5.1115        250
   5.1486        264
   5.1858        224
   5.2229        258
   5.2601        263
   5.2972        239
   5.3344        251
   5.3715        241
   5.4087        245
   5.4458        234
   5.4830        206
   5.5201        213
   5.5573        214
   5.5944        232
   5.6316        202
   5.6687        203
   5.7059        218
   5.7430        216
   5.7802        215
   5.8173        193
   5.8545        218
   5.8916        183
   5.9288        215
   5.9659        208
   6.0031        183
   6.0402        189
   6.0774        176
   6.1145        205
   6.1517        208
   6.1888        194
   6.2260        167
   6.2631        195
   6.3003        191
   6.3374        158
   6.3746        153
   6.4117        187
   6.4489        178
   6.4860        185
   6.5232        184
   6.5604        177
   6.5975        158
   6.6347        168
   6.6718        174
   6.7090        181
   6.7461        164
   6.7833        165
   6.8204        167
   6.8576        183
   6.8947        163
   6.9319        159
   6.9690        167
   7.0062        156
   7.0433        154
   7.0805        164
   7.1176        160
   7.1548        158
   7.1919        178
   7.2291        159
   7.2662        169
   7.3034        162
   7.3405        148
   7.3777        164
   7.4148        148
   7.4520        154
   7.4891        172
   7.5263        167
   7.5634        174
   7.6006        168
   7.6377        171
   7.6749        174
   7.7120        170
   7.7492        204
   7.7863        179
   7.8235        174
   7.8606        192
   7.8978        179
   7.9349        173
   7.9721        183
   8.0092        180
   8.0464        182
   8.0835        195
   8.1207        198
   8.1579        209
   8.1950        178
   8.2322        196
   8.2693        201
   8.3065        166
   8.3436        219
   8.3808        232
   8.4179        188
   8.4551        193
   8.4922        194
   8.5294        207
   8.5665        184
   8.6037        192
   8.6408        216
   8.6780        195
   8.7151        219
   8.7523        200
   8.7894        197
   8.8266        203
   8.8637        212
   8.9009        212
   8.9380        231
   8.9752        228
   9.0123        201
   9.0495        206
   9.0866        247
   9.1238        214
   9.1609        220
   9.1981        220
   9.2352        209
   9.2724        216
   9.3095        215
   9.3467        209
   9.3838        240
   9.4210        228
   9.4581        219
   9.4953        211
   9.5324        205
   9.5696        249
   9.6067        216
   9.6439        243
   9.6811        222
   9.7182        225
   9.7554        227
   9.7925        206
   9.8297        232
   9.8668        232
   9.9040        268
   9.9411        245
   9.9783        234
  10.0154        199
  10.0526        224
  10.0897        234
  10.1269        228
  10.1640        257
  10.2012        269
  10.2383        241
  10.2755        242
  10.3126        229
  10.3498        251
  10.3869        250
  10.4241        247
  10.4612        244
  10.4984        238
  10.5355        258
  10.5727        276
  10.6098        259
  10.6470        241
  10.6841        243
  10.7213        246
  10.7584        228
  10.7956        241
  10.8327        234
  10.8699        246
  10.9070        242
  10.9442        239
  10.9813        225
  11.0185        253
  11.0556        209
  11.0928        246
  11.1299        227
  11.1671        224
  11.2043        245
  11.2414        243
  11.2786        235
  11.3157        258
  11.3529        252
  11.3900        241
  11.4272        241
  11.4643        244
  11.5015        260
  11.5386        244
  11.5758        214
  11.6129        239
  11.6501        235
  11.6872        241
  11.7244        231
  11.7615        210
  11.7987        228
  11.8358        228
  11.8730        233
  11.9101        214
  11.9473        210
  11.9844        235
  12.0216        212
  12.0587        240
  12.0959        228
  12.1330        229
  12.1702        210
  12.2073        202
  12.2445        215
  12.2816        219
  12.3188        226
  12.3559        243
  12.3931        216
  12.4302        219
  12.4674        224
  12.5045        190
  12.5417        194
  12.5788        203
  12.6160        205
  12.6531        210
  12.6903        211
  12.7274        222
  12.7646        221
  12.8018        221
  12.8389        218
  12.8761        211
  12.9132        190
  12.9504        201
  12.9875        221
  13.0247        217
  13.0618        189
  13.0990        202
  13.1361        212
  13.1733        220
  13.2104        181
  13.2476        212
  13.2847        205
  13.3219        185
  13.3590        190
  13.3962        204
  13.4333        178
  13.4705        199
  13.5076        188
  13.5448        168
  13.5819        212
  13.6191        210
  13.6562        225
  13.6934        195
  13.7305        188
  13.7677        177
  13.8048        177
  13.8420        171
  13.8791        197
  13.9163        166
  13.9534        181
  13.9906        172
  14.0277        185
  14.0649        186
  14.1020        167
  14.1392        197
  14.1763        192
  14.2135        170
  14.2506        157
  14.2878        170
  14.3250        180
  14.3621        164
  14.3993        220
  14.4364        171
  14.4736        159
  14.5107        173
  14.5479        159
  14.5850        155
  14.6222        168
  14.6593        168
  14.6965        166
  14.7336        159
  14.7708        184
  14.8079        158
  14.8451        170
  14.8822        166
  14.9194        192
  14.9565        159
  14.9937        172
  15.0308        175
  15.0680        166
  15.1051        170
  15.1423        171
  15.1794        157
  15.2166        153
  15.2537        165
  15.2909        181
  15.3280        167
  15.3652        205
  15.4023        174
  15.4395        189
  15.4766        158
  15.5138        136
  15.5509        174
  15.5881        172
  15.6252        169
  15.6624        165
  15.6995        148
  15.7367        168
  15.7738        169
  15.8110        154
  15.8482        143
  15.8853        175
  15.9225        185
  15.9596        161
  15.9968        157
  16.0339        168
  16.0711        178
  16.1082        193
  16.1454        173
  16.1825        147
  16.2197        163
  16.2568        140
  16.2940        161
  16.3311        157
  16.3683        175
  16.4054        164
  16.4426        154
  16.4797        148
  16.5169        162
  16.5540        144
  16.5912        190
  16.6283        149
  16.6655        169
  16.7026        186
  16.7398        169
  16.7769        184
  16.8141        192
  16.8512        163
  16.8884        178
  16.9255        150
  16.9627        165
  16.9998        131
  17.0370        165
  17.0741        187
  17.1113        180
  17.1484        156
  17.1856        155
  17.2227        165
  17.2599        150
  17.2970        164
  17.3342        165
  17.3713        175
  17.4085        153
  17.4457        168
  17.4828        161
  17.5200        139
  17.5571        159
  17.5943        158
  17.6314        162
  17.6686        165
  17.7057        153
  17.7429        143
  17.7800        156
  17.8172        139
  17.8543        178
  17.8915        152
  17.9286        152
  17.9658        178
  18.0029        173
  18.0401        166
  18.0772        173
  18.1144        153
  18.1515        169
  18.1887        188
  18.2258        168
  18.2630        154
  18.3001        184
  18.3373        138
  18.3744        137
  18.4116        135
  18.4487        161
  18.4859        167
  18.5230        184
  18.5602        149
  18.5973        181
  18.6345        152
  18.6716        167
  18.7088        166
  18.7459        174
  18.7831        171
  18.8202        180
  18.8574        154
  18.8945        170
  18.9317        187
  18.9689        152
  19.0060        160
  19.0432        162
  19.0803        151
  19.1175        155
  19.1546        157
  19.1918        183
  19.2289        174
  19.2661        173
  19.3032        164
  19.3404        186
  19.3775        187
  19.4147        195
  19.4518        172
  19.4890        183
  19.5261        149
  19.5633        164
  19.6004        175
  19.6376        196
  19.6747        177
  19.7119        179
  19.7490        176
  19.7862        167
  19.8233        170
  19.8605        174
  19.8976        163
  19.9348        189
  19.9719        164
  20.0091        206
  20.0462        184
  20.0834        173
  20.1205        160
  20.1577        193
  20.1948        177
  20.2320        161
  20.2691        164
  20.3063        191
  20.3434        166
  20.3806        197
  20.4177        188
  20.4549        179
  20.4921        187
  20.5292        176
  20.5664        183
  20.6035        173
  20.6407        173
  20.6778        188
  20.7150        189
  20.7521        201
  20.7893        179
  20.8264        178
  20.8636        184
  20.9007        197
  20.9379        184
  20.9750        217
  21.0122        197
  21.0493        162
  21.0865        194
  21.1236        200
  21.1608        257
  21.1979        270
  21.2351        317
  21.2722        274
  21.3094        318
  21.3465        506
  21.3837        432
  21.4208        387
  21.4580        234
  21.4951        218
  21.5323        206
  21.5694        187
  21.6066        210
  21.6437        217
  21.6809        229
  21.7180        208
  21.7552        192
  21.7923        183
  21.8295        197
  21.8666        192
  21.9038        194
  21.9409        189
  21.9781        166
  22.0152        183
  22.0524        218
  22.0896        179
  22.1267        196
  22.1639        200
  22.2010        199
  22.2382        199
  22.2753        198
  22.3125        200
  22.3496        210
  22.3868        209
  22.4239        188
  22.4611        187
  22.4982        168
  22.5354        190
  22.5725        180
  22.6097        187
  22.6468        222
  22.6840        174
  22.7211        192
  22.7583        206
  22.7954        185
  22.8326        198
  22.8697        191
  22.9069        205
  22.9440        201
  22.9812        209
  23.0183        201
  23.0555        217
  23.0926        199
  23.1298        191
  23.1669        192
  23.2041        200
  23.2412        219
  23.2784        198
  23.3155        201
  23.3527        190
  23.3898        213
  23.4270        203
  23.4641        186
  23.5013        205
  23.5384        193
  23.5756        194
  23.6128        190
  23.6499        195
  23.6871        219
  23.7242        200
  23.7614        187
  23.7985        202
  23.8357        203
  23.8728        237
  23.9100        206
  23.9471        193
  23.9843        202
  24.0214        205
  24.0586        211
  24.0957        197
  24.1329        220
  24.1700        203
  24.2072        193
  24.2443        221
  24.2815        256
  24.3186        224
  24.3558        204
  24.3929        191
  24.4301        207
  24.4672        204
  24.5044        237
  24.5415        200
  24.5787        194
  24.6158        189
  24.6530        201
  24.6901        216
  24.7273        189
  24.7644        179
  24.8016        194
  24.8387        222
  24.8759        224
  24.9130        180
  24.9502        212
  24.9873        205
  25.0245        162
  25.0616        177
  25.0988        203
  25.1360        183
  25.1731        203
  25.2103        204
  25.2474        208
  25.2846        188
  25.3217        205
  25.3589        197
  25.3960        201
  25.4332        193
  25.4703        193
  25.5075        202
  25.5446        219
  25.5818        170
  25.6189        176
  25.6561        178
  25.6932        213
  25.7304        172
  25.7675        205
  25.8047        196
  25.8418        182
  25.8790        203
  25.9161        184
  25.9533        188
  25.9904        183
  26.0276        197
  26.0647        203
  26.1019        202
  26.1390        173
  26.1762        176
  26.2133        198
  26.2505        188
  26.2876        201
  26.3248        188
  26.3619        198
  26.3991        188
  26.4362        189
  26.4734        197
  26.5105        180
  26.5477        195
  26.5848        216
  26.6220        182
  26.6591        201
  26.6963        170
  26.7335        203
  26.7706        195
  26.8078        181
  26.8449        195
  26.8821        168
  26.9192        186
  26.9564        160
  26.9935        176
  27.0307        197
  27.0678        178
  27.1050        202
  27.1421        196
  27.1793        249
  27.2164        232
  27.2536        227
  27.2907        208
  27.3279        172
  27.3650        198
  27.4022        177
  27.4393        197
  27.4765        186
  27.5136        178
  27.5508        182
  27.5879        160
  27.6251        176
  27.6622        176
  27.6994        163
  27.7365        169
  27.7737        145
  27.8108        192
  27.8480        211
  27.8851        177
  27.9223        175
  27.9594        168
  27.9966        197
  28.0337        155
  28.0709        145
  28.1080        194
  28.1452        176
  28.1823        168
  28.2195        167
  28.2567        153
  28.2938        171
  28.3310        197
  28.3681        176
  28.4053        182
  28.4424        162
  28.4796        169
  28.5167        157
  28.5539        174
  28.5910        161
  28.6282        165
  28.6653        191
  28.7025        175
  28.7396        196
  28.7768        175
  28.8139        168
  28.8511        139
  28.8882        176
  28.9254        153
  28.9625        164
  28.9997        160
  29.0368        154
  29.0740        148
  29.1111        175
  29.1483        145
  29.1854        141
  29.2226        156
  29.2597        187
  29.2969        129
  29.3340        177
  29.3712        157
  29.4083        154
  29.4455        150
  29.4826        152
  29.5198        175
  29.5569        156
  29.5941        172
  29.6312        194
  29.6684        161
  29.7055        147
  29.7427        153
  29.7799        145
  29.8170        160
  29.8542        155
  29.8913        158
  29.9285        136
  29.9656        149
  30.0028        147
  30.0399        163
  30.0771        152
  30.1142        163
  30.1514        147
  30.1885        180
  30.2257        159
  30.2628        126
  30.3000        170
  30.3371        205
  30.3743        306
  30.4114        301
  30.4486        240
  30.4857        216
  30.5229        147
  30.5600        156
  30.5972        161
  30.6343        176
  30.6715        155
  30.7086        140
  30.7458        166
  30.7829        166
  30.8201        157
  30.8572        156
  30.8944        156
  30.9315        134
  30.9687        142
  31.0058        144
  31.0430        153
  31.0801        153
  31.1173        156
  31.1544        150
  31.1916        157
  31.2287        125
  31.2659        144
  31.3030        137
  31.3402        169
  31.3774        131
  31.4145        126
  31.4517        154
  31.4888        125
  31.5260        131
  31.5631        159
  31.6003        125
  31.6374        149
  31.6746        135
  31.7117        147
  31.7489        140
  31.7860        129
  31.8232        137
  31.8603        127
  31.8975        127
  31.9346        129
  31.9718        144
  32.0089        126
  32.0461        130
  32.0832        144
  32.1204        130
  32.1575        114
  32.1947        114
  32.2318        124
  32.2690        130
  32.3061        127
  32.3433        132
  32.3804        138
  32.4176        137
  32.4547        162
  32.4919        131
  32.5290        129
  32.5662        143
  32.6033        149
  32.6405        123
  32.6776        123
  32.7148        126
  32.7519        124
  32.7891        127
  32.8262        121
  32.8634        117
  32.9006        120
  32.9377        129
  32.9749        116
  33.0120        127
  33.0492        132
  33.0863        120
  33.1235        134
  33.1606        106
  33.1978        133
  33.2349        124
  33.2721        123
  33.3092        122
  33.3464        129
  33.3835        125
  33.4207        107
  33.4578        113
  33.4950        125
  33.5321        143
  33.5693        106
  33.6064        136
  33.6436        105
  33.6807        123
  33.7179        125
  33.7550        111
  33.7922        137
  33.8293        126
  33.8665        146
  33.9036        102
  33.9408        124
  33.9779        129
  34.0151        122
  34.0522         94
  34.0894        107
  34.1265        119
  34.1637        122
  34.2008        106
  34.2380        106
  34.2751        111
  34.3123        105
  34.3494        112
  34.3866        124
  34.4238        104
  34.4609        111
  34.4981        110
  34.5352        101
  34.5724        122
  34.6095        111
  34.6467        131
  34.6838        118
  34.7210        164
  34.7581        169
  34.7953        147
  34.8324        128
  34.8696        146
  34.9067        136
  34.9439        120
  34.9810        126
  35.0182        105
  35.0553        113
  35.0925        112
  35.1296        111
  35.1668        117
  35.2039        104
  35.2411        105
  35.2782        100
  35.3154        111
  35.3525        100
  35.3897        106
  35.4268         99
  35.4640         90
  35.5011        108
  35.5383         97
  35.5754         81
  35.6126        110
  35.6497        102
  35.6869        106
  35.7240         85
  35.7612         85
  35.7983         85
  35.8355         91
  35.8726         97
  35.9098         89
  35.9469         91
  35.9841        105
  36.0213         88
  36.0584         87
  36.0956         87
  36.1327         87
  36.1699        101
  36.2070         86
  36.2442        104
  36.2813         90
  36.3185         96
  36.3556         99
  36.3928        107
  36.4299         83
  36.4671         96
  36.5042         91
  36.5414         89
  36.5785         94
  36.6157         94
  36.6528         97
  36.6900         97
  36.7271         79
  36.7643         99
  36.8014         77
  36.8386         94
  36.8757        106
  36.9129        105
  36.9500        101
  36.9872         91
  37.0243         89
  37.0615        104
  37.0986        100
  37.1358         88
  37.1729         96
  37.2101         81
  37.2472         78
  37.2844         82
  37.3215         88
  37.3587         71
  37.3958        106
  37.4330        167
  37.4701        123
  37.5073        112
  37.5445        121
  37.5816        101
  37.6188         94
  37.6559         81
  37.6931         86
  37.7302        105
  37.7674         73
  37.8045         97
  37.8417         74
  37.8788         84
  37.9160         81
  37.9531         97
  37.9903         83
  38.0274         86
  38.0646         95
  38.1017         88
  38.1389         72
  38.1760         88
  38.2132         94
  38.2503         83
  38.2875         90
  38.3246         92
  38.3618         93
  38.3989         93
  38.4361         80
  38.4732         82
  38.5104         82
  38.5475         80
  38.5847         80
  38.6218         98
  38.6590         87
  38.6961         87
  38.7333         77
  38.7704         90
  38.8076         72
  38.8447         88
  38.8819         78
  38.9190         83
  38.9562         79
  38.9933         76
  39.0305         76
  39.0677         81
  39.1048         93
  39.1420         63
  39.1791         71
  39.2163         90
  39.2534         81
  39.2906         99
  39.3277         71
  39.3649         83
  39.4020         91
  39.4392         72
  39.4763         68
  39.5135         84
  39.5506         70
  39.5878         69
  39.6249         82
  39.6621         78
  39.6992         83
  39.7364         63
  39.7735         88
  39.8107         90
  39.8478         74
  39.8850         80
  39.9221         84
  39.9593         99
  39.9964         83
  40.0336         87
  40.0707         79
  40.1079         90
  40.1450         92
  40.1822         78
  40.2193         89
  40.2565         81
  40.2936         75
  40.3308         75
  40.3679         67
  40.4051         92
  40.4422         70
  40.4794         77
  40.5165         67
  40.5537         74
  40.5908         60
  40.6280         73
  40.6652         71
  40.7023         79
  40.7395         75
  40.7766         77
  40.8138         79
  40.8509         87
  40.8881         74
  40.9252         81
  40.9624         76
  40.9995         75
  41.0367         68
  41.0738         84
  41.1110         66
  41.1481         64
  41.1853         62
  41.2224         69
  41.2596         85
  41.2967         76
  41.3339         78
  41.3710         63
  41.4082         54
  41.4453         74
  41.4825         81
  41.5196         58
  41.5568         63
  41.5939         74
  41.6311         71
  41.6682         74
  41.7054         70
  41.7425         65
  41.7797         60
  41.8168         69
  41.8540         58
  41.8911         71
  41.9283         86
  41.9654         73
  42.0026         73
  42.0397         71
  42.0769         75
  42.1140         78
  42.1512         65
  42.1884         79
  42.2255         80
  42.2627         60
  42.2998         68
  42.3370         77
  42.3741         79
  42.4113         62
  42.4484         66
  42.4856         85
  42.5227         84
  42.5599         81
  42.5970         74
  42.6342         83
  42.6713         76
  42.7085         90
  42.7456         72
  42.7828         83
  42.8199         65
  42.8571         93
  42.8942         77
  42.9314         62
  42.9685         80
  43.0057         84
  43.0428         71
  43.0800         58
  43.1171         85
  43.1543         84
  43.1914         95
  43.2286         86
  43.2657         81
  43.3029         93
  43.3400         92
  43.3772         83
  43.4143         63
  43.4515         79
  43.4886        118
  43.5258        119
  43.5629         88
  43.6001        118
  43.6372         92
  43.6744         76
  43.7116         84
  43.7487         66
  43.7859         69
  43.8230         84
  43.8602         68
  43.8973         71
  43.9345         75
  43.9716         85
  44.0088         72
  44.0459         72
  44.0831         67
  44.1202         65
  44.1574         74
  44.1945         73
  44.2317         80
  44.2688         61
  44.3060         63
  44.3431         87
  44.3803         75
  44.4174         78
  44.4546         71
  44.4917         68
  44.5289         73
  44.5660         96
  44.6032         65
  44.6403         90
  44.6775         75
  44.7146         75
  44.7518         69
  44.7889         74
  44.8261         63
  44.8632         88
  44.9004         81
  44.9375         60
  44.9747         59
  45.0118         70
  45.0490         77
  45.0861         58
  45.1233         72
  45.1604         70
  45.1976         71
  45.2347         66
  45.2719         63
  45.3091         75
  45.3462         76
  45.3834         71
  45.4205         67
  45.4577         58
  45.4948         83
  45.5320         69
  45.5691         67
  45.6063         58
  45.6434         75
  45.6806         77
  45.7177         64
  45.7549         55
  45.7920         68
  45.8292         72
  45.8663         73
  45.9035         63
  45.9406         74
  45.9778         59
  46.0149         57
  46.0521         63
  46.0892         62
  46.1264         62
  46.1635         85
  46.2007         79
  46.2378         81
  46.2750         56
  46.3121         73
  46.3493         72
  46.3864         53
  46.4236         66
  46.4607         62
  46.4979         61
  46.5350         62
  46.5722         62
  46.6093         61
  46.6465         70
  46.6836         58
  46.7208         71
  46.7579         66
  46.7951         64
  46.8323         67
  46.8694         57
  46.9066         56
  46.9437         68
  46.9809         59
  47.0180         70
  47.0552         64
  47.0923         59
  47.1295         59
  47.1666         80
  47.2038         63
  47.2409         68
  47.2781         66
  47.3152         76
  47.3524         58
  47.3895         75
  47.4267         64
  47.4638         59
  47.5010         56
  47.5381         74
  47.5753         56
  47.6124         69
  47.6496         69
  47.6867         62
  47.7239         66
  47.7610         56
  47.7982         49
  47.8353         58
  47.8725         58
  47.9096         61
  47.9468         74
  47.9839         56
  48.0211         68
  48.0582         63
  48.0954         70
  48.1325         62
  48.1697         60
  48.2068         54
  48.2440         63
  48.2811         82
  48.3183         72
  48.3555         60
  48.3926         62
  48.4298         69
  48.4669         59
  48.5041         70
  48.5412         67
  48.5784         46
  48.6155         61
  48.6527         53
  48.6898         62
  48.7270         81
  48.7641         58
  48.8013         65
  48.8384         61
  48.8756         68
  48.9127         69
  48.9499        123
  48.9870         99
  49.0242         56
  49.0613         84
  49.0985         93
  49.1356         75
  49.1728         81
  49.2099         62
  49.2471         78
  49.2842         59
  49.3214         66
  49.3585         58
  49.3957         52
  49.4328         74
  49.4700         65
  49.5071         60
  49.5443         44
  49.5814         62
  49.6186         54
  49.6557         51
  49.6929         64
  49.7300         55
  49.7672         63
  49.8043         80
  49.8415         70
  49.8786         69
  49.9158         68
  49.9530         71
  49.9901         55
  50.0273         53
  50.0644         53
  50.1016         68
  50.1387         63
  50.1759         61
  50.2130         59
  50.2502         74
  50.2873         57
  50.3245         70
  50.3616         55
  50.3988         59
  50.4359         61
  50.4731         62
  50.5102         52
  50.5474         64
  50.5845         66
  50.6217         52
  50.6588         64
  50.6960         48
  50.7331         47
  50.7703         49
  50.8074         56
  50.8446         53
  50.8817         48
  50.9189         72
  50.9560         65
  50.9932         69
  51.0303         65
  51.0675         53
  51.1046         59
  51.1418         61
  51.1789         64
  51.2161         63
  51.2532         62
  51.2904         52
  51.3275         80
  51.3647         55
  51.4018         65
  51.4390         65
  51.4762         55
  51.5133         64
  51.5505         62
  51.5876         54
  51.6248         71
  51.6619         58
  51.6991         69
  51.7362         61
  51.7734         62
  51.8105         68
  51.8477         69
  51.8848         62
  51.9220         61
  51.9591         65
  51.9963         54
  52.0334         65
  52.0706         60
  52.1077         70
  52.1449         61
  52.1820         63
  52.2192         66
  52.2563         44
  52.2935         39
  52.3306         71
  52.3678         61
  52.4049         51
  52.4421         62
  52.4792         66
  52.5164         53
  52.5535         64
  52.5907         49
  52.6278         61
  52.6650         42
  52.7021         70
  52.7393         69
  52.7764         48
  52.8136         61
  52.8507         54
  52.8879         63
  52.9250         61
  52.9622         60
  52.9994         74
  53.0365         56
  53.0737         55
  53.1108         57
  53.1480         57
  53.1851         55
  53.2223         53
  53.2594         59
  53.2966         63
  53.3337         51
  53.3709         63
  53.4080         62
  53.4452         67
  53.4823         47
  53.5195         59
  53.5566         45
  53.5938         62
  53.6309         56
  53.6681         62
  53.7052         56
  53.7424         70
  53.7795         60
  53.8167         69
  53.8538         51
  53.8910         63
  53.9281         75
  53.9653         77
  54.0024         74
  54.0396         87
  54.0767         43
  54.1139         71
  54.1510         78
  54.1882         52
  54.2253         61
  54.2625         58
  54.2996         68
  54.3368         46
  54.3739         49
  54.4111         45
  54.4482         45
  54.4854         54
  54.5225         54
  54.5597         55
  54.5969         53
  54.6340         44
  54.6712         38
  54.7083         51
  54.7455         55
  54.7826         57
  54.8198         55
  54.8569         52
  54.8941         53
  54.9312         49
  54.9684         55
  55.0055         56
  55.0427         59
  55.0798         55
  55.1170         58
  55.1541         53
  55.1913         57
  55.2284         62
  55.2656         51
  55.3027         49
  55.3399         56
  55.3770         58
  55.4142         49
  55.4513         40
  55.4885         47
  55.5256         65
  55.5628         47
  55.5999         55
  55.6371         50
  55.6742         60
  55.7114         60
  55.7485         43
  55.7857         49
  55.8228         64
  55.8600         71
  55.8971         48
  55.9343         46
  55.9714         65
  56.0086         59
  56.0457         60
  56.0829         63
  56.1201         60
  56.1572         37
  56.1944         59
  56.2315         70
  56.2687         65
  56.3058         66
  56.3430         56
  56.3801         52
  56.4173         65
  56.4544         50
  56.4916         58
  56.5287         51
  56.5659         63
  56.6030         73
  56.6402         63
  56.6773         65
  56.7145         56
  56.7516         31
  56.7888         68
  56.8259         51
  56.8631         59
  56.9002         55
  56.9374         58
  56.9745         45
  57.0117         53
  57.0488         62
  57.0860         53
  57.1231         58
  57.1603         67
  57.1974         42
  57.2346         65
  57.2717         48
  57.3089         48
  57.3460         49
  57.3832         62
  57.4203         60
  57.4575         56
  57.4946         59
  57.5318         51
  57.5689         56
  57.6061         49
  57.6433         62
  57.6804         65
  57.7176         64
  57.7547         63
  57.7919         55
  57.8290         45
  57.8662         56
  57.9033         79
  57.9405         53
  57.9776         51
  58.0148         66
  58.0519         48
  58.0891         50
  58.1262         50
  58.1634         67
  58.2005         45
  58.2377         69
  58.2748         60
  58.3120         66
  58.3491         41
  58.3863         46
  58.4234         56
  58.4606         49
  58.4977         60
  58.5349         47
  58.5720         45
  58.6092         58
  58.6463         53
  58.6835         53
  58.7206         49
  58.7578         55
  58.7949         53
  58.8321         64
  58.8692         55
  58.9064         42
  58.9435         56
  58.9807         46
  59.0178         52
  59.0550         51
  59.0921         61
  59.1293         47
  59.1664         59
  59.2036         50
  59.2408         49
  59.2779         49
  59.3151         48
  59.3522         61
  59.3894         58
  59.4265         60
  59.4637         41
  59.5008         50
  59.5380         60
  59.5751         51
  59.6123         52
  59.6494         45
  59.6866         49
  59.7237         64
  59.7609         44
  59.7980         52
  59.8352         65
  59.8723         55
  59.9095         63
  59.9466         52
  59.9838         48
  60.0024         65