File: notebooks/data/xrd_data/ML_20220718_49_SJD_4_LaB6-2min.uxd
; (content of file Y:\Sam\Apurva-07-20-2022\puck4\ML_20220718_49_SJD_4_LaB6-2min.raw)
_FILEVERSION = 3
_SAMPLE = ML_20220718_49_SJD_4_LaB6-2min
_+SAMPLE =
_SITE = USA
_USER = Administrator
_GONIOMETER_CODE = 20
; Goniometer : D8 theta/2theta, stage : Unknown
_ATTACHMENTS_CODE = 0
_GONIOMETER_RADIUS = 200.5
_FIXED_DIVSLIT = 0.6
_FIXED_SAMPLESLIT = 0
_SOLLER_SLITS = 2
_FIXED_DETSLIT = 9.55
_MONOCHROMATOR = 0
; Incident beam monochromator : None
_SOLLER_SLITS_2 = N
_THIN_FILM = N
_BETA_FILTER = Y
_FIXED_ANTISLIT = 5.89
_ANALYZER_CODE = 0
; Received beam analyzer : None
_DATEMEASURED = "26-Jul-2022 12:25:15"
_WL_UNIT = A
_WL1 = 1.5406
_WL2 = 1.54439
_WL3 = 1.39222
_WLRATIO = 0.5
_ANODE = Cu
_V4_INF_CREATOR = XRDWizard
_V4_INF_CREATOR_VERSION = V2.9.0.22
_V4_INF_WIZARD_VERSION = V2.9.0.22
_V4_INF_WIZARD_ADDINS = V2.9.0.22
_V4_INF_WIZARD_DOCTYPE = XRD
_V4_INF_OSUSER = McQueenLab
_V4_INF_USER = Administrator
_V4_INF_SITE = USA
_V4_INF_SAMPLEID = ML_20220718_49_SJD_4_LaB6-2min

; Data for range 1
_DRIVE = COUPLED
_STEPTIME = 5.64
_STEPSIZE = 0.0185756
_STEPMODE = C
_START = 5
_THETA = 2.5
_2THETA = 5
_KHI = 0
_PHI = 0
_X = 0
_Y = 0
_Z = 0
_DETECTOR = 5
; Detector type : Unknown
_DETECTORSLIT = unkn
_AUX1 = 0
_AUX2 = 0
_AUX3 = 0
_TIMESTARTED = 15
_TEMP_RATE = -1
_TEMP_DELAY = -1
_KV = 40
_MA = 40
_RANGE_WL = 1.5406
_3DPLANE = 0
_V4_ADDITIONALDETECTOR = 257
_V4_PSD2THETA = 3.373
_V4_PSDCHANNEL1 = 0
_V4_PSDAPERTURE = 12.68
_V4_PSDTYPE = 5
_V4_PSDFIXED = 0
_V4_COUNTERS_MASK = 4096
_V4_DRIVES_MASK = 0
_V4_ENCODERS_MASK = 0
_2THETACOUNTS = 1
; 2THETA  PSD
   5.0000        123
   5.0372        152
   5.0743        119
   5.1115        117
   5.1486        135
   5.1858        132
   5.2229        127
   5.2601        111
   5.2972        121
   5.3344        124
   5.3715        117
   5.4087        119
   5.4458        106
   5.4830        114
   5.5201        114
   5.5573        129
   5.5944        100
   5.6316        125
   5.6687        103
   5.7059        113
   5.7430         85
   5.7802         98
   5.8173        108
   5.8545         91
   5.8916        102
   5.9288        119
   5.9659         97
   6.0031         88
   6.0402         96
   6.0774        101
   6.1145         93
   6.1517         93
   6.1888         93
   6.2260         78
   6.2631         87
   6.3003         96
   6.3374         92
   6.3746         87
   6.4117         83
   6.4489        100
   6.4860         75
   6.5232         70
   6.5604        106
   6.5975         80
   6.6347         97
   6.6718        102
   6.7090         91
   6.7461         61
   6.7833         88
   6.8204         73
   6.8576         75
   6.8947         66
   6.9319         80
   6.9690         95
   7.0062         71
   7.0433         79
   7.0805         84
   7.1176         87
   7.1548         88
   7.1919         89
   7.2291         76
   7.2662         82
   7.3034         82
   7.3405         89
   7.3777         62
   7.4148         88
   7.4520         82
   7.4891         78
   7.5263         79
   7.5634         78
   7.6006         80
   7.6377         63
   7.6749         87
   7.7120         91
   7.7492         79
   7.7863         92
   7.8235         89
   7.8606         91
   7.8978         86
   7.9349         73
   7.9721         92
   8.0092         85
   8.0464         78
   8.0835        102
   8.1207         88
   8.1579         92
   8.1950         95
   8.2322         93
   8.2693         99
   8.3065        102
   8.3436        108
   8.3808         83
   8.4179         93
   8.4551         96
   8.4922         91
   8.5294        101
   8.5665         99
   8.6037         95
   8.6408         94
   8.6780        106
   8.7151        113
   8.7523        107
   8.7894         94
   8.8266        112
   8.8637         93
   8.9009        116
   8.9380        107
   8.9752        102
   9.0123        114
   9.0495        115
   9.0866         99
   9.1238        115
   9.1609        107
   9.1981         93
   9.2352        108
   9.2724        125
   9.3095         97
   9.3467         93
   9.3838        131
   9.4210         98
   9.4581        136
   9.4953        119
   9.5324        109
   9.5696        107
   9.6067        117
   9.6439        113
   9.6811        131
   9.7182        116
   9.7554        113
   9.7925        136
   9.8297        125
   9.8668        118
   9.9040        124
   9.9411        138
   9.9783        126
  10.0154        107
  10.0526        129
  10.0897        134
  10.1269        133
  10.1640         99
  10.2012        119
  10.2383        115
  10.2755        123
  10.3126        123
  10.3498        115
  10.3869        132
  10.4241        138
  10.4612        117
  10.4984        112
  10.5355        136
  10.5727        110
  10.6098        112
  10.6470        111
  10.6841        122
  10.7213        123
  10.7584        122
  10.7956         94
  10.8327        108
  10.8699        129
  10.9070        116
  10.9442        106
  10.9813        126
  11.0185        109
  11.0556        104
  11.0928        105
  11.1299        118
  11.1671        114
  11.2043        119
  11.2414        117
  11.2786        116
  11.3157        115
  11.3529        124
  11.3900        106
  11.4272        114
  11.4643        106
  11.5015        101
  11.5386        112
  11.5758        112
  11.6129        133
  11.6501        120
  11.6872        121
  11.7244        117
  11.7615        116
  11.7987        139
  11.8358        118
  11.8730        119
  11.9101        107
  11.9473        101
  11.9844        122
  12.0216        119
  12.0587        116
  12.0959        112
  12.1330        131
  12.1702        107
  12.2073        107
  12.2445        106
  12.2816        110
  12.3188        119
  12.3559        135
  12.3931        123
  12.4302        103
  12.4674         96
  12.5045        101
  12.5417        120
  12.5788        107
  12.6160         88
  12.6531        103
  12.6903        100
  12.7274        108
  12.7646         90
  12.8018        104
  12.8389        101
  12.8761        106
  12.9132        114
  12.9504        103
  12.9875         90
  13.0247        110
  13.0618        112
  13.0990         80
  13.1361         97
  13.1733         89
  13.2104        108
  13.2476        108
  13.2847         92
  13.3219         81
  13.3590        106
  13.3962        103
  13.4333         81
  13.4705         87
  13.5076         94
  13.5448         98
  13.5819        100
  13.6191         89
  13.6562         87
  13.6934        106
  13.7305        111
  13.7677         95
  13.8048        101
  13.8420         96
  13.8791         87
  13.9163        101
  13.9534         93
  13.9906        106
  14.0277         98
  14.0649         90
  14.1020        110
  14.1392         92
  14.1763        106
  14.2135         87
  14.2506        107
  14.2878         75
  14.3250         93
  14.3621         92
  14.3993         82
  14.4364         77
  14.4736        100
  14.5107        107
  14.5479         89
  14.5850         91
  14.6222         86
  14.6593         70
  14.6965         67
  14.7336         88
  14.7708         99
  14.8079         84
  14.8451         87
  14.8822         84
  14.9194         80
  14.9565         86
  14.9937         78
  15.0308         74
  15.0680         80
  15.1051         82
  15.1423         91
  15.1794         90
  15.2166         91
  15.2537         70
  15.2909         78
  15.3280         85
  15.3652         85
  15.4023         78
  15.4395         80
  15.4766         78
  15.5138         69
  15.5509         84
  15.5881         80
  15.6252         78
  15.6624         71
  15.6995         90
  15.7367         73
  15.7738         86
  15.8110         77
  15.8482         79
  15.8853         84
  15.9225         89
  15.9596         83
  15.9968         82
  16.0339         83
  16.0711         85
  16.1082         69
  16.1454         78
  16.1825         71
  16.2197         76
  16.2568         80
  16.2940         82
  16.3311         63
  16.3683         70
  16.4054         73
  16.4426         79
  16.4797         87
  16.5169         69
  16.5540         79
  16.5912         75
  16.6283         95
  16.6655         80
  16.7026         87
  16.7398         63
  16.7769         55
  16.8141         85
  16.8512         69
  16.8884        102
  16.9255         80
  16.9627         79
  16.9998         86
  17.0370         72
  17.0741         79
  17.1113         74
  17.1484         90
  17.1856         81
  17.2227         76
  17.2599         74
  17.2970         89
  17.3342         85
  17.3713         85
  17.4085         72
  17.4457         83
  17.4828         82
  17.5200         83
  17.5571         73
  17.5943         77
  17.6314         83
  17.6686         89
  17.7057         79
  17.7429         88
  17.7800         70
  17.8172         75
  17.8543         87
  17.8915         68
  17.9286         91
  17.9658         92
  18.0029         85
  18.0401        106
  18.0772         69
  18.1144         69
  18.1515         90
  18.1887         80
  18.2258         72
  18.2630         88
  18.3001         85
  18.3373         88
  18.3744         83
  18.4116         99
  18.4487         82
  18.4859         81
  18.5230         71
  18.5602         86
  18.5973         78
  18.6345         95
  18.6716         92
  18.7088         86
  18.7459         89
  18.7831         81
  18.8202         80
  18.8574         83
  18.8945         84
  18.9317         81
  18.9689         97
  19.0060         97
  19.0432         93
  19.0803         92
  19.1175         81
  19.1546         79
  19.1918         82
  19.2289         75
  19.2661         98
  19.3032         81
  19.3404         83
  19.3775        100
  19.4147         77
  19.4518         88
  19.4890         89
  19.5261         74
  19.5633         70
  19.6004        102
  19.6376         77
  19.6747         79
  19.7119         66
  19.7490         81
  19.7862         86
  19.8233         68
  19.8605         83
  19.8976         94
  19.9348         87
  19.9719         81
  20.0091         90
  20.0462         83
  20.0834        104
  20.1205         82
  20.1577         88
  20.1948         99
  20.2320         88
  20.2691         83
  20.3063         75
  20.3434         90
  20.3806        104
  20.4177         91
  20.4549         87
  20.4921         91
  20.5292         86
  20.5664         90
  20.6035        100
  20.6407         93
  20.6778         92
  20.7150         83
  20.7521         98
  20.7893         99
  20.8264        100
  20.8636        103
  20.9007         90
  20.9379         85
  20.9750         88
  21.0122         99
  21.0493        107
  21.0865         83
  21.1236         87
  21.1608        126
  21.1979        136
  21.2351        180
  21.2722        155
  21.3094        155
  21.3465        233
  21.3837        216
  21.4208        171
  21.4580        115
  21.4951         96
  21.5323        107
  21.5694        102
  21.6066        101
  21.6437         93
  21.6809         97
  21.7180        106
  21.7552         82
  21.7923         82
  21.8295         99
  21.8666         99
  21.9038        103
  21.9409        116
  21.9781         91
  22.0152        102
  22.0524        100
  22.0896         91
  22.1267         83
  22.1639        100
  22.2010        102
  22.2382        101
  22.2753         94
  22.3125        113
  22.3496         99
  22.3868         87
  22.4239         74
  22.4611        103
  22.4982         93
  22.5354         98
  22.5725         93
  22.6097         84
  22.6468         91
  22.6840         97
  22.7211        102
  22.7583        107
  22.7954         92
  22.8326         77
  22.8697         93
  22.9069         94
  22.9440         96
  22.9812        112
  23.0183         97
  23.0555         86
  23.0926         87
  23.1298        107
  23.1669         98
  23.2041        107
  23.2412        102
  23.2784         81
  23.3155        108
  23.3527        119
  23.3898         78
  23.4270         80
  23.4641        112
  23.5013        101
  23.5384         98
  23.5756         89
  23.6128         88
  23.6499         80
  23.6871         86
  23.7242        108
  23.7614         89
  23.7985        123
  23.8357         82
  23.8728        102
  23.9100        100
  23.9471        100
  23.9843        106
  24.0214         87
  24.0586        114
  24.0957        116
  24.1329        107
  24.1700        113
  24.2072         98
  24.2443         97
  24.2815        128
  24.3186        127
  24.3558         99
  24.3929        108
  24.4301        102
  24.4672         94
  24.5044         95
  24.5415        114
  24.5787         95
  24.6158         93
  24.6530         98
  24.6901        109
  24.7273        106
  24.7644        101
  24.8016         88
  24.8387        104
  24.8759         80
  24.9130         93
  24.9502        108
  24.9873         83
  25.0245         97
  25.0616         97
  25.0988        106
  25.1360        101
  25.1731         92
  25.2103        111
  25.2474        112
  25.2846         88
  25.3217        102
  25.3589         93
  25.3960        102
  25.4332        102
  25.4703         99
  25.5075         85
  25.5446         96
  25.5818         97
  25.6189         78
  25.6561         63
  25.6932         91
  25.7304         90
  25.7675         99
  25.8047         98
  25.8418         99
  25.8790         97
  25.9161         98
  25.9533         91
  25.9904        104
  26.0276        101
  26.0647         83
  26.1019        100
  26.1390        106
  26.1762        115
  26.2133        112
  26.2505         81
  26.2876         97
  26.3248         96
  26.3619        102
  26.3991         99
  26.4362         97
  26.4734         75
  26.5105         90
  26.5477         75
  26.5848        101
  26.6220         95
  26.6591         87
  26.6963        110
  26.7335         68
  26.7706        101
  26.8078         99
  26.8449         99
  26.8821        103
  26.9192        111
  26.9564         96
  26.9935        120
  27.0307         88
  27.0678        108
  27.1050         93
  27.1421        107
  27.1793        113
  27.2164        113
  27.2536        107
  27.2907         99
  27.3279         90
  27.3650         99
  27.4022         84
  27.4393         93
  27.4765         83
  27.5136         85
  27.5508         87
  27.5879         78
  27.6251         93
  27.6622         98
  27.6994         88
  27.7365         98
  27.7737         84
  27.8108         91
  27.8480         80
  27.8851         80
  27.9223         82
  27.9594         78
  27.9966         83
  28.0337         79
  28.0709         74
  28.1080         93
  28.1452         97
  28.1823         87
  28.2195         83
  28.2567         81
  28.2938         86
  28.3310         95
  28.3681         84
  28.4053         85
  28.4424         97
  28.4796         95
  28.5167         74
  28.5539         69
  28.5910         80
  28.6282         67
  28.6653         86
  28.7025         84
  28.7396         74
  28.7768         68
  28.8139         81
  28.8511         83
  28.8882         81
  28.9254         86
  28.9625         76
  28.9997         68
  29.0368         70
  29.0740         82
  29.1111         72
  29.1483         61
  29.1854         81
  29.2226         83
  29.2597         60
  29.2969         79
  29.3340         75
  29.3712         76
  29.4083         96
  29.4455         75
  29.4826         91
  29.5198         53
  29.5569         81
  29.5941         72
  29.6312         84
  29.6684         76
  29.7055         79
  29.7427         86
  29.7799         75
  29.8170         84
  29.8542         66
  29.8913         70
  29.9285         67
  29.9656         74
  30.0028         91
  30.0399         90
  30.0771         72
  30.1142         66
  30.1514         95
  30.1885         67
  30.2257         78
  30.2628         76
  30.3000         73
  30.3371        108
  30.3743        156
  30.4114        144
  30.4486        123
  30.4857        132
  30.5229         83
  30.5600         80
  30.5972         71
  30.6343         72
  30.6715         65
  30.7086         65
  30.7458         75
  30.7829         65
  30.8201         74
  30.8572         73
  30.8944         62
  30.9315         77
  30.9687         52
  31.0058         73
  31.0430         61
  31.0801         59
  31.1173         64
  31.1544         72
  31.1916         86
  31.2287         71
  31.2659         65
  31.3030         55
  31.3402         85
  31.3774         78
  31.4145         67
  31.4517         67
  31.4888         68
  31.5260         57
  31.5631         79
  31.6003         74
  31.6374         69
  31.6746         81
  31.7117         58
  31.7489         68
  31.7860         68
  31.8232         47
  31.8603         60
  31.8975         55
  31.9346         66
  31.9718         67
  32.0089         56
  32.0461         65
  32.0832         69
  32.1204         72
  32.1575         62
  32.1947         66
  32.2318         76
  32.2690         56
  32.3061         82
  32.3433         54
  32.3804         74
  32.4176         64
  32.4547         66
  32.4919         75
  32.5290         69
  32.5662         66
  32.6033         73
  32.6405         69
  32.6776         62
  32.7148         67
  32.7519         68
  32.7891         46
  32.8262         58
  32.8634         57
  32.9006         67
  32.9377         60
  32.9749         65
  33.0120         62
  33.0492         60
  33.0863         53
  33.1235         65
  33.1606         59
  33.1978         52
  33.2349         56
  33.2721         70
  33.3092         60
  33.3464         58
  33.3835         54
  33.4207         63
  33.4578         67
  33.4950         61
  33.5321         56
  33.5693         68
  33.6064         71
  33.6436         63
  33.6807         54
  33.7179         53
  33.7550         72
  33.7922         55
  33.8293         60
  33.8665         66
  33.9036         59
  33.9408         62
  33.9779         72
  34.0151         53
  34.0522         66
  34.0894         65
  34.1265         70
  34.1637         50
  34.2008         50
  34.2380         77
  34.2751         50
  34.3123         38
  34.3494         58
  34.3866         48
  34.4238         59
  34.4609         61
  34.4981         60
  34.5352         57
  34.5724         54
  34.6095         66
  34.6467         58
  34.6838         60
  34.7210         60
  34.7581         64
  34.7953         75
  34.8324         55
  34.8696         52
  34.9067         63
  34.9439         63
  34.9810         47
  35.0182         50
  35.0553         61
  35.0925         62
  35.1296         38
  35.1668         58
  35.2039         59
  35.2411         67
  35.2782         43
  35.3154         65
  35.3525         52
  35.3897         60
  35.4268         50
  35.4640         54
  35.5011         57
  35.5383         51
  35.5754         51
  35.6126         51
  35.6497         57
  35.6869         44
  35.7240         49
  35.7612         53
  35.7983         57
  35.8355         55
  35.8726         31
  35.9098         50
  35.9469         50
  35.9841         54
  36.0213         46
  36.0584         48
  36.0956         37
  36.1327         63
  36.1699         44
  36.2070         58
  36.2442         45
  36.2813         55
  36.3185         50
  36.3556         55
  36.3928         58
  36.4299         46
  36.4671         58
  36.5042         45
  36.5414         46
  36.5785         50
  36.6157         41
  36.6528         59
  36.6900         39
  36.7271         41
  36.7643         48
  36.8014         49
  36.8386         39
  36.8757         43
  36.9129         52
  36.9500         43
  36.9872         39
  37.0243         46
  37.0615         41
  37.0986         34
  37.1358         36
  37.1729         53
  37.2101         35
  37.2472         49
  37.2844         40
  37.3215         43
  37.3587         42
  37.3958         53
  37.4330         59
  37.4701         63
  37.5073         69
  37.5445         48
  37.5816         57
  37.6188         36
  37.6559         33
  37.6931         47
  37.7302         41
  37.7674         39
  37.8045         51
  37.8417         48
  37.8788         40
  37.9160         47
  37.9531         43
  37.9903         45
  38.0274         39
  38.0646         32
  38.1017         41
  38.1389         32
  38.1760         43
  38.2132         38
  38.2503         47
  38.2875         37
  38.3246         36
  38.3618         42
  38.3989         36
  38.4361         48
  38.4732         39
  38.5104         30
  38.5475         33
  38.5847         35
  38.6218         28
  38.6590         48
  38.6961         40
  38.7333         46
  38.7704         40
  38.8076         40
  38.8447         36
  38.8819         44
  38.9190         43
  38.9562         28
  38.9933         31
  39.0305         34
  39.0677         49
  39.1048         47
  39.1420         33
  39.1791         38
  39.2163         46
  39.2534         41
  39.2906         35
  39.3277         43
  39.3649         32
  39.4020         28
  39.4392         40
  39.4763         42
  39.5135         37
  39.5506         34
  39.5878         41
  39.6249         44
  39.6621         43
  39.6992         52
  39.7364         38
  39.7735         37
  39.8107         42
  39.8478         46
  39.8850         51
  39.9221         32
  39.9593         30
  39.9964         37
  40.0336         43
  40.0707         46
  40.1079         44
  40.1450         43
  40.1822         30
  40.2193         37
  40.2565         47
  40.2936         39
  40.3308         44
  40.3679         33
  40.4051         40
  40.4422         38
  40.4794         43
  40.5165         39
  40.5537         38
  40.5908         38
  40.6280         34
  40.6652         36
  40.7023         39
  40.7395         37
  40.7766         46
  40.8138         36
  40.8509         44
  40.8881         39
  40.9252         34
  40.9624         41
  40.9995         34
  41.0367         43
  41.0738         43
  41.1110         50
  41.1481         29
  41.1853         36
  41.2224         54
  41.2596         43
  41.2967         28
  41.3339         38
  41.3710         39
  41.4082         39
  41.4453         39
  41.4825         29
  41.5196         39
  41.5568         48
  41.5939         30
  41.6311         44
  41.6682         35
  41.7054         33
  41.7425         31
  41.7797         33
  41.8168         29
  41.8540         40
  41.8911         33
  41.9283         32
  41.9654         32
  42.0026         47
  42.0397         35
  42.0769         41
  42.1140         39
  42.1512         37
  42.1884         24
  42.2255         30
  42.2627         30
  42.2998         38
  42.3370         33
  42.3741         36
  42.4113         33
  42.4484         30
  42.4856         43
  42.5227         33
  42.5599         25
  42.5970         35
  42.6342         34
  42.6713         35
  42.7085         34
  42.7456         35
  42.7828         38
  42.8199         31
  42.8571         28
  42.8942         30
  42.9314         28
  42.9685         20
  43.0057         33
  43.0428         37
  43.0800         35
  43.1171         35
  43.1543         47
  43.1914         49
  43.2286         29
  43.2657         36
  43.3029         39
  43.3400         38
  43.3772         37
  43.4143         40
  43.4515         41
  43.4886         53
  43.5258         62
  43.5629         29
  43.6001         55
  43.6372         41
  43.6744         41
  43.7116         34
  43.7487         36
  43.7859         32
  43.8230         31
  43.8602         45
  43.8973         31
  43.9345         37
  43.9716         42
  44.0088         32
  44.0459         33
  44.0831         45
  44.1202         42
  44.1574         29
  44.1945         32
  44.2317         41
  44.2688         36
  44.3060         35
  44.3431         36
  44.3803         32
  44.4174         35
  44.4546         39
  44.4917         45
  44.5289         41
  44.5660         38
  44.6032         47
  44.6403         36
  44.6775         37
  44.7146         31
  44.7518         41
  44.7889         36
  44.8261         32
  44.8632         40
  44.9004         30
  44.9375         41
  44.9747         35
  45.0118         28
  45.0490         14
  45.0861         34
  45.1233         28
  45.1604         33
  45.1976         31
  45.2347         33
  45.2719         35
  45.3091         38
  45.3462         29
  45.3834         35
  45.4205         31
  45.4577         47
  45.4948         35
  45.5320         29
  45.5691         32
  45.6063         36
  45.6434         37
  45.6806         26
  45.7177         29
  45.7549         32
  45.7920         32
  45.8292         46
  45.8663         29
  45.9035         33
  45.9406         26
  45.9778         31
  46.0149         27
  46.0521         30
  46.0892         42
  46.1264         40
  46.1635         26
  46.2007         31
  46.2378         37
  46.2750         37
  46.3121         27
  46.3493         27
  46.3864         36
  46.4236         39
  46.4607         28
  46.4979         32
  46.5350         33
  46.5722         34
  46.6093         28
  46.6465         37
  46.6836         29
  46.7208         31
  46.7579         36
  46.7951         39
  46.8323         29
  46.8694         35
  46.9066         34
  46.9437         33
  46.9809         32
  47.0180         34
  47.0552         36
  47.0923         24
  47.1295         28
  47.1666         45
  47.2038         29
  47.2409         25
  47.2781         35
  47.3152         35
  47.3524         42
  47.3895         37
  47.4267         40
  47.4638         31
  47.5010         34
  47.5381         45
  47.5753         35
  47.6124         32
  47.6496         33
  47.6867         28
  47.7239         26
  47.7610         55
  47.7982         29
  47.8353         41
  47.8725         27
  47.9096         38
  47.9468         29
  47.9839         33
  48.0211         24
  48.0582         32
  48.0954         27
  48.1325         27
  48.1697         30
  48.2068         34
  48.2440         41
  48.2811         34
  48.3183         35
  48.3555         29
  48.3926         27
  48.4298         35
  48.4669         31
  48.5041         33
  48.5412         33
  48.5784         31
  48.6155         32
  48.6527         35
  48.6898         31
  48.7270         28
  48.7641         32
  48.8013         32
  48.8384         41
  48.8756         36
  48.9127         43
  48.9499         46
  48.9870         51
  49.0242         43
  49.0613         41
  49.0985         49
  49.1356         34
  49.1728         41
  49.2099         24
  49.2471         27
  49.2842         41
  49.3214         28
  49.3585         46
  49.3957         35
  49.4328         29
  49.4700         39
  49.5071         24
  49.5443         32
  49.5814         22
  49.6186         28
  49.6557         31
  49.6929         24
  49.7300         29
  49.7672         25
  49.8043         28
  49.8415         29
  49.8786         30
  49.9158         27
  49.9530         23
  49.9901         34
  50.0273         32
  50.0644         29
  50.1016         31
  50.1387         30
  50.1759         29
  50.2130         23
  50.2502         32
  50.2873         29
  50.3245         35
  50.3616         42
  50.3988         38
  50.4359         29
  50.4731         21
  50.5102         29
  50.5474         25
  50.5845         34
  50.6217         28
  50.6588         34
  50.6960         31
  50.7331         28
  50.7703         23
  50.8074         32
  50.8446         27
  50.8817         25
  50.9189         25
  50.9560         38
  50.9932         27
  51.0303         32
  51.0675         30
  51.1046         27
  51.1418         20
  51.1789         36
  51.2161         23
  51.2532         31
  51.2904         25
  51.3275         25
  51.3647         21
  51.4018         41
  51.4390         32
  51.4762         30
  51.5133         34
  51.5505         37
  51.5876         30
  51.6248         34
  51.6619         33
  51.6991         31
  51.7362         30
  51.7734         34
  51.8105         38
  51.8477         41
  51.8848         19
  51.9220         34
  51.9591         22
  51.9963         34
  52.0334         27
  52.0706         16
  52.1077         37
  52.1449         29
  52.1820         28
  52.2192         27
  52.2563         18
  52.2935         34
  52.3306         28
  52.3678         18
  52.4049         42
  52.4421         25
  52.4792         28
  52.5164         20
  52.5535         24
  52.5907         16
  52.6278         29
  52.6650         26
  52.7021         26
  52.7393         34
  52.7764         28
  52.8136         34
  52.8507         23
  52.8879         35
  52.9250         28
  52.9622         32
  52.9994         34
  53.0365         34
  53.0737         45
  53.1108         24
  53.1480         34
  53.1851         34
  53.2223         27
  53.2594         24
  53.2966         25
  53.3337         26
  53.3709         32
  53.4080         27
  53.4452         27
  53.4823         24
  53.5195         33
  53.5566         24
  53.5938         26
  53.6309         31
  53.6681         29
  53.7052         29
  53.7424         27
  53.7795         31
  53.8167         35
  53.8538         23
  53.8910         28
  53.9281         25
  53.9653         44
  54.0024         46
  54.0396         36
  54.0767         33
  54.1139         25
  54.1510         28
  54.1882         32
  54.2253         30
  54.2625         36
  54.2996         27
  54.3368         28
  54.3739         25
  54.4111         29
  54.4482         22
  54.4854         22
  54.5225         23
  54.5597         28
  54.5969         25
  54.6340         34
  54.6712         24
  54.7083         18
  54.7455         27
  54.7826         28
  54.8198         27
  54.8569         30
  54.8941         32
  54.9312         36
  54.9684         33
  55.0055         18
  55.0427         32
  55.0798         31
  55.1170         25
  55.1541         26
  55.1913         23
  55.2284         25
  55.2656         34
  55.3027         33
  55.3399         27
  55.3770         32
  55.4142         39
  55.4513         25
  55.4885         32
  55.5256         23
  55.5628         25
  55.5999         24
  55.6371         17
  55.6742         18
  55.7114         30
  55.7485         30
  55.7857         26
  55.8228         26
  55.8600         26
  55.8971         23
  55.9343         25
  55.9714         34
  56.0086         26
  56.0457         36
  56.0829         34
  56.1201         23
  56.1572         31
  56.1944         23
  56.2315         29
  56.2687         34
  56.3058         33
  56.3430         24
  56.3801         30
  56.4173         31
  56.4544         29
  56.4916         27
  56.5287         28
  56.5659         30
  56.6030         26
  56.6402         26
  56.6773         26
  56.7145         25
  56.7516         22
  56.7888         30
  56.8259         27
  56.8631         35
  56.9002         19
  56.9374         25
  56.9745         26
  57.0117         32
  57.0488         24
  57.0860         23
  57.1231         31
  57.1603         20
  57.1974         35
  57.2346         25
  57.2717         29
  57.3089         18
  57.3460         29
  57.3832         38
  57.4203         24
  57.4575         34
  57.4946         32
  57.5318         26
  57.5689         26
  57.6061         26
  57.6433         19
  57.6804         18
  57.7176         32
  57.7547         34
  57.7919         33
  57.8290         32
  57.8662         28
  57.9033         37
  57.9405         20
  57.9776         28
  58.0148         23
  58.0519         21
  58.0891         23
  58.1262         21
  58.1634         28
  58.2005         25
  58.2377         26
  58.2748         28
  58.3120         29
  58.3491         30
  58.3863         24
  58.4234         13
  58.4606         37
  58.4977         25
  58.5349         29
  58.5720         36
  58.6092         26
  58.6463         23
  58.6835         21
  58.7206         32
  58.7578         29
  58.7949         29
  58.8321         30
  58.8692         23
  58.9064         22
  58.9435         26
  58.9807         22
  59.0178         22
  59.0550         32
  59.0921         17
  59.1293         27
  59.1664         24
  59.2036         30
  59.2408         25
  59.2779         26
  59.3151         27
  59.3522         26
  59.3894         34
  59.4265         26
  59.4637         15
  59.5008         16
  59.5380         26
  59.5751         28
  59.6123         31
  59.6494         35
  59.6866         30
  59.7237         25
  59.7609         20
  59.7980         27
  59.8352         25
  59.8723         36
  59.9095         27
  59.9466         25
  59.9838         38
  60.0024         24