File: notebooks/data/xrd_data/ML_20220718_18_SJD_4_LaB6-2min.csv
;,2THETA,
5.0000,139
5.0372,143
5.0743,119
5.1115,117
5.1486,127
5.1858,122
5.2229,124
5.2601,133
5.2972,115
5.3344,119
5.3715,121
5.4087,122
5.4458,111
5.4830,114
5.5201,109
5.5573,106
5.5944,120
5.6316,130
5.6687,109
5.7059,103
5.7430,105
5.7802,107
5.8173,99
5.8545,97
5.8916,97
5.9288,105
5.9659,104
6.0031,105
6.0402,103
6.0774,98
6.1145,90
6.1517,90
6.1888,74
6.2260,101
6.2631,97
6.3003,81
6.3374,92
6.3746,82
6.4117,106
6.4489,83
6.4860,85
6.5232,87
6.5604,77
6.5975,94
6.6347,68
6.6718,87
6.7090,82
6.7461,84
6.7833,71
6.8204,88
6.8576,78
6.8947,78
6.9319,97
6.9690,71
7.0062,62
7.0433,93
7.0805,69
7.1176,81
7.1548,68
7.1919,82
7.2291,79
7.2662,94
7.3034,71
7.3405,76
7.3777,67
7.4148,82
7.4520,90
7.4891,73
7.5263,83
7.5634,95
7.6006,85
7.6377,72
7.6749,85
7.7120,65
7.7492,94
7.7863,91
7.8235,79
7.8606,80
7.8978,100
7.9349,89
7.9721,101
8.0092,104
8.0464,91
8.0835,88
8.1207,102
8.1579,100
8.1950,78
8.2322,94
8.2693,99
8.3065,86
8.3436,99
8.3808,102
8.4179,84
8.4551,104
8.4922,87
8.5294,121
8.5665,109
8.6037,98
8.6408,116
8.6780,121
8.7151,96
8.7523,112
8.7894,114
8.8266,93
8.8637,101
8.9009,93
8.9380,106
8.9752,91
9.0123,98
9.0495,98
9.0866,92
9.1238,102
9.1609,96
9.1981,94
9.2352,110
9.2724,126
9.3095,92
9.3467,119
9.3838,96
9.4210,109
9.4581,100
9.4953,127
9.5324,134
9.5696,125
9.6067,130
9.6439,132
9.6811,116
9.7182,107
9.7554,119
9.7925,94
9.8297,115
9.8668,109
9.9040,125
9.9411,121
9.9783,132
10.0154,136
10.0526,117
10.0897,114
10.1269,132
10.1640,131
10.2012,91
10.2383,122
10.2755,116
10.3126,106
10.3498,113
10.3869,126
10.4241,97
10.4612,138
10.4984,115
10.5355,131
10.5727,127
10.6098,131
10.6470,125
10.6841,108
10.7213,138
10.7584,125
10.7956,122
10.8327,131
10.8699,121
10.9070,108
10.9442,125
10.9813,117
11.0185,98
11.0556,102
11.0928,119
11.1299,123
11.1671,119
11.2043,103
11.2414,115
11.2786,110
11.3157,114
11.3529,132
11.3900,118
11.4272,130
11.4643,116
11.5015,125
11.5386,105
11.5758,113
11.6129,115
11.6501,100
11.6872,123
11.7244,116
11.7615,108
11.7987,104
11.8358,112
11.8730,126
11.9101,96
11.9473,124
11.9844,101
12.0216,135
12.0587,111
12.0959,120
12.1330,100
12.1702,99
12.2073,109
12.2445,120
12.2816,115
12.3188,99
12.3559,109
12.3931,112
12.4302,119
12.4674,119
12.5045,95
12.5417,94
12.5788,104
12.6160,104
12.6531,107
12.6903,116
12.7274,95
12.7646,108
12.8018,109
12.8389,108
12.8761,102
12.9132,100
12.9504,98
12.9875,96
13.0247,96
13.0618,96
13.0990,92
13.1361,100
13.1733,107
13.2104,102
13.2476,91
13.2847,102
13.3219,107
13.3590,111
13.3962,100
13.4333,107
13.4705,124
13.5076,116
13.5448,94
13.5819,108
13.6191,91
13.6562,97
13.6934,81
13.7305,94
13.7677,92
13.8048,111
13.8420,101
13.8791,83
13.9163,103
13.9534,107
13.9906,92
14.0277,101
14.0649,92
14.1020,108
14.1392,98
14.1763,90
14.2135,92
14.2506,96
14.2878,75
14.3250,101
14.3621,79
14.3993,86
14.4364,75
14.4736,93
14.5107,97
14.5479,102
14.5850,99
14.6222,86
14.6593,62
14.6965,81
14.7336,78
14.7708,82
14.8079,85
14.8451,71
14.8822,81
14.9194,86
14.9565,89
14.9937,76
15.0308,87
15.0680,99
15.1051,81
15.1423,76
15.1794,85
15.2166,85
15.2537,90
15.2909,82
15.3280,71
15.3652,79
15.4023,83
15.4395,81
15.4766,91
15.5138,87
15.5509,85
15.5881,88
15.6252,82
15.6624,78
15.6995,67
15.7367,96
15.7738,82
15.8110,75
15.8482,82
15.8853,87
15.9225,89
15.9596,93
15.9968,89
16.0339,79
16.0711,93
16.1082,86
16.1454,74
16.1825,96
16.2197,88
16.2568,80
16.2940,73
16.3311,78
16.3683,76
16.4054,81
16.4426,70
16.4797,85
16.5169,86
16.5540,88
16.5912,87
16.6283,83
16.6655,67
16.7026,63
16.7398,81
16.7769,81
16.8141,103
16.8512,92
16.8884,76
16.9255,97
16.9627,85
16.9998,70
17.0370,66
17.0741,92
17.1113,98
17.1484,74
17.1856,101
17.2227,81
17.2599,82
17.2970,82
17.3342,83
17.3713,76
17.4085,85
17.4457,74
17.4828,66
17.5200,71
17.5571,73
17.5943,80
17.6314,62
17.6686,83
17.7057,84
17.7429,76
17.7800,81
17.8172,87
17.8543,81
17.8915,83
17.9286,85
17.9658,81
18.0029,70
18.0401,69
18.0772,88
18.1144,80
18.1515,80
18.1887,90
18.2258,79
18.2630,77
18.3001,97
18.3373,70
18.3744,74
18.4116,74
18.4487,77
18.4859,80
18.5230,83
18.5602,72
18.5973,100
18.6345,67
18.6716,78
18.7088,84
18.7459,92
18.7831,91
18.8202,89
18.8574,84
18.8945,87
18.9317,79
18.9689,87
19.0060,96
19.0432,91
19.0803,80
19.1175,77
19.1546,81
19.1918,86
19.2289,88
19.2661,92
19.3032,81
19.3404,83
19.3775,82
19.4147,79
19.4518,71
19.4890,95
19.5261,73
19.5633,87
19.6004,75
19.6376,79
19.6747,88
19.7119,90
19.7490,79
19.7862,82
19.8233,77
19.8605,97
19.8976,89
19.9348,107
19.9719,90
20.0091,80
20.0462,97
20.0834,80
20.1205,78
20.1577,62
20.1948,87
20.2320,95
20.2691,92
20.3063,107
20.3434,89
20.3806,79
20.4177,93
20.4549,85
20.4921,111
20.5292,102
20.5664,95
20.6035,102
20.6407,86
20.6778,85
20.7150,78
20.7521,80
20.7893,79
20.8264,81
20.8636,87
20.9007,91
20.9379,98
20.9750,101
21.0122,78
21.0493,83
21.0865,108
21.1236,98
21.1608,104
21.1979,148
21.2351,169
21.2722,155
21.3094,155
21.3465,240
21.3837,184
21.4208,197
21.4580,112
21.4951,103
21.5323,90
21.5694,88
21.6066,101
21.6437,99
21.6809,85
21.7180,98
21.7552,108
21.7923,91
21.8295,97
21.8666,98
21.9038,93
21.9409,96
21.9781,91
22.0152,88
22.0524,88
22.0896,99
22.1267,96
22.1639,105
22.2010,101
22.2382,84
22.2753,90
22.3125,98
22.3496,95
22.3868,90
22.4239,114
22.4611,98
22.4982,100
22.5354,106
22.5725,81
22.6097,100
22.6468,93
22.6840,90
22.7211,100
22.7583,93
22.7954,88
22.8326,96
22.8697,99
22.9069,103
22.9440,89
22.9812,122
23.0183,97
23.0555,101
23.0926,114
23.1298,77
23.1669,100
23.2041,101
23.2412,90
23.2784,99
23.3155,98
23.3527,100
23.3898,88
23.4270,99
23.4641,119
23.5013,99
23.5384,83
23.5756,91
23.6128,84
23.6499,97
23.6871,87
23.7242,114
23.7614,101
23.7985,100
23.8357,99
23.8728,95
23.9100,114
23.9471,102
23.9843,79
24.0214,117
24.0586,100
24.0957,99
24.1329,113
24.1700,86
24.2072,89
24.2443,123
24.2815,105
24.3186,109
24.3558,96
24.3929,118
24.4301,106
24.4672,101
24.5044,100
24.5415,99
24.5787,109
24.6158,92
24.6530,108
24.6901,108
24.7273,82
24.7644,105
24.8016,100
24.8387,106
24.8759,94
24.9130,97
24.9502,111
24.9873,95
25.0245,81
25.0616,91
25.0988,101
25.1360,96
25.1731,100
25.2103,94
25.2474,90
25.2846,85
25.3217,126
25.3589,87
25.3960,113
25.4332,76
25.4703,98
25.5075,88
25.5446,106
25.5818,96
25.6189,104
25.6561,84
25.6932,83
25.7304,115
25.7675,84
25.8047,99
25.8418,108
25.8790,99
25.9161,90
25.9533,95
25.9904,99
26.0276,88
26.0647,92
26.1019,105
26.1390,95
26.1762,86
26.2133,95
26.2505,84
26.2876,88
26.3248,100
26.3619,100
26.3991,88
26.4362,84
26.4734,88
26.5105,97
26.5477,92
26.5848,101
26.6220,75
26.6591,97
26.6963,96
26.7335,84
26.7706,101
26.8078,89
26.8449,89
26.8821,103
26.9192,95
26.9564,92
26.9935,74
27.0307,96
27.0678,93
27.1050,107
27.1421,100
27.1793,122
27.2164,117
27.2536,123
27.2907,114
27.3279,103
27.3650,101
27.4022,88
27.4393,82
27.4765,95
27.5136,72
27.5508,94
27.5879,84
27.6251,99
27.6622,92
27.6994,95
27.7365,101
27.7737,91
27.8108,98
27.8480,85
27.8851,74
27.9223,90
27.9594,97
27.9966,90
28.0337,71
28.0709,101
28.1080,92
28.1452,88
28.1823,66
28.2195,106
28.2567,105
28.2938,85
28.3310,84
28.3681,88
28.4053,91
28.4424,89
28.4796,79
28.5167,72
28.5539,82
28.5910,89
28.6282,87
28.6653,92
28.7025,83
28.7396,74
28.7768,83
28.8139,79
28.8511,96
28.8882,83
28.9254,73
28.9625,85
28.9997,73
29.0368,81
29.0740,77
29.1111,90
29.1483,88
29.1854,68
29.2226,67
29.2597,96
29.2969,72
29.3340,82
29.3712,61
29.4083,75
29.4455,86
29.4826,63
29.5198,69
29.5569,88
29.5941,77
29.6312,77
29.6684,77
29.7055,78
29.7427,71
29.7799,86
29.8170,80
29.8542,69
29.8913,80
29.9285,70
29.9656,84
30.0028,70
30.0399,84
30.0771,67
30.1142,81
30.1514,87
30.1885,91
30.2257,82
30.2628,84
30.3000,82
30.3371,103
30.3743,151
30.4114,104
30.4486,146
30.4857,123
30.5229,83
30.5600,72
30.5972,71
30.6343,65
30.6715,75
30.7086,66
30.7458,87
30.7829,86
30.8201,70
30.8572,64
30.8944,71
30.9315,77
30.9687,73
31.0058,86
31.0430,72
31.0801,60
31.1173,79
31.1544,75
31.1916,63
31.2287,68
31.2659,75
31.3030,63
31.3402,65
31.3774,77
31.4145,67
31.4517,70
31.4888,72
31.5260,72
31.5631,95
31.6003,75
31.6374,71
31.6746,57
31.7117,69
31.7489,78
31.7860,64
31.8232,66
31.8603,56
31.8975,58
31.9346,72
31.9718,60
32.0089,85
32.0461,77
32.0832,66
32.1204,75
32.1575,59
32.1947,55
32.2318,73
32.2690,75
32.3061,61
32.3433,79
32.3804,88
32.4176,80
32.4547,74
32.4919,85
32.5290,69
32.5662,67
32.6033,56
32.6405,57
32.6776,58
32.7148,68
32.7519,71
32.7891,70
32.8262,61
32.8634,54
32.9006,77
32.9377,68
32.9749,71
33.0120,69
33.0492,67
33.0863,52
33.1235,60
33.1606,60
33.1978,39
33.2349,73
33.2721,54
33.3092,52
33.3464,50
33.3835,56
33.4207,53
33.4578,48
33.4950,51
33.5321,54
33.5693,63
33.6064,49
33.6436,70
33.6807,79
33.7179,59
33.7550,57
33.7922,58
33.8293,61
33.8665,55
33.9036,51
33.9408,51
33.9779,64
34.0151,76
34.0522,43
34.0894,57
34.1265,60
34.1637,57
34.2008,65
34.2380,62
34.2751,49
34.3123,50
34.3494,67
34.3866,53
34.4238,55
34.4609,66
34.4981,72
34.5352,73
34.5724,57
34.6095,60
34.6467,77
34.6838,73
34.7210,63
34.7581,83
34.7953,67
34.8324,71
34.8696,85
34.9067,56
34.9439,46
34.9810,46
35.0182,54
35.0553,53
35.0925,55
35.1296,59
35.1668,68
35.2039,45
35.2411,47
35.2782,50
35.3154,46
35.3525,51
35.3897,50
35.4268,53
35.4640,54
35.5011,58
35.5383,57
35.5754,48
35.6126,56
35.6497,51
35.6869,45
35.7240,50
35.7612,51
35.7983,56
35.8355,48
35.8726,49
35.9098,33
35.9469,62
35.9841,52
36.0213,45
36.0584,50
36.0956,45
36.1327,34
36.1699,40
36.2070,41
36.2442,30
36.2813,41
36.3185,55
36.3556,42
36.3928,42
36.4299,47
36.4671,48
36.5042,51
36.5414,48
36.5785,40
36.6157,53
36.6528,51
36.6900,53
36.7271,39
36.7643,47
36.8014,46
36.8386,53
36.8757,41
36.9129,51
36.9500,55
36.9872,43
37.0243,53
37.0615,43
37.0986,47
37.1358,50
37.1729,36
37.2101,51
37.2472,44
37.2844,42
37.3215,47
37.3587,66
37.3958,56
37.4330,70
37.4701,77
37.5073,47
37.5445,54
37.5816,45
37.6188,42
37.6559,61
37.6931,51
37.7302,50
37.7674,36
37.8045,39
37.8417,54
37.8788,52
37.9160,54
37.9531,38
37.9903,40
38.0274,61
38.0646,49
38.1017,41
38.1389,34
38.1760,46
38.2132,48
38.2503,44
38.2875,42
38.3246,33
38.3618,42
38.3989,42
38.4361,41
38.4732,47
38.5104,38
38.5475,54
38.5847,26
38.6218,37
38.6590,40
38.6961,43
38.7333,30
38.7704,29
38.8076,41
38.8447,39
38.8819,47
38.9190,46
38.9562,46
38.9933,43
39.0305,38
39.0677,44
39.1048,44
39.1420,34
39.1791,40
39.2163,30
39.2534,32
39.2906,47
39.3277,57
39.3649,43
39.4020,41
39.4392,41
39.4763,37
39.5135,35
39.5506,37
39.5878,40
39.6249,51
39.6621,37
39.6992,52
39.7364,43
39.7735,38
39.8107,43
39.8478,37
39.8850,39
39.9221,37
39.9593,41
39.9964,41
40.0336,47
40.0707,38
40.1079,43
40.1450,41
40.1822,34
40.2193,39
40.2565,20
40.2936,41
40.3308,43
40.3679,50
40.4051,41
40.4422,46
40.4794,34
40.5165,36
40.5537,27
40.5908,37
40.6280,40
40.6652,30
40.7023,31
40.7395,43
40.7766,37
40.8138,38
40.8509,42
40.8881,33
40.9252,39
40.9624,35
40.9995,40
41.0367,39
41.0738,47
41.1110,39
41.1481,37
41.1853,51
41.2224,44
41.2596,45
41.2967,39
41.3339,38
41.3710,41
41.4082,37
41.4453,29
41.4825,29
41.5196,45
41.5568,43
41.5939,39
41.6311,39
41.6682,35
41.7054,45
41.7425,31
41.7797,42
41.8168,40
41.8540,38
41.8911,35
41.9283,50
41.9654,45
42.0026,36
42.0397,34
42.0769,40
42.1140,40
42.1512,38
42.1884,32
42.2255,33
42.2627,30
42.2998,37
42.3370,31
42.3741,40
42.4113,43
42.4484,39
42.4856,40
42.5227,38
42.5599,38
42.5970,44
42.6342,38
42.6713,35
42.7085,33
42.7456,35
42.7828,38
42.8199,57
42.8571,46
42.8942,41
42.9314,28
42.9685,34
43.0057,28
43.0428,39
43.0800,37
43.1171,36
43.1543,44
43.1914,33
43.2286,53
43.2657,37
43.3029,39
43.3400,34
43.3772,48
43.4143,32
43.4515,46
43.4886,61
43.5258,58
43.5629,48
43.6001,48
43.6372,44
43.6744,47
43.7116,32
43.7487,44
43.7859,38
43.8230,39
43.8602,48
43.8973,29
43.9345,39
43.9716,26
44.0088,48
44.0459,37
44.0831,45
44.1202,27
44.1574,30
44.1945,33
44.2317,36
44.2688,45
44.3060,35
44.3431,35
44.3803,37
44.4174,33
44.4546,33
44.4917,40
44.5289,40
44.5660,44
44.6032,34
44.6403,48
44.6775,42
44.7146,31
44.7518,35
44.7889,43
44.8261,34
44.8632,43
44.9004,43
44.9375,41
44.9747,40
45.0118,31
45.0490,35
45.0861,45
45.1233,34
45.1604,37
45.1976,44
45.2347,32
45.2719,38
45.3091,36
45.3462,37
45.3834,38
45.4205,29
45.4577,24
45.4948,43
45.5320,38
45.5691,26
45.6063,42
45.6434,34
45.6806,39
45.7177,37
45.7549,37
45.7920,28
45.8292,29
45.8663,41
45.9035,31
45.9406,29
45.9778,38
46.0149,29
46.0521,30
46.0892,33
46.1264,26
46.1635,37
46.2007,20
46.2378,34
46.2750,25
46.3121,37
46.3493,24
46.3864,31
46.4236,25
46.4607,29
46.4979,36
46.5350,30
46.5722,47
46.6093,34
46.6465,37
46.6836,31
46.7208,33
46.7579,32
46.7951,33
46.8323,30
46.8694,34
46.9066,35
46.9437,30
46.9809,34
47.0180,31
47.0552,29
47.0923,37
47.1295,32
47.1666,27
47.2038,36
47.2409,35
47.2781,32
47.3152,31
47.3524,24
47.3895,37
47.4267,29
47.4638,24
47.5010,27
47.5381,23
47.5753,24
47.6124,34
47.6496,41
47.6867,28
47.7239,30
47.7610,25
47.7982,26
47.8353,33
47.8725,33
47.9096,27
47.9468,24
47.9839,24
48.0211,34
48.0582,28
48.0954,37
48.1325,41
48.1697,33
48.2068,36
48.2440,42
48.2811,32
48.3183,30
48.3555,24
48.3926,37
48.4298,41
48.4669,25
48.5041,34
48.5412,40
48.5784,28
48.6155,35
48.6527,31
48.6898,36
48.7270,26
48.7641,38
48.8013,34
48.8384,31
48.8756,25
48.9127,38
48.9499,62
48.9870,48
49.0242,42
49.0613,52
49.0985,56
49.1356,46
49.1728,35
49.2099,24
49.2471,28
49.2842,38
49.3214,16
49.3585,32
49.3957,32
49.4328,26
49.4700,40
49.5071,29
49.5443,25
49.5814,37
49.6186,23
49.6557,33
49.6929,24
49.7300,34
49.7672,31
49.8043,35
49.8415,30
49.8786,22
49.9158,21
49.9530,28
49.9901,23
50.0273,40
50.0644,24
50.1016,32
50.1387,31
50.1759,31
50.2130,33
50.2502,34
50.2873,45
50.3245,35
50.3616,27
50.3988,30
50.4359,33
50.4731,29
50.5102,34
50.5474,24
50.5845,28
50.6217,29
50.6588,28
50.6960,33
50.7331,28
50.7703,33
50.8074,20
50.8446,22
50.8817,37
50.9189,26
50.9560,25
50.9932,28
51.0303,28
51.0675,19
51.1046,25
51.1418,21
51.1789,33
51.2161,30
51.2532,30
51.2904,29
51.3275,31
51.3647,43
51.4018,39
51.4390,40
51.4762,32
51.5133,28
51.5505,32
51.5876,36
51.6248,31
51.6619,38
51.6991,26
51.7362,34
51.7734,37
51.8105,28
51.8477,31
51.8848,33
51.9220,37
51.9591,33
51.9963,29
52.0334,31
52.0706,29
52.1077,25
52.1449,35
52.1820,27
52.2192,31
52.2563,30
52.2935,35
52.3306,37
52.3678,30
52.4049,24
52.4421,24
52.4792,35
52.5164,43
52.5535,28
52.5907,34
52.6278,33
52.6650,27
52.7021,31
52.7393,25
52.7764,33
52.8136,30
52.8507,34
52.8879,40
52.9250,36
52.9622,25
52.9994,21
53.0365,30
53.0737,32
53.1108,22
53.1480,37
53.1851,27
53.2223,32
53.2594,23
53.2966,31
53.3337,24
53.3709,34
53.4080,29
53.4452,28
53.4823,28
53.5195,28
53.5566,25
53.5938,26
53.6309,35
53.6681,45
53.7052,33
53.7424,25
53.7795,35
53.8167,26
53.8538,25
53.8910,29
53.9281,25
53.9653,38
54.0024,46
54.0396,30
54.0767,27
54.1139,31
54.1510,39
54.1882,34
54.2253,20
54.2625,31
54.2996,33
54.3368,40
54.3739,31
54.4111,30
54.4482,24
54.4854,24
54.5225,27
54.5597,30
54.5969,25
54.6340,31
54.6712,23
54.7083,37
54.7455,25
54.7826,22
54.8198,25
54.8569,24
54.8941,23
54.9312,28
54.9684,24
55.0055,34
55.0427,29
55.0798,30
55.1170,24
55.1541,31
55.1913,16
55.2284,17
55.2656,28
55.3027,31
55.3399,22
55.3770,23
55.4142,25
55.4513,30
55.4885,27
55.5256,31
55.5628,37
55.5999,25
55.6371,37
55.6742,28
55.7114,26
55.7485,26
55.7857,23
55.8228,30
55.8600,28
55.8971,28
55.9343,30
55.9714,24
56.0086,25
56.0457,33
56.0829,33
56.1201,26
56.1572,22
56.1944,28
56.2315,31
56.2687,32
56.3058,27
56.3430,24
56.3801,30
56.4173,35
56.4544,21
56.4916,24
56.5287,30
56.5659,27
56.6030,27
56.6402,30
56.6773,31
56.7145,20
56.7516,30
56.7888,20
56.8259,23
56.8631,28
56.9002,32
56.9374,19
56.9745,23
57.0117,26
57.0488,29
57.0860,33
57.1231,21
57.1603,23
57.1974,25
57.2346,32
57.2717,24
57.3089,29
57.3460,22
57.3832,27
57.4203,39
57.4575,25
57.4946,27
57.5318,21
57.5689,36
57.6061,29
57.6433,29
57.6804,33
57.7176,36
57.7547,22
57.7919,27
57.8290,34
57.8662,33
57.9033,27
57.9405,26
57.9776,21
58.0148,26
58.0519,19
58.0891,34
58.1262,30
58.1634,20
58.2005,23
58.2377,29
58.2748,30
58.3120,27
58.3491,31
58.3863,31
58.4234,28
58.4606,25
58.4977,36
58.5349,31
58.5720,32
58.6092,30
58.6463,36
58.6835,26
58.7206,30
58.7578,39
58.7949,26
58.8321,20
58.8692,22
58.9064,18
58.9435,28
58.9807,28
59.0178,26
59.0550,21
59.0921,26
59.1293,26
59.1664,22
59.2036,15
59.2408,19
59.2779,30
59.3151,19
59.3522,39
59.3894,24
59.4265,39
59.4637,18
59.5008,29
59.5380,23
59.5751,24
59.6123,31
59.6494,34
59.6866,27
59.7237,19
59.7609,27
59.7980,24
59.8352,19
59.8723,25
59.9095,24
59.9466,27
59.9838,27
60.0024,28