File: notebooks/data/xrd_data/ML_20220718_42_SJD_4_LaB6-1min.csv
;,2THETA,
5.0000,109
5.0372,91
5.0743,103
5.1115,96
5.1486,96
5.1858,102
5.2229,96
5.2601,82
5.2972,79
5.3344,94
5.3715,88
5.4087,91
5.4458,102
5.4830,82
5.5201,66
5.5573,98
5.5944,79
5.6316,73
5.6687,81
5.7059,76
5.7430,81
5.7802,72
5.8173,91
5.8545,72
5.8916,71
5.9288,67
5.9659,72
6.0031,65
6.0402,86
6.0774,70
6.1145,61
6.1517,73
6.1888,66
6.2260,72
6.2631,79
6.3003,63
6.3374,67
6.3746,77
6.4117,67
6.4489,59
6.4860,63
6.5232,56
6.5604,62
6.5975,62
6.6347,65
6.6718,68
6.7090,70
6.7461,61
6.7833,67
6.8204,55
6.8576,60
6.8947,62
6.9319,55
6.9690,59
7.0062,55
7.0433,56
7.0805,54
7.1176,55
7.1548,45
7.1919,54
7.2291,63
7.2662,65
7.3034,66
7.3405,56
7.3777,42
7.4148,57
7.4520,64
7.4891,53
7.5263,61
7.5634,58
7.6006,58
7.6377,75
7.6749,45
7.7120,70
7.7492,65
7.7863,58
7.8235,69
7.8606,65
7.8978,56
7.9349,73
7.9721,63
8.0092,65
8.0464,68
8.0835,76
8.1207,80
8.1579,77
8.1950,65
8.2322,69
8.2693,85
8.3065,72
8.3436,85
8.3808,69
8.4179,53
8.4551,72
8.4922,58
8.5294,80
8.5665,85
8.6037,61
8.6408,68
8.6780,75
8.7151,71
8.7523,70
8.7894,69
8.8266,80
8.8637,69
8.9009,80
8.9380,81
8.9752,88
9.0123,71
9.0495,69
9.0866,81
9.1238,78
9.1609,72
9.1981,72
9.2352,86
9.2724,74
9.3095,86
9.3467,65
9.3838,85
9.4210,87
9.4581,74
9.4953,82
9.5324,100
9.5696,86
9.6067,90
9.6439,91
9.6811,90
9.7182,80
9.7554,91
9.7925,81
9.8297,85
9.8668,96
9.9040,82
9.9411,86
9.9783,84
10.0154,87
10.0526,76
10.0897,92
10.1269,72
10.1640,89
10.2012,92
10.2383,78
10.2755,90
10.3126,105
10.3498,72
10.3869,96
10.4241,94
10.4612,92
10.4984,96
10.5355,86
10.5727,74
10.6098,78
10.6470,96
10.6841,68
10.7213,90
10.7584,86
10.7956,90
10.8327,77
10.8699,97
10.9070,104
10.9442,79
10.9813,72
11.0185,88
11.0556,79
11.0928,98
11.1299,81
11.1671,78
11.2043,68
11.2414,74
11.2786,94
11.3157,85
11.3529,79
11.3900,76
11.4272,87
11.4643,67
11.5015,94
11.5386,77
11.5758,92
11.6129,80
11.6501,100
11.6872,83
11.7244,73
11.7615,84
11.7987,69
11.8358,79
11.8730,96
11.9101,69
11.9473,71
11.9844,87
12.0216,76
12.0587,82
12.0959,57
12.1330,74
12.1702,82
12.2073,78
12.2445,75
12.2816,77
12.3188,91
12.3559,67
12.3931,93
12.4302,68
12.4674,73
12.5045,76
12.5417,74
12.5788,63
12.6160,72
12.6531,83
12.6903,76
12.7274,76
12.7646,85
12.8018,84
12.8389,95
12.8761,88
12.9132,76
12.9504,77
12.9875,73
13.0247,64
13.0618,62
13.0990,77
13.1361,81
13.1733,72
13.2104,79
13.2476,81
13.2847,64
13.3219,71
13.3590,78
13.3962,64
13.4333,66
13.4705,58
13.5076,71
13.5448,78
13.5819,75
13.6191,72
13.6562,84
13.6934,81
13.7305,60
13.7677,65
13.8048,68
13.8420,70
13.8791,60
13.9163,57
13.9534,68
13.9906,78
14.0277,70
14.0649,66
14.1020,53
14.1392,65
14.1763,67
14.2135,77
14.2506,54
14.2878,68
14.3250,62
14.3621,74
14.3993,70
14.4364,68
14.4736,68
14.5107,66
14.5479,41
14.5850,57
14.6222,65
14.6593,72
14.6965,55
14.7336,65
14.7708,49
14.8079,81
14.8451,59
14.8822,59
14.9194,65
14.9565,71
14.9937,60
15.0308,56
15.0680,57
15.1051,71
15.1423,51
15.1794,61
15.2166,65
15.2537,53
15.2909,65
15.3280,56
15.3652,61
15.4023,64
15.4395,51
15.4766,50
15.5138,49
15.5509,67
15.5881,63
15.6252,54
15.6624,58
15.6995,66
15.7367,61
15.7738,69
15.8110,65
15.8482,68
15.8853,76
15.9225,51
15.9596,48
15.9968,47
16.0339,56
16.0711,61
16.1082,69
16.1454,47
16.1825,64
16.2197,67
16.2568,45
16.2940,71
16.3311,65
16.3683,51
16.4054,50
16.4426,60
16.4797,57
16.5169,77
16.5540,48
16.5912,59
16.6283,70
16.6655,70
16.7026,52
16.7398,64
16.7769,50
16.8141,56
16.8512,49
16.8884,61
16.9255,82
16.9627,65
16.9998,54
17.0370,60
17.0741,67
17.1113,56
17.1484,56
17.1856,59
17.2227,64
17.2599,65
17.2970,54
17.3342,62
17.3713,69
17.4085,49
17.4457,73
17.4828,55
17.5200,63
17.5571,61
17.5943,60
17.6314,55
17.6686,70
17.7057,63
17.7429,70
17.7800,58
17.8172,60
17.8543,54
17.8915,58
17.9286,64
17.9658,61
18.0029,45
18.0401,57
18.0772,50
18.1144,57
18.1515,74
18.1887,56
18.2258,55
18.2630,70
18.3001,56
18.3373,57
18.3744,66
18.4116,52
18.4487,72
18.4859,56
18.5230,50
18.5602,67
18.5973,67
18.6345,71
18.6716,56
18.7088,70
18.7459,52
18.7831,62
18.8202,64
18.8574,59
18.8945,63
18.9317,59
18.9689,55
19.0060,63
19.0432,55
19.0803,71
19.1175,55
19.1546,56
19.1918,64
19.2289,59
19.2661,64
19.3032,60
19.3404,66
19.3775,60
19.4147,52
19.4518,77
19.4890,68
19.5261,57
19.5633,65
19.6004,65
19.6376,57
19.6747,68
19.7119,56
19.7490,63
19.7862,59
19.8233,64
19.8605,50
19.8976,75
19.9348,59
19.9719,59
20.0091,66
20.0462,53
20.0834,68
20.1205,63
20.1577,57
20.1948,84
20.2320,72
20.2691,57
20.3063,58
20.3434,63
20.3806,59
20.4177,77
20.4549,63
20.4921,63
20.5292,73
20.5664,69
20.6035,61
20.6407,68
20.6778,69
20.7150,65
20.7521,84
20.7893,66
20.8264,64
20.8636,66
20.9007,66
20.9379,86
20.9750,58
21.0122,77
21.0493,71
21.0865,91
21.1236,65
21.1608,83
21.1979,102
21.2351,109
21.2722,88
21.3094,119
21.3465,180
21.3837,147
21.4208,126
21.4580,86
21.4951,70
21.5323,88
21.5694,88
21.6066,63
21.6437,68
21.6809,62
21.7180,64
21.7552,73
21.7923,69
21.8295,88
21.8666,71
21.9038,80
21.9409,55
21.9781,59
22.0152,73
22.0524,61
22.0896,60
22.1267,76
22.1639,72
22.2010,81
22.2382,77
22.2753,69
22.3125,73
22.3496,68
22.3868,83
22.4239,79
22.4611,75
22.4982,74
22.5354,81
22.5725,87
22.6097,68
22.6468,74
22.6840,74
22.7211,79
22.7583,68
22.7954,81
22.8326,79
22.8697,62
22.9069,65
22.9440,87
22.9812,68
23.0183,82
23.0555,69
23.0926,76
23.1298,80
23.1669,77
23.2041,78
23.2412,80
23.2784,74
23.3155,71
23.3527,82
23.3898,63
23.4270,72
23.4641,59
23.5013,59
23.5384,74
23.5756,74
23.6128,76
23.6499,85
23.6871,74
23.7242,81
23.7614,84
23.7985,73
23.8357,89
23.8728,81
23.9100,59
23.9471,65
23.9843,70
24.0214,68
24.0586,85
24.0957,76
24.1329,75
24.1700,82
24.2072,66
24.2443,77
24.2815,84
24.3186,77
24.3558,86
24.3929,76
24.4301,57
24.4672,66
24.5044,78
24.5415,93
24.5787,81
24.6158,73
24.6530,87
24.6901,70
24.7273,70
24.7644,64
24.8016,83
24.8387,72
24.8759,66
24.9130,73
24.9502,57
24.9873,77
25.0245,79
25.0616,77
25.0988,77
25.1360,73
25.1731,66
25.2103,72
25.2474,90
25.2846,86
25.3217,48
25.3589,67
25.3960,76
25.4332,69
25.4703,81
25.5075,90
25.5446,96
25.5818,65
25.6189,62
25.6561,67
25.6932,82
25.7304,76
25.7675,66
25.8047,75
25.8418,58
25.8790,69
25.9161,60
25.9533,72
25.9904,88
26.0276,60
26.0647,55
26.1019,62
26.1390,67
26.1762,68
26.2133,65
26.2505,81
26.2876,64
26.3248,75
26.3619,81
26.3991,66
26.4362,68
26.4734,69
26.5105,73
26.5477,57
26.5848,58
26.6220,68
26.6591,80
26.6963,79
26.7335,61
26.7706,60
26.8078,69
26.8449,68
26.8821,66
26.9192,57
26.9564,62
26.9935,65
27.0307,54
27.0678,67
27.1050,81
27.1421,70
27.1793,76
27.2164,100
27.2536,88
27.2907,66
27.3279,73
27.3650,65
27.4022,60
27.4393,71
27.4765,60
27.5136,68
27.5508,66
27.5879,56
27.6251,72
27.6622,75
27.6994,62
27.7365,66
27.7737,64
27.8108,62
27.8480,69
27.8851,61
27.9223,63
27.9594,69
27.9966,64
28.0337,69
28.0709,70
28.1080,71
28.1452,51
28.1823,58
28.2195,71
28.2567,68
28.2938,67
28.3310,75
28.3681,58
28.4053,53
28.4424,49
28.4796,64
28.5167,65
28.5539,77
28.5910,52
28.6282,58
28.6653,70
28.7025,54
28.7396,62
28.7768,63
28.8139,55
28.8511,57
28.8882,70
28.9254,55
28.9625,61
28.9997,58
29.0368,49
29.0740,70
29.1111,57
29.1483,75
29.1854,62
29.2226,59
29.2597,66
29.2969,59
29.3340,67
29.3712,65
29.4083,48
29.4455,74
29.4826,59
29.5198,44
29.5569,66
29.5941,57
29.6312,64
29.6684,70
29.7055,54
29.7427,74
29.7799,59
29.8170,68
29.8542,50
29.8913,52
29.9285,50
29.9656,52
30.0028,65
30.0399,64
30.0771,67
30.1142,43
30.1514,65
30.1885,56
30.2257,53
30.2628,57
30.3000,71
30.3371,71
30.3743,124
30.4114,103
30.4486,87
30.4857,94
30.5229,57
30.5600,46
30.5972,58
30.6343,64
30.6715,54
30.7086,58
30.7458,59
30.7829,60
30.8201,51
30.8572,63
30.8944,48
30.9315,45
30.9687,63
31.0058,40
31.0430,54
31.0801,60
31.1173,60
31.1544,59
31.1916,58
31.2287,48
31.2659,58
31.3030,47
31.3402,43
31.3774,55
31.4145,53
31.4517,60
31.4888,57
31.5260,46
31.5631,40
31.6003,41
31.6374,38
31.6746,46
31.7117,61
31.7489,34
31.7860,53
31.8232,44
31.8603,51
31.8975,50
31.9346,57
31.9718,47
32.0089,43
32.0461,54
32.0832,48
32.1204,59
32.1575,47
32.1947,56
32.2318,39
32.2690,52
32.3061,51
32.3433,54
32.3804,39
32.4176,54
32.4547,60
32.4919,55
32.5290,62
32.5662,50
32.6033,55
32.6405,50
32.6776,55
32.7148,50
32.7519,37
32.7891,39
32.8262,40
32.8634,40
32.9006,43
32.9377,49
32.9749,44
33.0120,45
33.0492,44
33.0863,38
33.1235,39
33.1606,43
33.1978,40
33.2349,54
33.2721,44
33.3092,43
33.3464,35
33.3835,47
33.4207,37
33.4578,45
33.4950,41
33.5321,56
33.5693,51
33.6064,46
33.6436,40
33.6807,44
33.7179,46
33.7550,43
33.7922,56
33.8293,40
33.8665,56
33.9036,48
33.9408,34
33.9779,51
34.0151,36
34.0522,30
34.0894,54
34.1265,50
34.1637,46
34.2008,42
34.2380,38
34.2751,48
34.3123,49
34.3494,43
34.3866,37
34.4238,47
34.4609,41
34.4981,61
34.5352,44
34.5724,34
34.6095,47
34.6467,48
34.6838,47
34.7210,50
34.7581,47
34.7953,47
34.8324,41
34.8696,57
34.9067,47
34.9439,37
34.9810,44
35.0182,28
35.0553,42
35.0925,34
35.1296,31
35.1668,47
35.2039,29
35.2411,36
35.2782,35
35.3154,40
35.3525,28
35.3897,34
35.4268,45
35.4640,39
35.5011,42
35.5383,37
35.5754,36
35.6126,43
35.6497,31
35.6869,32
35.7240,36
35.7612,39
35.7983,38
35.8355,41
35.8726,35
35.9098,39
35.9469,37
35.9841,36
36.0213,47
36.0584,31
36.0956,37
36.1327,31
36.1699,35
36.2070,32
36.2442,32
36.2813,33
36.3185,37
36.3556,26
36.3928,37
36.4299,32
36.4671,26
36.5042,27
36.5414,33
36.5785,37
36.6157,48
36.6528,23
36.6900,45
36.7271,36
36.7643,34
36.8014,41
36.8386,41
36.8757,31
36.9129,38
36.9500,30
36.9872,36
37.0243,37
37.0615,23
37.0986,33
37.1358,35
37.1729,39
37.2101,37
37.2472,45
37.2844,37
37.3215,48
37.3587,17
37.3958,44
37.4330,52
37.4701,61
37.5073,49
37.5445,42
37.5816,27
37.6188,30
37.6559,52
37.6931,28
37.7302,34
37.7674,37
37.8045,36
37.8417,38
37.8788,27
37.9160,35
37.9531,31
37.9903,33
38.0274,34
38.0646,24
38.1017,37
38.1389,31
38.1760,33
38.2132,27
38.2503,31
38.2875,37
38.3246,38
38.3618,39
38.3989,38
38.4361,30
38.4732,37
38.5104,31
38.5475,33
38.5847,31
38.6218,28
38.6590,24
38.6961,25
38.7333,21
38.7704,30
38.8076,24
38.8447,30
38.8819,28
38.9190,37
38.9562,31
38.9933,35
39.0305,36
39.0677,35
39.1048,28
39.1420,29
39.1791,22
39.2163,30
39.2534,27
39.2906,20
39.3277,31
39.3649,30
39.4020,23
39.4392,26
39.4763,38
39.5135,36
39.5506,29
39.5878,36
39.6249,25
39.6621,24
39.6992,39
39.7364,31
39.7735,24
39.8107,21
39.8478,24
39.8850,22
39.9221,30
39.9593,30
39.9964,25
40.0336,30
40.0707,27
40.1079,31
40.1450,30
40.1822,21
40.2193,28
40.2565,37
40.2936,24
40.3308,24
40.3679,36
40.4051,29
40.4422,31
40.4794,34
40.5165,32
40.5537,26
40.5908,26
40.6280,40
40.6652,25
40.7023,27
40.7395,31
40.7766,33
40.8138,28
40.8509,22
40.8881,23
40.9252,29
40.9624,35
40.9995,22
41.0367,42
41.0738,36
41.1110,24
41.1481,28
41.1853,25
41.2224,20
41.2596,30
41.2967,23
41.3339,26
41.3710,30
41.4082,24
41.4453,25
41.4825,31
41.5196,17
41.5568,24
41.5939,30
41.6311,23
41.6682,20
41.7054,28
41.7425,30
41.7797,42
41.8168,25
41.8540,30
41.8911,28
41.9283,43
41.9654,33
42.0026,23
42.0397,30
42.0769,26
42.1140,27
42.1512,26
42.1884,28
42.2255,24
42.2627,25
42.2998,27
42.3370,34
42.3741,37
42.4113,22
42.4484,30
42.4856,21
42.5227,25
42.5599,26
42.5970,20
42.6342,25
42.6713,33
42.7085,30
42.7456,23
42.7828,37
42.8199,24
42.8571,24
42.8942,34
42.9314,31
42.9685,30
43.0057,24
43.0428,26
43.0800,25
43.1171,31
43.1543,31
43.1914,47
43.2286,34
43.2657,38
43.3029,35
43.3400,22
43.3772,34
43.4143,29
43.4515,41
43.4886,47
43.5258,48
43.5629,32
43.6001,39
43.6372,44
43.6744,33
43.7116,35
43.7487,27
43.7859,33
43.8230,23
43.8602,19
43.8973,22
43.9345,30
43.9716,28
44.0088,23
44.0459,25
44.0831,18
44.1202,26
44.1574,22
44.1945,28
44.2317,32
44.2688,23
44.3060,22
44.3431,32
44.3803,31
44.4174,13
44.4546,32
44.4917,29
44.5289,25
44.5660,25
44.6032,26
44.6403,24
44.6775,32
44.7146,30
44.7518,34
44.7889,25
44.8261,23
44.8632,19
44.9004,29
44.9375,26
44.9747,19
45.0118,22
45.0490,21
45.0861,23
45.1233,20
45.1604,35
45.1976,26
45.2347,25
45.2719,21
45.3091,16
45.3462,22
45.3834,23
45.4205,18
45.4577,27
45.4948,37
45.5320,29
45.5691,27
45.6063,20
45.6434,28
45.6806,22
45.7177,22
45.7549,27
45.7920,31
45.8292,26
45.8663,28
45.9035,30
45.9406,29
45.9778,31
46.0149,22
46.0521,22
46.0892,23
46.1264,22
46.1635,26
46.2007,38
46.2378,18
46.2750,31
46.3121,29
46.3493,19
46.3864,24
46.4236,29
46.4607,29
46.4979,31
46.5350,21
46.5722,24
46.6093,18
46.6465,19
46.6836,28
46.7208,15
46.7579,30
46.7951,20
46.8323,31
46.8694,33
46.9066,35
46.9437,28
46.9809,26
47.0180,24
47.0552,21
47.0923,19
47.1295,19
47.1666,24
47.2038,27
47.2409,15
47.2781,26
47.3152,23
47.3524,35
47.3895,30
47.4267,20
47.4638,24
47.5010,20
47.5381,21
47.5753,26
47.6124,18
47.6496,33
47.6867,24
47.7239,25
47.7610,20
47.7982,15
47.8353,26
47.8725,19
47.9096,25
47.9468,17
47.9839,17
48.0211,24
48.0582,16
48.0954,18
48.1325,22
48.1697,21
48.2068,26
48.2440,28
48.2811,23
48.3183,27
48.3555,20
48.3926,28
48.4298,25
48.4669,25
48.5041,25
48.5412,17
48.5784,18
48.6155,19
48.6527,18
48.6898,21
48.7270,22
48.7641,28
48.8013,18
48.8384,20
48.8756,22
48.9127,40
48.9499,38
48.9870,35
49.0242,20
49.0613,36
49.0985,26
49.1356,31
49.1728,28
49.2099,31
49.2471,23
49.2842,19
49.3214,23
49.3585,26
49.3957,23
49.4328,25
49.4700,23
49.5071,24
49.5443,16
49.5814,31
49.6186,35
49.6557,25
49.6929,25
49.7300,22
49.7672,24
49.8043,17
49.8415,14
49.8786,24
49.9158,18
49.9530,20
49.9901,25
50.0273,16
50.0644,18
50.1016,25
50.1387,34
50.1759,21
50.2130,30
50.2502,29
50.2873,23
50.3245,18
50.3616,26
50.3988,24
50.4359,27
50.4731,22
50.5102,20
50.5474,19
50.5845,22
50.6217,21
50.6588,29
50.6960,33
50.7331,14
50.7703,14
50.8074,21
50.8446,13
50.8817,19
50.9189,16
50.9560,21
50.9932,20
51.0303,20
51.0675,19
51.1046,28
51.1418,28
51.1789,26
51.2161,28
51.2532,15
51.2904,28
51.3275,24
51.3647,15
51.4018,24
51.4390,31
51.4762,25
51.5133,18
51.5505,23
51.5876,23
51.6248,20
51.6619,30
51.6991,12
51.7362,15
51.7734,24
51.8105,24
51.8477,20
51.8848,16
51.9220,18
51.9591,27
51.9963,19
52.0334,20
52.0706,29
52.1077,27
52.1449,20
52.1820,19
52.2192,17
52.2563,31
52.2935,20
52.3306,23
52.3678,17
52.4049,16
52.4421,13
52.4792,19
52.5164,19
52.5535,23
52.5907,19
52.6278,16
52.6650,28
52.7021,19
52.7393,23
52.7764,19
52.8136,19
52.8507,27
52.8879,13
52.9250,18
52.9622,16
52.9994,24
53.0365,28
53.0737,17
53.1108,17
53.1480,31
53.1851,23
53.2223,16
53.2594,21
53.2966,15
53.3337,23
53.3709,19
53.4080,23
53.4452,16
53.4823,25
53.5195,25
53.5566,23
53.5938,24
53.6309,24
53.6681,15
53.7052,34
53.7424,20
53.7795,24
53.8167,23
53.8538,29
53.8910,26
53.9281,25
53.9653,31
54.0024,24
54.0396,17
54.0767,29
54.1139,30
54.1510,32
54.1882,24
54.2253,16
54.2625,20
54.2996,15
54.3368,14
54.3739,11
54.4111,21
54.4482,21
54.4854,17
54.5225,21
54.5597,19
54.5969,22
54.6340,23
54.6712,21
54.7083,15
54.7455,19
54.7826,25
54.8198,20
54.8569,26
54.8941,22
54.9312,23
54.9684,22
55.0055,18
55.0427,23
55.0798,23
55.1170,21
55.1541,28
55.1913,23
55.2284,21
55.2656,20
55.3027,17
55.3399,27
55.3770,24
55.4142,25
55.4513,19
55.4885,17
55.5256,14
55.5628,24
55.5999,13
55.6371,28
55.6742,19
55.7114,20
55.7485,20
55.7857,26
55.8228,17
55.8600,18
55.8971,18
55.9343,26
55.9714,24
56.0086,17
56.0457,18
56.0829,23
56.1201,22
56.1572,15
56.1944,21
56.2315,28
56.2687,19
56.3058,26
56.3430,23
56.3801,23
56.4173,19
56.4544,20
56.4916,19
56.5287,24
56.5659,24
56.6030,19
56.6402,13
56.6773,25
56.7145,17
56.7516,24
56.7888,17
56.8259,23
56.8631,31
56.9002,18
56.9374,18
56.9745,25
57.0117,12
57.0488,23
57.0860,20
57.1231,17
57.1603,26
57.1974,23
57.2346,21
57.2717,23
57.3089,19
57.3460,19
57.3832,15
57.4203,25
57.4575,16
57.4946,25
57.5318,26
57.5689,16
57.6061,17
57.6433,16
57.6804,20
57.7176,23
57.7547,13
57.7919,13
57.8290,22
57.8662,23
57.9033,22
57.9405,16
57.9776,28
58.0148,14
58.0519,15
58.0891,24
58.1262,20
58.1634,21
58.2005,29
58.2377,17
58.2748,27
58.3120,22
58.3491,18
58.3863,23
58.4234,31
58.4606,13
58.4977,23
58.5349,26
58.5720,22
58.6092,28
58.6463,19
58.6835,23
58.7206,23
58.7578,19
58.7949,15
58.8321,18
58.8692,20
58.9064,9
58.9435,24
58.9807,20
59.0178,19
59.0550,17
59.0921,20
59.1293,21
59.1664,17
59.2036,30
59.2408,22
59.2779,12
59.3151,20
59.3522,23
59.3894,21
59.4265,18
59.4637,22
59.5008,20
59.5380,13
59.5751,19
59.6123,12
59.6494,12
59.6866,22
59.7237,14
59.7609,20
59.7980,28
59.8352,18
59.8723,22
59.9095,23
59.9466,17
59.9838,21
60.0024,19