File: notebooks/data/xrd_data/ML_20220720_19_SJD_4_LaB6-1min.csv
;,2THETA,
5.0000,94
5.0372,86
5.0743,83
5.1115,88
5.1486,107
5.1858,94
5.2229,76
5.2601,92
5.2972,88
5.3344,99
5.3715,81
5.4087,95
5.4458,80
5.4830,77
5.5201,84
5.5573,71
5.5944,90
5.6316,78
5.6687,76
5.7059,78
5.7430,79
5.7802,72
5.8173,89
5.8545,70
5.8916,80
5.9288,85
5.9659,67
6.0031,83
6.0402,64
6.0774,61
6.1145,74
6.1517,70
6.1888,78
6.2260,66
6.2631,77
6.3003,72
6.3374,70
6.3746,51
6.4117,57
6.4489,74
6.4860,48
6.5232,76
6.5604,71
6.5975,51
6.6347,80
6.6718,77
6.7090,57
6.7461,69
6.7833,52
6.8204,69
6.8576,66
6.8947,52
6.9319,63
6.9690,67
7.0062,60
7.0433,66
7.0805,54
7.1176,60
7.1548,70
7.1919,73
7.2291,55
7.2662,51
7.3034,54
7.3405,54
7.3777,57
7.4148,67
7.4520,73
7.4891,53
7.5263,54
7.5634,55
7.6006,70
7.6377,61
7.6749,67
7.7120,67
7.7492,59
7.7863,56
7.8235,81
7.8606,64
7.8978,70
7.9349,66
7.9721,70
8.0092,66
8.0464,73
8.0835,65
8.1207,55
8.1579,64
8.1950,78
8.2322,82
8.2693,74
8.3065,74
8.3436,71
8.3808,62
8.4179,68
8.4551,73
8.4922,76
8.5294,65
8.5665,81
8.6037,85
8.6408,70
8.6780,57
8.7151,67
8.7523,84
8.7894,75
8.8266,77
8.8637,71
8.9009,77
8.9380,78
8.9752,71
9.0123,67
9.0495,69
9.0866,65
9.1238,84
9.1609,87
9.1981,81
9.2352,69
9.2724,77
9.3095,72
9.3467,98
9.3838,74
9.4210,81
9.4581,82
9.4953,79
9.5324,102
9.5696,85
9.6067,84
9.6439,76
9.6811,70
9.7182,96
9.7554,76
9.7925,96
9.8297,88
9.8668,80
9.9040,97
9.9411,91
9.9783,106
10.0154,79
10.0526,80
10.0897,82
10.1269,78
10.1640,87
10.2012,89
10.2383,83
10.2755,81
10.3126,96
10.3498,99
10.3869,89
10.4241,87
10.4612,94
10.4984,96
10.5355,65
10.5727,92
10.6098,95
10.6470,91
10.6841,90
10.7213,91
10.7584,81
10.7956,81
10.8327,80
10.8699,75
10.9070,87
10.9442,80
10.9813,100
11.0185,95
11.0556,83
11.0928,84
11.1299,74
11.1671,78
11.2043,106
11.2414,91
11.2786,83
11.3157,83
11.3529,94
11.3900,86
11.4272,99
11.4643,82
11.5015,95
11.5386,89
11.5758,86
11.6129,73
11.6501,89
11.6872,86
11.7244,78
11.7615,84
11.7987,77
11.8358,78
11.8730,95
11.9101,102
11.9473,85
11.9844,88
12.0216,75
12.0587,86
12.0959,87
12.1330,84
12.1702,72
12.2073,75
12.2445,90
12.2816,100
12.3188,78
12.3559,68
12.3931,92
12.4302,84
12.4674,67
12.5045,57
12.5417,82
12.5788,83
12.6160,91
12.6531,78
12.6903,79
12.7274,72
12.7646,79
12.8018,74
12.8389,83
12.8761,63
12.9132,76
12.9504,81
12.9875,67
13.0247,109
13.0618,70
13.0990,57
13.1361,72
13.1733,79
13.2104,84
13.2476,66
13.2847,70
13.3219,71
13.3590,66
13.3962,78
13.4333,73
13.4705,66
13.5076,66
13.5448,76
13.5819,67
13.6191,68
13.6562,66
13.6934,65
13.7305,57
13.7677,78
13.8048,68
13.8420,46
13.8791,71
13.9163,85
13.9534,74
13.9906,68
14.0277,73
14.0649,65
14.1020,68
14.1392,70
14.1763,69
14.2135,73
14.2506,79
14.2878,60
14.3250,61
14.3621,65
14.3993,59
14.4364,65
14.4736,62
14.5107,39
14.5479,63
14.5850,76
14.6222,78
14.6593,76
14.6965,61
14.7336,74
14.7708,68
14.8079,50
14.8451,53
14.8822,61
14.9194,55
14.9565,44
14.9937,63
15.0308,60
15.0680,56
15.1051,79
15.1423,55
15.1794,49
15.2166,54
15.2537,66
15.2909,67
15.3280,59
15.3652,55
15.4023,75
15.4395,52
15.4766,52
15.5138,58
15.5509,52
15.5881,71
15.6252,56
15.6624,56
15.6995,65
15.7367,65
15.7738,55
15.8110,57
15.8482,62
15.8853,36
15.9225,60
15.9596,67
15.9968,69
16.0339,67
16.0711,70
16.1082,58
16.1454,48
16.1825,59
16.2197,57
16.2568,71
16.2940,53
16.3311,68
16.3683,66
16.4054,60
16.4426,60
16.4797,48
16.5169,52
16.5540,52
16.5912,61
16.6283,65
16.6655,63
16.7026,55
16.7398,58
16.7769,51
16.8141,68
16.8512,56
16.8884,51
16.9255,46
16.9627,62
16.9998,67
17.0370,62
17.0741,60
17.1113,55
17.1484,66
17.1856,62
17.2227,53
17.2599,42
17.2970,51
17.3342,61
17.3713,63
17.4085,46
17.4457,51
17.4828,69
17.5200,52
17.5571,60
17.5943,54
17.6314,58
17.6686,61
17.7057,59
17.7429,65
17.7800,59
17.8172,81
17.8543,61
17.8915,48
17.9286,70
17.9658,69
18.0029,70
18.0401,61
18.0772,77
18.1144,44
18.1515,64
18.1887,60
18.2258,65
18.2630,59
18.3001,57
18.3373,60
18.3744,39
18.4116,63
18.4487,82
18.4859,56
18.5230,72
18.5602,59
18.5973,43
18.6345,75
18.6716,69
18.7088,56
18.7459,68
18.7831,62
18.8202,59
18.8574,66
18.8945,78
18.9317,67
18.9689,61
19.0060,62
19.0432,58
19.0803,45
19.1175,60
19.1546,57
19.1918,64
19.2289,65
19.2661,56
19.3032,78
19.3404,62
19.3775,59
19.4147,56
19.4518,57
19.4890,70
19.5261,60
19.5633,54
19.6004,83
19.6376,58
19.6747,65
19.7119,60
19.7490,63
19.7862,58
19.8233,53
19.8605,66
19.8976,55
19.9348,79
19.9719,42
20.0091,65
20.0462,68
20.0834,64
20.1205,59
20.1577,71
20.1948,66
20.2320,59
20.2691,54
20.3063,63
20.3434,76
20.3806,61
20.4177,55
20.4549,65
20.4921,67
20.5292,84
20.5664,64
20.6035,83
20.6407,88
20.6778,75
20.7150,76
20.7521,87
20.7893,70
20.8264,67
20.8636,62
20.9007,66
20.9379,68
20.9750,49
21.0122,66
21.0493,81
21.0865,61
21.1236,68
21.1608,91
21.1979,110
21.2351,114
21.2722,115
21.3094,133
21.3465,184
21.3837,161
21.4208,108
21.4580,78
21.4951,88
21.5323,81
21.5694,67
21.6066,68
21.6437,62
21.6809,80
21.7180,72
21.7552,72
21.7923,76
21.8295,81
21.8666,52
21.9038,63
21.9409,82
21.9781,57
22.0152,77
22.0524,70
22.0896,74
22.1267,66
22.1639,79
22.2010,84
22.2382,71
22.2753,66
22.3125,81
22.3496,66
22.3868,74
22.4239,67
22.4611,79
22.4982,74
22.5354,73
22.5725,69
22.6097,61
22.6468,76
22.6840,58
22.7211,61
22.7583,75
22.7954,74
22.8326,68
22.8697,64
22.9069,71
22.9440,66
22.9812,75
23.0183,64
23.0555,73
23.0926,71
23.1298,78
23.1669,61
23.2041,67
23.2412,86
23.2784,72
23.3155,89
23.3527,78
23.3898,76
23.4270,61
23.4641,83
23.5013,68
23.5384,69
23.5756,72
23.6128,90
23.6499,82
23.6871,60
23.7242,68
23.7614,72
23.7985,84
23.8357,73
23.8728,56
23.9100,67
23.9471,63
23.9843,67
24.0214,82
24.0586,62
24.0957,71
24.1329,79
24.1700,70
24.2072,70
24.2443,64
24.2815,85
24.3186,88
24.3558,67
24.3929,87
24.4301,92
24.4672,83
24.5044,68
24.5415,67
24.5787,77
24.6158,68
24.6530,60
24.6901,80
24.7273,76
24.7644,75
24.8016,53
24.8387,72
24.8759,73
24.9130,59
24.9502,68
24.9873,55
25.0245,64
25.0616,69
25.0988,74
25.1360,91
25.1731,71
25.2103,78
25.2474,65
25.2846,74
25.3217,92
25.3589,60
25.3960,78
25.4332,73
25.4703,74
25.5075,73
25.5446,61
25.5818,64
25.6189,63
25.6561,90
25.6932,84
25.7304,81
25.7675,68
25.8047,84
25.8418,78
25.8790,71
25.9161,87
25.9533,69
25.9904,77
26.0276,69
26.0647,69
26.1019,80
26.1390,74
26.1762,58
26.2133,62
26.2505,79
26.2876,64
26.3248,59
26.3619,64
26.3991,80
26.4362,80
26.4734,70
26.5105,70
26.5477,77
26.5848,77
26.6220,62
26.6591,76
26.6963,74
26.7335,59
26.7706,67
26.8078,84
26.8449,73
26.8821,73
26.9192,64
26.9564,73
26.9935,64
27.0307,73
27.0678,72
27.1050,77
27.1421,71
27.1793,76
27.2164,89
27.2536,72
27.2907,90
27.3279,72
27.3650,60
27.4022,75
27.4393,64
27.4765,65
27.5136,73
27.5508,70
27.5879,74
27.6251,62
27.6622,61
27.6994,65
27.7365,61
27.7737,54
27.8108,71
27.8480,56
27.8851,67
27.9223,69
27.9594,44
27.9966,70
28.0337,81
28.0709,61
28.1080,44
28.1452,53
28.1823,61
28.2195,57
28.2567,74
28.2938,65
28.3310,64
28.3681,58
28.4053,58
28.4424,56
28.4796,59
28.5167,78
28.5539,73
28.5910,74
28.6282,52
28.6653,52
28.7025,56
28.7396,59
28.7768,71
28.8139,54
28.8511,64
28.8882,51
28.9254,69
28.9625,50
28.9997,44
29.0368,62
29.0740,47
29.1111,74
29.1483,60
29.1854,50
29.2226,54
29.2597,44
29.2969,69
29.3340,49
29.3712,73
29.4083,68
29.4455,62
29.4826,52
29.5198,56
29.5569,54
29.5941,49
29.6312,61
29.6684,57
29.7055,54
29.7427,53
29.7799,72
29.8170,51
29.8542,55
29.8913,66
29.9285,52
29.9656,52
30.0028,71
30.0399,57
30.0771,52
30.1142,64
30.1514,64
30.1885,49
30.2257,48
30.2628,52
30.3000,58
30.3371,77
30.3743,104
30.4114,115
30.4486,99
30.4857,81
30.5229,80
30.5600,42
30.5972,71
30.6343,61
30.6715,64
30.7086,61
30.7458,58
30.7829,47
30.8201,74
30.8572,60
30.8944,54
30.9315,59
30.9687,49
31.0058,57
31.0430,73
31.0801,60
31.1173,59
31.1544,48
31.1916,56
31.2287,52
31.2659,54
31.3030,68
31.3402,45
31.3774,48
31.4145,54
31.4517,50
31.4888,49
31.5260,48
31.5631,54
31.6003,54
31.6374,65
31.6746,49
31.7117,50
31.7489,44
31.7860,46
31.8232,40
31.8603,57
31.8975,49
31.9346,51
31.9718,56
32.0089,49
32.0461,53
32.0832,45
32.1204,46
32.1575,31
32.1947,49
32.2318,58
32.2690,44
32.3061,46
32.3433,49
32.3804,49
32.4176,60
32.4547,44
32.4919,75
32.5290,57
32.5662,59
32.6033,44
32.6405,54
32.6776,50
32.7148,42
32.7519,59
32.7891,45
32.8262,38
32.8634,46
32.9006,38
32.9377,59
32.9749,50
33.0120,51
33.0492,46
33.0863,37
33.1235,63
33.1606,51
33.1978,45
33.2349,40
33.2721,47
33.3092,47
33.3464,45
33.3835,44
33.4207,49
33.4578,43
33.4950,44
33.5321,60
33.5693,38
33.6064,32
33.6436,38
33.6807,48
33.7179,49
33.7550,42
33.7922,37
33.8293,37
33.8665,38
33.9036,44
33.9408,41
33.9779,55
34.0151,31
34.0522,40
34.0894,49
34.1265,49
34.1637,29
34.2008,42
34.2380,45
34.2751,58
34.3123,39
34.3494,53
34.3866,42
34.4238,45
34.4609,56
34.4981,38
34.5352,42
34.5724,46
34.6095,42
34.6467,31
34.6838,56
34.7210,45
34.7581,46
34.7953,56
34.8324,56
34.8696,49
34.9067,34
34.9439,42
34.9810,33
35.0182,31
35.0553,33
35.0925,35
35.1296,40
35.1668,48
35.2039,36
35.2411,32
35.2782,41
35.3154,45
35.3525,37
35.3897,40
35.4268,34
35.4640,36
35.5011,41
35.5383,38
35.5754,36
35.6126,28
35.6497,49
35.6869,49
35.7240,46
35.7612,46
35.7983,36
35.8355,31
35.8726,41
35.9098,37
35.9469,28
35.9841,26
36.0213,35
36.0584,33
36.0956,33
36.1327,47
36.1699,34
36.2070,32
36.2442,39
36.2813,22
36.3185,38
36.3556,44
36.3928,42
36.4299,37
36.4671,45
36.5042,35
36.5414,38
36.5785,42
36.6157,44
36.6528,33
36.6900,39
36.7271,36
36.7643,30
36.8014,34
36.8386,34
36.8757,26
36.9129,24
36.9500,44
36.9872,44
37.0243,39
37.0615,43
37.0986,32
37.1358,42
37.1729,37
37.2101,45
37.2472,22
37.2844,31
37.3215,26
37.3587,35
37.3958,47
37.4330,47
37.4701,49
37.5073,44
37.5445,42
37.5816,35
37.6188,27
37.6559,24
37.6931,39
37.7302,32
37.7674,26
37.8045,29
37.8417,39
37.8788,29
37.9160,35
37.9531,26
37.9903,36
38.0274,28
38.0646,24
38.1017,34
38.1389,20
38.1760,31
38.2132,41
38.2503,33
38.2875,25
38.3246,29
38.3618,29
38.3989,31
38.4361,33
38.4732,30
38.5104,37
38.5475,29
38.5847,23
38.6218,29
38.6590,26
38.6961,27
38.7333,32
38.7704,37
38.8076,27
38.8447,31
38.8819,36
38.9190,32
38.9562,32
38.9933,32
39.0305,34
39.0677,33
39.1048,36
39.1420,29
39.1791,26
39.2163,32
39.2534,23
39.2906,29
39.3277,24
39.3649,24
39.4020,35
39.4392,24
39.4763,34
39.5135,22
39.5506,25
39.5878,31
39.6249,34
39.6621,40
39.6992,29
39.7364,30
39.7735,25
39.8107,34
39.8478,28
39.8850,25
39.9221,29
39.9593,24
39.9964,34
40.0336,28
40.0707,26
40.1079,31
40.1450,30
40.1822,34
40.2193,35
40.2565,26
40.2936,35
40.3308,27
40.3679,32
40.4051,22
40.4422,26
40.4794,28
40.5165,18
40.5537,33
40.5908,31
40.6280,32
40.6652,23
40.7023,22
40.7395,25
40.7766,23
40.8138,24
40.8509,26
40.8881,31
40.9252,30
40.9624,25
40.9995,29
41.0367,25
41.0738,25
41.1110,34
41.1481,32
41.1853,20
41.2224,27
41.2596,29
41.2967,20
41.3339,28
41.3710,42
41.4082,30
41.4453,40
41.4825,21
41.5196,24
41.5568,30
41.5939,26
41.6311,24
41.6682,30
41.7054,28
41.7425,29
41.7797,27
41.8168,26
41.8540,37
41.8911,39
41.9283,28
41.9654,31
42.0026,35
42.0397,22
42.0769,25
42.1140,31
42.1512,30
42.1884,28
42.2255,33
42.2627,30
42.2998,19
42.3370,31
42.3741,24
42.4113,22
42.4484,27
42.4856,26
42.5227,28
42.5599,21
42.5970,28
42.6342,21
42.6713,27
42.7085,26
42.7456,34
42.7828,41
42.8199,25
42.8571,22
42.8942,22
42.9314,28
42.9685,23
43.0057,31
43.0428,31
43.0800,30
43.1171,30
43.1543,29
43.1914,27
43.2286,35
43.2657,34
43.3029,31
43.3400,44
43.3772,27
43.4143,31
43.4515,25
43.4886,47
43.5258,56
43.5629,35
43.6001,36
43.6372,26
43.6744,34
43.7116,16
43.7487,16
43.7859,15
43.8230,31
43.8602,33
43.8973,21
43.9345,38
43.9716,30
44.0088,27
44.0459,24
44.0831,27
44.1202,22
44.1574,22
44.1945,20
44.2317,30
44.2688,36
44.3060,30
44.3431,24
44.3803,28
44.4174,27
44.4546,21
44.4917,31
44.5289,37
44.5660,27
44.6032,25
44.6403,22
44.6775,27
44.7146,38
44.7518,19
44.7889,21
44.8261,24
44.8632,24
44.9004,23
44.9375,26
44.9747,28
45.0118,32
45.0490,27
45.0861,23
45.1233,20
45.1604,30
45.1976,23
45.2347,17
45.2719,30
45.3091,27
45.3462,23
45.3834,16
45.4205,26
45.4577,23
45.4948,21
45.5320,26
45.5691,35
45.6063,25
45.6434,30
45.6806,20
45.7177,26
45.7549,27
45.7920,17
45.8292,12
45.8663,20
45.9035,26
45.9406,22
45.9778,23
46.0149,34
46.0521,19
46.0892,26
46.1264,23
46.1635,23
46.2007,25
46.2378,29
46.2750,20
46.3121,24
46.3493,24
46.3864,23
46.4236,24
46.4607,17
46.4979,27
46.5350,24
46.5722,24
46.6093,26
46.6465,24
46.6836,23
46.7208,21
46.7579,16
46.7951,21
46.8323,29
46.8694,22
46.9066,21
46.9437,21
46.9809,22
47.0180,22
47.0552,25
47.0923,25
47.1295,27
47.1666,19
47.2038,22
47.2409,28
47.2781,20
47.3152,21
47.3524,30
47.3895,23
47.4267,19
47.4638,23
47.5010,23
47.5381,18
47.5753,26
47.6124,23
47.6496,22
47.6867,20
47.7239,18
47.7610,17
47.7982,21
47.8353,28
47.8725,27
47.9096,16
47.9468,21
47.9839,13
48.0211,17
48.0582,17
48.0954,16
48.1325,19
48.1697,27
48.2068,26
48.2440,21
48.2811,20
48.3183,26
48.3555,22
48.3926,21
48.4298,26
48.4669,18
48.5041,26
48.5412,21
48.5784,28
48.6155,26
48.6527,20
48.6898,24
48.7270,18
48.7641,24
48.8013,20
48.8384,22
48.8756,31
48.9127,28
48.9499,44
48.9870,39
49.0242,30
49.0613,33
49.0985,41
49.1356,25
49.1728,18
49.2099,25
49.2471,25
49.2842,18
49.3214,19
49.3585,29
49.3957,22
49.4328,15
49.4700,21
49.5071,21
49.5443,21
49.5814,21
49.6186,15
49.6557,13
49.6929,24
49.7300,30
49.7672,23
49.8043,24
49.8415,23
49.8786,15
49.9158,19
49.9530,18
49.9901,16
50.0273,28
50.0644,23
50.1016,19
50.1387,23
50.1759,28
50.2130,18
50.2502,18
50.2873,22
50.3245,28
50.3616,20
50.3988,30
50.4359,16
50.4731,18
50.5102,21
50.5474,13
50.5845,20
50.6217,20
50.6588,33
50.6960,25
50.7331,28
50.7703,20
50.8074,25
50.8446,17
50.8817,26
50.9189,16
50.9560,27
50.9932,20
51.0303,16
51.0675,22
51.1046,12
51.1418,17
51.1789,30
51.2161,19
51.2532,26
51.2904,19
51.3275,22
51.3647,34
51.4018,28
51.4390,29
51.4762,23
51.5133,16
51.5505,19
51.5876,15
51.6248,23
51.6619,26
51.6991,26
51.7362,28
51.7734,25
51.8105,22
51.8477,22
51.8848,23
51.9220,22
51.9591,14
51.9963,32
52.0334,22
52.0706,25
52.1077,31
52.1449,23
52.1820,24
52.2192,24
52.2563,23
52.2935,29
52.3306,20
52.3678,21
52.4049,29
52.4421,21
52.4792,21
52.5164,15
52.5535,13
52.5907,28
52.6278,16
52.6650,17
52.7021,16
52.7393,28
52.7764,20
52.8136,20
52.8507,23
52.8879,14
52.9250,26
52.9622,23
52.9994,26
53.0365,22
53.0737,24
53.1108,23
53.1480,31
53.1851,28
53.2223,22
53.2594,14
53.2966,20
53.3337,17
53.3709,22
53.4080,17
53.4452,22
53.4823,22
53.5195,18
53.5566,19
53.5938,19
53.6309,29
53.6681,25
53.7052,22
53.7424,11
53.7795,26
53.8167,24
53.8538,28
53.8910,27
53.9281,28
53.9653,24
54.0024,29
54.0396,29
54.0767,10
54.1139,19
54.1510,26
54.1882,25
54.2253,19
54.2625,25
54.2996,23
54.3368,21
54.3739,26
54.4111,26
54.4482,17
54.4854,21
54.5225,19
54.5597,22
54.5969,24
54.6340,27
54.6712,22
54.7083,23
54.7455,22
54.7826,19
54.8198,21
54.8569,22
54.8941,25
54.9312,21
54.9684,23
55.0055,24
55.0427,29
55.0798,17
55.1170,28
55.1541,16
55.1913,21
55.2284,22
55.2656,19
55.3027,25
55.3399,23
55.3770,18
55.4142,17
55.4513,28
55.4885,22
55.5256,27
55.5628,17
55.5999,25
55.6371,31
55.6742,18
55.7114,20
55.7485,21
55.7857,22
55.8228,18
55.8600,31
55.8971,23
55.9343,16
55.9714,18
56.0086,21
56.0457,20
56.0829,16
56.1201,30
56.1572,25
56.1944,24
56.2315,36
56.2687,36
56.3058,33
56.3430,22
56.3801,29
56.4173,19
56.4544,13
56.4916,12
56.5287,26
56.5659,15
56.6030,22
56.6402,23
56.6773,24
56.7145,20
56.7516,16
56.7888,13
56.8259,20
56.8631,21
56.9002,23
56.9374,17
56.9745,19
57.0117,19
57.0488,20
57.0860,14
57.1231,22
57.1603,20
57.1974,22
57.2346,17
57.2717,9
57.3089,16
57.3460,25
57.3832,36
57.4203,24
57.4575,19
57.4946,14
57.5318,21
57.5689,16
57.6061,23
57.6433,25
57.6804,24
57.7176,16
57.7547,23
57.7919,24
57.8290,25
57.8662,19
57.9033,25
57.9405,22
57.9776,17
58.0148,21
58.0519,24
58.0891,21
58.1262,10
58.1634,14
58.2005,21
58.2377,25
58.2748,17
58.3120,19
58.3491,23
58.3863,30
58.4234,16
58.4606,23
58.4977,20
58.5349,26
58.5720,20
58.6092,20
58.6463,19
58.6835,15
58.7206,25
58.7578,30
58.7949,13
58.8321,24
58.8692,18
58.9064,12
58.9435,23
58.9807,21
59.0178,13
59.0550,23
59.0921,22
59.1293,19
59.1664,19
59.2036,18
59.2408,20
59.2779,20
59.3151,14
59.3522,16
59.3894,24
59.4265,25
59.4637,27
59.5008,24
59.5380,15
59.5751,14
59.6123,22
59.6494,19
59.6866,19
59.7237,15
59.7609,18
59.7980,14
59.8352,20
59.8723,18
59.9095,20
59.9466,20
59.9838,20
60.0024,24