File: notebooks/data/xrd_data/ML_20220721_22_SJD_4_LaB6-4min.csv
;,2THETA,
5.0000,278
5.0372,257
5.0743,261
5.1115,273
5.1486,256
5.1858,272
5.2229,266
5.2601,244
5.2972,267
5.3344,263
5.3715,235
5.4087,246
5.4458,247
5.4830,226
5.5201,230
5.5573,244
5.5944,215
5.6316,243
5.6687,252
5.7059,221
5.7430,197
5.7802,227
5.8173,212
5.8545,221
5.8916,218
5.9288,196
5.9659,208
6.0031,169
6.0402,201
6.0774,182
6.1145,203
6.1517,205
6.1888,212
6.2260,200
6.2631,189
6.3003,213
6.3374,202
6.3746,184
6.4117,187
6.4489,192
6.4860,188
6.5232,194
6.5604,187
6.5975,202
6.6347,185
6.6718,173
6.7090,161
6.7461,162
6.7833,165
6.8204,165
6.8576,175
6.8947,154
6.9319,170
6.9690,184
7.0062,163
7.0433,155
7.0805,152
7.1176,174
7.1548,149
7.1919,175
7.2291,165
7.2662,160
7.3034,169
7.3405,173
7.3777,153
7.4148,180
7.4520,178
7.4891,177
7.5263,180
7.5634,158
7.6006,181
7.6377,162
7.6749,190
7.7120,193
7.7492,171
7.7863,182
7.8235,184
7.8606,173
7.8978,189
7.9349,204
7.9721,179
8.0092,191
8.0464,180
8.0835,193
8.1207,218
8.1579,180
8.1950,183
8.2322,214
8.2693,180
8.3065,173
8.3436,197
8.3808,188
8.4179,210
8.4551,190
8.4922,202
8.5294,188
8.5665,233
8.6037,173
8.6408,208
8.6780,205
8.7151,203
8.7523,214
8.7894,241
8.8266,201
8.8637,199
8.9009,210
8.9380,204
8.9752,209
9.0123,222
9.0495,239
9.0866,212
9.1238,250
9.1609,238
9.1981,182
9.2352,207
9.2724,236
9.3095,251
9.3467,215
9.3838,201
9.4210,246
9.4581,243
9.4953,221
9.5324,229
9.5696,208
9.6067,236
9.6439,171
9.6811,237
9.7182,253
9.7554,211
9.7925,224
9.8297,236
9.8668,257
9.9040,251
9.9411,245
9.9783,240
10.0154,228
10.0526,258
10.0897,255
10.1269,229
10.1640,257
10.2012,238
10.2383,243
10.2755,215
10.3126,204
10.3498,234
10.3869,220
10.4241,246
10.4612,233
10.4984,250
10.5355,236
10.5727,236
10.6098,263
10.6470,246
10.6841,225
10.7213,252
10.7584,228
10.7956,238
10.8327,233
10.8699,241
10.9070,248
10.9442,229
10.9813,222
11.0185,234
11.0556,243
11.0928,236
11.1299,256
11.1671,224
11.2043,239
11.2414,235
11.2786,236
11.3157,256
11.3529,252
11.3900,241
11.4272,221
11.4643,248
11.5015,211
11.5386,233
11.5758,234
11.6129,233
11.6501,235
11.6872,236
11.7244,212
11.7615,253
11.7987,237
11.8358,239
11.8730,191
11.9101,241
11.9473,230
11.9844,231
12.0216,233
12.0587,232
12.0959,250
12.1330,234
12.1702,240
12.2073,252
12.2445,226
12.2816,205
12.3188,209
12.3559,233
12.3931,245
12.4302,231
12.4674,190
12.5045,234
12.5417,204
12.5788,217
12.6160,200
12.6531,247
12.6903,196
12.7274,206
12.7646,217
12.8018,213
12.8389,238
12.8761,192
12.9132,220
12.9504,187
12.9875,193
13.0247,195
13.0618,204
13.0990,214
13.1361,209
13.1733,209
13.2104,208
13.2476,216
13.2847,187
13.3219,202
13.3590,203
13.3962,203
13.4333,198
13.4705,201
13.5076,184
13.5448,182
13.5819,187
13.6191,223
13.6562,209
13.6934,202
13.7305,214
13.7677,198
13.8048,180
13.8420,203
13.8791,177
13.9163,188
13.9534,168
13.9906,155
14.0277,167
14.0649,164
14.1020,184
14.1392,188
14.1763,206
14.2135,185
14.2506,171
14.2878,162
14.3250,167
14.3621,187
14.3993,194
14.4364,194
14.4736,212
14.5107,184
14.5479,176
14.5850,174
14.6222,168
14.6593,197
14.6965,178
14.7336,170
14.7708,173
14.8079,158
14.8451,162
14.8822,151
14.9194,160
14.9565,182
14.9937,172
15.0308,170
15.0680,151
15.1051,184
15.1423,199
15.1794,166
15.2166,156
15.2537,170
15.2909,174
15.3280,177
15.3652,168
15.4023,158
15.4395,158
15.4766,144
15.5138,178
15.5509,181
15.5881,165
15.6252,173
15.6624,160
15.6995,177
15.7367,187
15.7738,154
15.8110,175
15.8482,175
15.8853,161
15.9225,165
15.9596,164
15.9968,177
16.0339,167
16.0711,167
16.1082,154
16.1454,169
16.1825,182
16.2197,167
16.2568,164
16.2940,169
16.3311,167
16.3683,156
16.4054,146
16.4426,166
16.4797,167
16.5169,159
16.5540,154
16.5912,159
16.6283,187
16.6655,157
16.7026,148
16.7398,141
16.7769,173
16.8141,157
16.8512,173
16.8884,150
16.9255,177
16.9627,140
16.9998,150
17.0370,142
17.0741,168
17.1113,170
17.1484,168
17.1856,148
17.2227,176
17.2599,153
17.2970,169
17.3342,183
17.3713,167
17.4085,150
17.4457,167
17.4828,150
17.5200,171
17.5571,169
17.5943,172
17.6314,168
17.6686,162
17.7057,158
17.7429,139
17.7800,164
17.8172,171
17.8543,177
17.8915,153
17.9286,146
17.9658,196
18.0029,156
18.0401,166
18.0772,172
18.1144,185
18.1515,165
18.1887,173
18.2258,167
18.2630,146
18.3001,175
18.3373,181
18.3744,172
18.4116,166
18.4487,180
18.4859,163
18.5230,170
18.5602,159
18.5973,171
18.6345,148
18.6716,170
18.7088,181
18.7459,168
18.7831,178
18.8202,183
18.8574,178
18.8945,166
18.9317,161
18.9689,153
19.0060,162
19.0432,173
19.0803,164
19.1175,158
19.1546,197
19.1918,169
19.2289,185
19.2661,160
19.3032,170
19.3404,175
19.3775,185
19.4147,180
19.4518,171
19.4890,167
19.5261,154
19.5633,158
19.6004,181
19.6376,190
19.6747,181
19.7119,169
19.7490,175
19.7862,197
19.8233,179
19.8605,165
19.8976,194
19.9348,192
19.9719,167
20.0091,200
20.0462,189
20.0834,189
20.1205,186
20.1577,180
20.1948,177
20.2320,165
20.2691,176
20.3063,179
20.3434,149
20.3806,194
20.4177,190
20.4549,182
20.4921,181
20.5292,186
20.5664,207
20.6035,175
20.6407,184
20.6778,178
20.7150,167
20.7521,199
20.7893,180
20.8264,182
20.8636,191
20.9007,185
20.9379,192
20.9750,181
21.0122,215
21.0493,208
21.0865,207
21.1236,257
21.1608,219
21.1979,311
21.2351,337
21.2722,329
21.3094,321
21.3465,499
21.3837,446
21.4208,347
21.4580,251
21.4951,208
21.5323,215
21.5694,220
21.6066,219
21.6437,204
21.6809,190
21.7180,175
21.7552,203
21.7923,173
21.8295,189
21.8666,203
21.9038,198
21.9409,240
21.9781,193
22.0152,191
22.0524,166
22.0896,198
22.1267,206
22.1639,198
22.2010,191
22.2382,217
22.2753,194
22.3125,236
22.3496,210
22.3868,198
22.4239,197
22.4611,187
22.4982,210
22.5354,187
22.5725,184
22.6097,168
22.6468,194
22.6840,190
22.7211,194
22.7583,187
22.7954,200
22.8326,213
22.8697,184
22.9069,222
22.9440,202
22.9812,204
23.0183,209
23.0555,209
23.0926,218
23.1298,219
23.1669,209
23.2041,186
23.2412,201
23.2784,231
23.3155,217
23.3527,206
23.3898,205
23.4270,212
23.4641,214
23.5013,206
23.5384,195
23.5756,197
23.6128,202
23.6499,206
23.6871,201
23.7242,217
23.7614,200
23.7985,197
23.8357,186
23.8728,212
23.9100,186
23.9471,212
23.9843,204
24.0214,201
24.0586,203
24.0957,219
24.1329,219
24.1700,223
24.2072,221
24.2443,216
24.2815,251
24.3186,230
24.3558,235
24.3929,239
24.4301,217
24.4672,193
24.5044,219
24.5415,212
24.5787,219
24.6158,189
24.6530,172
24.6901,216
24.7273,200
24.7644,187
24.8016,222
24.8387,217
24.8759,224
24.9130,181
24.9502,172
24.9873,210
25.0245,211
25.0616,197
25.0988,209
25.1360,173
25.1731,165
25.2103,204
25.2474,207
25.2846,203
25.3217,171
25.3589,210
25.3960,197
25.4332,222
25.4703,199
25.5075,196
25.5446,169
25.5818,190
25.6189,198
25.6561,178
25.6932,179
25.7304,184
25.7675,178
25.8047,206
25.8418,171
25.8790,205
25.9161,201
25.9533,183
25.9904,194
26.0276,182
26.0647,210
26.1019,179
26.1390,190
26.1762,177
26.2133,209
26.2505,195
26.2876,214
26.3248,190
26.3619,189
26.3991,173
26.4362,200
26.4734,192
26.5105,181
26.5477,195
26.5848,185
26.6220,175
26.6591,194
26.6963,193
26.7335,216
26.7706,197
26.8078,184
26.8449,197
26.8821,208
26.9192,190
26.9564,161
26.9935,201
27.0307,182
27.0678,181
27.1050,174
27.1421,192
27.1793,225
27.2164,220
27.2536,227
27.2907,210
27.3279,203
27.3650,207
27.4022,184
27.4393,197
27.4765,190
27.5136,187
27.5508,178
27.5879,192
27.6251,168
27.6622,185
27.6994,169
27.7365,191
27.7737,177
27.8108,162
27.8480,185
27.8851,215
27.9223,189
27.9594,186
27.9966,173
28.0337,186
28.0709,167
28.1080,167
28.1452,189
28.1823,193
28.2195,162
28.2567,156
28.2938,149
28.3310,181
28.3681,163
28.4053,147
28.4424,170
28.4796,189
28.5167,198
28.5539,143
28.5910,176
28.6282,175
28.6653,174
28.7025,159
28.7396,182
28.7768,175
28.8139,170
28.8511,185
28.8882,151
28.9254,173
28.9625,172
28.9997,183
29.0368,154
29.0740,161
29.1111,168
29.1483,169
29.1854,187
29.2226,151
29.2597,178
29.2969,162
29.3340,141
29.3712,169
29.4083,163
29.4455,165
29.4826,170
29.5198,166
29.5569,167
29.5941,156
29.6312,158
29.6684,141
29.7055,155
29.7427,149
29.7799,173
29.8170,174
29.8542,167
29.8913,182
29.9285,161
29.9656,145
30.0028,147
30.0399,194
30.0771,144
30.1142,146
30.1514,153
30.1885,126
30.2257,158
30.2628,152
30.3000,183
30.3371,222
30.3743,332
30.4114,259
30.4486,250
30.4857,222
30.5229,195
30.5600,176
30.5972,157
30.6343,135
30.6715,146
30.7086,160
30.7458,144
30.7829,165
30.8201,140
30.8572,140
30.8944,139
30.9315,148
30.9687,153
31.0058,141
31.0430,155
31.0801,162
31.1173,154
31.1544,140
31.1916,137
31.2287,145
31.2659,123
31.3030,134
31.3402,145
31.3774,126
31.4145,130
31.4517,160
31.4888,135
31.5260,126
31.5631,152
31.6003,158
31.6374,120
31.6746,128
31.7117,141
31.7489,138
31.7860,129
31.8232,134
31.8603,133
31.8975,144
31.9346,162
31.9718,130
32.0089,114
32.0461,130
32.0832,135
32.1204,127
32.1575,142
32.1947,146
32.2318,106
32.2690,130
32.3061,120
32.3433,121
32.3804,150
32.4176,112
32.4547,152
32.4919,160
32.5290,127
32.5662,172
32.6033,142
32.6405,148
32.6776,124
32.7148,135
32.7519,143
32.7891,139
32.8262,123
32.8634,139
32.9006,134
32.9377,110
32.9749,132
33.0120,117
33.0492,152
33.0863,126
33.1235,105
33.1606,135
33.1978,119
33.2349,132
33.2721,116
33.3092,148
33.3464,118
33.3835,107
33.4207,118
33.4578,117
33.4950,113
33.5321,124
33.5693,132
33.6064,128
33.6436,117
33.6807,120
33.7179,117
33.7550,129
33.7922,127
33.8293,123
33.8665,117
33.9036,108
33.9408,124
33.9779,115
34.0151,127
34.0522,117
34.0894,137
34.1265,111
34.1637,117
34.2008,104
34.2380,107
34.2751,97
34.3123,105
34.3494,108
34.3866,110
34.4238,114
34.4609,110
34.4981,101
34.5352,123
34.5724,119
34.6095,129
34.6467,116
34.6838,140
34.7210,146
34.7581,154
34.7953,166
34.8324,145
34.8696,138
34.9067,139
34.9439,118
34.9810,96
35.0182,102
35.0553,112
35.0925,91
35.1296,114
35.1668,79
35.2039,122
35.2411,123
35.2782,104
35.3154,112
35.3525,108
35.3897,92
35.4268,109
35.4640,99
35.5011,104
35.5383,104
35.5754,107
35.6126,96
35.6497,101
35.6869,102
35.7240,102
35.7612,91
35.7983,108
35.8355,91
35.8726,91
35.9098,99
35.9469,113
35.9841,97
36.0213,102
36.0584,83
36.0956,108
36.1327,88
36.1699,85
36.2070,84
36.2442,102
36.2813,109
36.3185,99
36.3556,103
36.3928,95
36.4299,86
36.4671,101
36.5042,100
36.5414,92
36.5785,79
36.6157,91
36.6528,92
36.6900,95
36.7271,83
36.7643,95
36.8014,80
36.8386,75
36.8757,88
36.9129,85
36.9500,82
36.9872,94
37.0243,85
37.0615,82
37.0986,92
37.1358,78
37.1729,96
37.2101,88
37.2472,85
37.2844,110
37.3215,77
37.3587,89
37.3958,106
37.4330,145
37.4701,124
37.5073,114
37.5445,124
37.5816,92
37.6188,84
37.6559,108
37.6931,81
37.7302,121
37.7674,97
37.8045,82
37.8417,104
37.8788,82
37.9160,89
37.9531,66
37.9903,68
38.0274,98
38.0646,85
38.1017,105
38.1389,82
38.1760,89
38.2132,89
38.2503,90
38.2875,90
38.3246,95
38.3618,85
38.3989,86
38.4361,100
38.4732,87
38.5104,97
38.5475,77
38.5847,80
38.6218,79
38.6590,63
38.6961,91
38.7333,80
38.7704,102
38.8076,78
38.8447,81
38.8819,95
38.9190,87
38.9562,95
38.9933,90
39.0305,80
39.0677,85
39.1048,95
39.1420,75
39.1791,79
39.2163,91
39.2534,84
39.2906,94
39.3277,73
39.3649,89
39.4020,78
39.4392,74
39.4763,83
39.5135,87
39.5506,90
39.5878,70
39.6249,75
39.6621,101
39.6992,73
39.7364,63
39.7735,74
39.8107,78
39.8478,79
39.8850,75
39.9221,100
39.9593,84
39.9964,73
40.0336,76
40.0707,88
40.1079,89
40.1450,72
40.1822,79
40.2193,72
40.2565,82
40.2936,60
40.3308,80
40.3679,76
40.4051,75
40.4422,81
40.4794,79
40.5165,69
40.5537,76
40.5908,75
40.6280,79
40.6652,78
40.7023,82
40.7395,75
40.7766,76
40.8138,81
40.8509,69
40.8881,79
40.9252,77
40.9624,95
40.9995,84
41.0367,78
41.0738,91
41.1110,82
41.1481,89
41.1853,79
41.2224,93
41.2596,66
41.2967,59
41.3339,77
41.3710,78
41.4082,88
41.4453,65
41.4825,65
41.5196,72
41.5568,77
41.5939,82
41.6311,84
41.6682,60
41.7054,68
41.7425,75
41.7797,70
41.8168,87
41.8540,66
41.8911,69
41.9283,84
41.9654,89
42.0026,82
42.0397,81
42.0769,64
42.1140,92
42.1512,74
42.1884,78
42.2255,88
42.2627,79
42.2998,82
42.3370,93
42.3741,91
42.4113,80
42.4484,69
42.4856,69
42.5227,74
42.5599,70
42.5970,89
42.6342,93
42.6713,63
42.7085,81
42.7456,75
42.7828,68
42.8199,60
42.8571,87
42.8942,70
42.9314,62
42.9685,80
43.0057,71
43.0428,71
43.0800,82
43.1171,74
43.1543,64
43.1914,90
43.2286,86
43.2657,97
43.3029,68
43.3400,89
43.3772,84
43.4143,90
43.4515,88
43.4886,126
43.5258,133
43.5629,85
43.6001,101
43.6372,104
43.6744,82
43.7116,74
43.7487,87
43.7859,89
43.8230,72
43.8602,72
43.8973,57
43.9345,87
43.9716,78
44.0088,68
44.0459,84
44.0831,76
44.1202,65
44.1574,62
44.1945,58
44.2317,63
44.2688,68
44.3060,75
44.3431,82
44.3803,92
44.4174,88
44.4546,77
44.4917,86
44.5289,89
44.5660,75
44.6032,73
44.6403,80
44.6775,79
44.7146,85
44.7518,70
44.7889,74
44.8261,72
44.8632,78
44.9004,79
44.9375,61
44.9747,92
45.0118,78
45.0490,82
45.0861,66
45.1233,81
45.1604,63
45.1976,69
45.2347,76
45.2719,68
45.3091,74
45.3462,77
45.3834,59
45.4205,74
45.4577,64
45.4948,75
45.5320,59
45.5691,56
45.6063,71
45.6434,68
45.6806,56
45.7177,48
45.7549,84
45.7920,73
45.8292,71
45.8663,60
45.9035,61
45.9406,81
45.9778,56
46.0149,70
46.0521,80
46.0892,66
46.1264,71
46.1635,71
46.2007,59
46.2378,54
46.2750,59
46.3121,67
46.3493,76
46.3864,65
46.4236,70
46.4607,68
46.4979,69
46.5350,76
46.5722,60
46.6093,69
46.6465,69
46.6836,55
46.7208,62
46.7579,64
46.7951,77
46.8323,77
46.8694,78
46.9066,51
46.9437,64
46.9809,78
47.0180,59
47.0552,47
47.0923,73
47.1295,48
47.1666,69
47.2038,54
47.2409,71
47.2781,51
47.3152,59
47.3524,63
47.3895,57
47.4267,74
47.4638,76
47.5010,74
47.5381,62
47.5753,63
47.6124,75
47.6496,60
47.6867,63
47.7239,59
47.7610,62
47.7982,66
47.8353,63
47.8725,62
47.9096,61
47.9468,56
47.9839,58
48.0211,65
48.0582,75
48.0954,60
48.1325,64
48.1697,58
48.2068,68
48.2440,62
48.2811,76
48.3183,67
48.3555,68
48.3926,63
48.4298,61
48.4669,54
48.5041,55
48.5412,58
48.5784,60
48.6155,71
48.6527,54
48.6898,67
48.7270,69
48.7641,63
48.8013,76
48.8384,75
48.8756,87
48.9127,75
48.9499,131
48.9870,106
49.0242,61
49.0613,80
49.0985,105
49.1356,87
49.1728,76
49.2099,69
49.2471,71
49.2842,56
49.3214,67
49.3585,75
49.3957,57
49.4328,82
49.4700,79
49.5071,71
49.5443,58
49.5814,49
49.6186,61
49.6557,60
49.6929,81
49.7300,52
49.7672,50
49.8043,58
49.8415,67
49.8786,69
49.9158,63
49.9530,68
49.9901,67
50.0273,61
50.0644,42
50.1016,63
50.1387,66
50.1759,69
50.2130,66
50.2502,60
50.2873,55
50.3245,65
50.3616,62
50.3988,62
50.4359,60
50.4731,53
50.5102,65
50.5474,53
50.5845,63
50.6217,65
50.6588,61
50.6960,55
50.7331,52
50.7703,66
50.8074,63
50.8446,55
50.8817,62
50.9189,64
50.9560,62
50.9932,66
51.0303,61
51.0675,46
51.1046,65
51.1418,79
51.1789,61
51.2161,60
51.2532,81
51.2904,62
51.3275,74
51.3647,66
51.4018,74
51.4390,63
51.4762,65
51.5133,73
51.5505,74
51.5876,53
51.6248,75
51.6619,61
51.6991,54
51.7362,71
51.7734,65
51.8105,67
51.8477,66
51.8848,66
51.9220,76
51.9591,75
51.9963,71
52.0334,65
52.0706,52
52.1077,60
52.1449,54
52.1820,62
52.2192,74
52.2563,63
52.2935,54
52.3306,58
52.3678,49
52.4049,47
52.4421,58
52.4792,59
52.5164,51
52.5535,56
52.5907,68
52.6278,60
52.6650,62
52.7021,54
52.7393,46
52.7764,56
52.8136,52
52.8507,72
52.8879,64
52.9250,69
52.9622,64
52.9994,57
53.0365,75
53.0737,45
53.1108,56
53.1480,65
53.1851,66
53.2223,75
53.2594,51
53.2966,55
53.3337,58
53.3709,63
53.4080,57
53.4452,55
53.4823,65
53.5195,66
53.5566,71
53.5938,54
53.6309,59
53.6681,63
53.7052,60
53.7424,51
53.7795,67
53.8167,60
53.8538,70
53.8910,62
53.9281,65
53.9653,73
54.0024,91
54.0396,66
54.0767,70
54.1139,70
54.1510,63
54.1882,69
54.2253,59
54.2625,58
54.2996,54
54.3368,60
54.3739,70
54.4111,55
54.4482,48
54.4854,53
54.5225,43
54.5597,71
54.5969,64
54.6340,60
54.6712,54
54.7083,63
54.7455,57
54.7826,72
54.8198,71
54.8569,49
54.8941,43
54.9312,62
54.9684,65
55.0055,78
55.0427,59
55.0798,54
55.1170,53
55.1541,54
55.1913,50
55.2284,56
55.2656,51
55.3027,63
55.3399,46
55.3770,60
55.4142,68
55.4513,48
55.4885,69
55.5256,46
55.5628,48
55.5999,52
55.6371,59
55.6742,65
55.7114,62
55.7485,50
55.7857,50
55.8228,43
55.8600,58
55.8971,61
55.9343,50
55.9714,46
56.0086,66
56.0457,55
56.0829,58
56.1201,62
56.1572,43
56.1944,68
56.2315,68
56.2687,62
56.3058,81
56.3430,53
56.3801,66
56.4173,63
56.4544,52
56.4916,77
56.5287,65
56.5659,52
56.6030,67
56.6402,48
56.6773,60
56.7145,48
56.7516,44
56.7888,53
56.8259,64
56.8631,57
56.9002,64
56.9374,63
56.9745,59
57.0117,53
57.0488,46
57.0860,52
57.1231,52
57.1603,58
57.1974,54
57.2346,78
57.2717,52
57.3089,54
57.3460,74
57.3832,49
57.4203,68
57.4575,61
57.4946,60
57.5318,59
57.5689,73
57.6061,53
57.6433,57
57.6804,61
57.7176,58
57.7547,41
57.7919,53
57.8290,61
57.8662,56
57.9033,55
57.9405,57
57.9776,42
58.0148,51
58.0519,60
58.0891,43
58.1262,52
58.1634,47
58.2005,66
58.2377,62
58.2748,49
58.3120,60
58.3491,49
58.3863,53
58.4234,63
58.4606,61
58.4977,49
58.5349,54
58.5720,56
58.6092,59
58.6463,49
58.6835,62
58.7206,68
58.7578,53
58.7949,57
58.8321,53
58.8692,70
58.9064,59
58.9435,71
58.9807,55
59.0178,61
59.0550,49
59.0921,60
59.1293,45
59.1664,67
59.2036,56
59.2408,57
59.2779,55
59.3151,37
59.3522,51
59.3894,74
59.4265,66
59.4637,64
59.5008,51
59.5380,38
59.5751,58
59.6123,42
59.6494,52
59.6866,57
59.7237,63
59.7609,53
59.7980,59
59.8352,55
59.8723,60
59.9095,59
59.9466,53
59.9838,49
60.0024,45