File: notebooks/data/xrd_data/ML_20220718_58_SJD_4_LaB6-2min.uxd
; (content of file Y:\Sam\Apurva-07-20-2022\puck4\ML_20220718_58_SJD_4_LaB6-2min.raw)
_FILEVERSION = 3
_SAMPLE = ML_20220718_58_SJD_4_LaB6-2min
_+SAMPLE =
_SITE = USA
_USER = Administrator
_GONIOMETER_CODE = 20
; Goniometer : D8 theta/2theta, stage : Unknown
_ATTACHMENTS_CODE = 0
_GONIOMETER_RADIUS = 200.5
_FIXED_DIVSLIT = 0.6
_FIXED_SAMPLESLIT = 0
_SOLLER_SLITS = 2
_FIXED_DETSLIT = 9.55
_MONOCHROMATOR = 0
; Incident beam monochromator : None
_SOLLER_SLITS_2 = N
_THIN_FILM = N
_BETA_FILTER = Y
_FIXED_ANTISLIT = 5.89
_ANALYZER_CODE = 0
; Received beam analyzer : None
_DATEMEASURED = "26-Jul-2022 12:46:46"
_WL_UNIT = A
_WL1 = 1.5406
_WL2 = 1.54439
_WL3 = 1.39222
_WLRATIO = 0.5
_ANODE = Cu
_V4_INF_CREATOR = XRDWizard
_V4_INF_CREATOR_VERSION = V2.9.0.22
_V4_INF_WIZARD_VERSION = V2.9.0.22
_V4_INF_WIZARD_ADDINS = V2.9.0.22
_V4_INF_WIZARD_DOCTYPE = XRD
_V4_INF_OSUSER = McQueenLab
_V4_INF_USER = Administrator
_V4_INF_SITE = USA
_V4_INF_SAMPLEID = ML_20220718_58_SJD_4_LaB6-2min

; Data for range 1
_DRIVE = COUPLED
_STEPTIME = 5.64
_STEPSIZE = 0.0185756
_STEPMODE = C
_START = 5
_THETA = 2.5
_2THETA = 5
_KHI = 0
_PHI = 0
_X = 0
_Y = 0
_Z = 0
_DETECTOR = 5
; Detector type : Unknown
_DETECTORSLIT = unkn
_AUX1 = 0
_AUX2 = 0
_AUX3 = 0
_TIMESTARTED = 14
_TEMP_RATE = -1
_TEMP_DELAY = -1
_KV = 40
_MA = 40
_RANGE_WL = 1.5406
_3DPLANE = 0
_V4_ADDITIONALDETECTOR = 257
_V4_PSD2THETA = 3.4183
_V4_PSDCHANNEL1 = 0
_V4_PSDAPERTURE = 12.68
_V4_PSDTYPE = 5
_V4_PSDFIXED = 0
_V4_COUNTERS_MASK = 4096
_V4_DRIVES_MASK = 0
_V4_ENCODERS_MASK = 0
_2THETACOUNTS = 1
; 2THETA  PSD
   5.0000        114
   5.0372        128
   5.0743        117
   5.1115        131
   5.1486        115
   5.1858        126
   5.2229        143
   5.2601        101
   5.2972        144
   5.3344        106
   5.3715        118
   5.4087        118
   5.4458        108
   5.4830        112
   5.5201        122
   5.5573        111
   5.5944        103
   5.6316        121
   5.6687        113
   5.7059        105
   5.7430        104
   5.7802        106
   5.8173        100
   5.8545        108
   5.8916         89
   5.9288         86
   5.9659        102
   6.0031         95
   6.0402         92
   6.0774         83
   6.1145         90
   6.1517         89
   6.1888         95
   6.2260        108
   6.2631        101
   6.3003         95
   6.3374        106
   6.3746         80
   6.4117         82
   6.4489         81
   6.4860         82
   6.5232         92
   6.5604         91
   6.5975         68
   6.6347         88
   6.6718         83
   6.7090        102
   6.7461        105
   6.7833         86
   6.8204         90
   6.8576         76
   6.8947         97
   6.9319         82
   6.9690         79
   7.0062         71
   7.0433         85
   7.0805         82
   7.1176         73
   7.1548         90
   7.1919         71
   7.2291         77
   7.2662         88
   7.3034         68
   7.3405         69
   7.3777         69
   7.4148         86
   7.4520         92
   7.4891         67
   7.5263         79
   7.5634         85
   7.6006         77
   7.6377         89
   7.6749         87
   7.7120         74
   7.7492         96
   7.7863         87
   7.8235         76
   7.8606         90
   7.8978         77
   7.9349         93
   7.9721         78
   8.0092         84
   8.0464         98
   8.0835         91
   8.1207         78
   8.1579         91
   8.1950         79
   8.2322         97
   8.2693         78
   8.3065        103
   8.3436         94
   8.3808         86
   8.4179        110
   8.4551        100
   8.4922         84
   8.5294         75
   8.5665         80
   8.6037         97
   8.6408         98
   8.6780        101
   8.7151         97
   8.7523        103
   8.7894        105
   8.8266        117
   8.8637        101
   8.9009        100
   8.9380        109
   8.9752        106
   9.0123         92
   9.0495        111
   9.0866        107
   9.1238        117
   9.1609        113
   9.1981        104
   9.2352        114
   9.2724        104
   9.3095        115
   9.3467        106
   9.3838        108
   9.4210         99
   9.4581        119
   9.4953         87
   9.5324        116
   9.5696         91
   9.6067        106
   9.6439        101
   9.6811        109
   9.7182        103
   9.7554        104
   9.7925        113
   9.8297        118
   9.8668        107
   9.9040        118
   9.9411         93
   9.9783        122
  10.0154        123
  10.0526        121
  10.0897        137
  10.1269        112
  10.1640        100
  10.2012        108
  10.2383        120
  10.2755        115
  10.3126        108
  10.3498        111
  10.3869        126
  10.4241        111
  10.4612        112
  10.4984        111
  10.5355        113
  10.5727        126
  10.6098        109
  10.6470        103
  10.6841        115
  10.7213        133
  10.7584        118
  10.7956        111
  10.8327        119
  10.8699        115
  10.9070        111
  10.9442        123
  10.9813        118
  11.0185        110
  11.0556        106
  11.0928        113
  11.1299        113
  11.1671        111
  11.2043        101
  11.2414        104
  11.2786        123
  11.3157        118
  11.3529        122
  11.3900        129
  11.4272        113
  11.4643        119
  11.5015        111
  11.5386        136
  11.5758        119
  11.6129        115
  11.6501        115
  11.6872        103
  11.7244        106
  11.7615        107
  11.7987        118
  11.8358        100
  11.8730        113
  11.9101        119
  11.9473        113
  11.9844        111
  12.0216        117
  12.0587        110
  12.0959         95
  12.1330        109
  12.1702        108
  12.2073        112
  12.2445         85
  12.2816        135
  12.3188        113
  12.3559        105
  12.3931        111
  12.4302        107
  12.4674        104
  12.5045        132
  12.5417         99
  12.5788         93
  12.6160        116
  12.6531        108
  12.6903        109
  12.7274         97
  12.7646        108
  12.8018         95
  12.8389        110
  12.8761        123
  12.9132         95
  12.9504         94
  12.9875        118
  13.0247        127
  13.0618         87
  13.0990        107
  13.1361         97
  13.1733        113
  13.2104         99
  13.2476         95
  13.2847         93
  13.3219        102
  13.3590         70
  13.3962         93
  13.4333        105
  13.4705         84
  13.5076         91
  13.5448         87
  13.5819         93
  13.6191         83
  13.6562        102
  13.6934         91
  13.7305         84
  13.7677         96
  13.8048         92
  13.8420         87
  13.8791         96
  13.9163         94
  13.9534         93
  13.9906         92
  14.0277         88
  14.0649         85
  14.1020         89
  14.1392         80
  14.1763         92
  14.2135         90
  14.2506         77
  14.2878         78
  14.3250         87
  14.3621         92
  14.3993         87
  14.4364         93
  14.4736         91
  14.5107         75
  14.5479         90
  14.5850         89
  14.6222         83
  14.6593        100
  14.6965         91
  14.7336         86
  14.7708         71
  14.8079        106
  14.8451         64
  14.8822         90
  14.9194         94
  14.9565        106
  14.9937         82
  15.0308         81
  15.0680         68
  15.1051         84
  15.1423         68
  15.1794         75
  15.2166         82
  15.2537         74
  15.2909         98
  15.3280         83
  15.3652         72
  15.4023         66
  15.4395         79
  15.4766         88
  15.5138         75
  15.5509         86
  15.5881         80
  15.6252         69
  15.6624         73
  15.6995         77
  15.7367         77
  15.7738         66
  15.8110         92
  15.8482         62
  15.8853         86
  15.9225         89
  15.9596         76
  15.9968         77
  16.0339         72
  16.0711         84
  16.1082         75
  16.1454         62
  16.1825         78
  16.2197         79
  16.2568         85
  16.2940        101
  16.3311        108
  16.3683         98
  16.4054         88
  16.4426         69
  16.4797         84
  16.5169         81
  16.5540         66
  16.5912         89
  16.6283         82
  16.6655         73
  16.7026         84
  16.7398         89
  16.7769         79
  16.8141         81
  16.8512         69
  16.8884         80
  16.9255         97
  16.9627         71
  16.9998         94
  17.0370         79
  17.0741         78
  17.1113         77
  17.1484         76
  17.1856         72
  17.2227         85
  17.2599         87
  17.2970         74
  17.3342         88
  17.3713         88
  17.4085         89
  17.4457         73
  17.4828         75
  17.5200         84
  17.5571         70
  17.5943         80
  17.6314         85
  17.6686         58
  17.7057         83
  17.7429         79
  17.7800         82
  17.8172         93
  17.8543         71
  17.8915         86
  17.9286         75
  17.9658         91
  18.0029         80
  18.0401         85
  18.0772         91
  18.1144         82
  18.1515         74
  18.1887         91
  18.2258         83
  18.2630         71
  18.3001         74
  18.3373         86
  18.3744         92
  18.4116         83
  18.4487         76
  18.4859         71
  18.5230         90
  18.5602         74
  18.5973         96
  18.6345         83
  18.6716         81
  18.7088         82
  18.7459         85
  18.7831         79
  18.8202         76
  18.8574         94
  18.8945        101
  18.9317        100
  18.9689         88
  19.0060         78
  19.0432         83
  19.0803         85
  19.1175         73
  19.1546         83
  19.1918         79
  19.2289         91
  19.2661         85
  19.3032         83
  19.3404         68
  19.3775         75
  19.4147         81
  19.4518         84
  19.4890         75
  19.5261         77
  19.5633         99
  19.6004         96
  19.6376         88
  19.6747         74
  19.7119        109
  19.7490         96
  19.7862         96
  19.8233         86
  19.8605         69
  19.8976         94
  19.9348         71
  19.9719         75
  20.0091         82
  20.0462         84
  20.0834         78
  20.1205        101
  20.1577         82
  20.1948         88
  20.2320         89
  20.2691        101
  20.3063         90
  20.3434         89
  20.3806        101
  20.4177         82
  20.4549         95
  20.4921        100
  20.5292         99
  20.5664         82
  20.6035         74
  20.6407         92
  20.6778         92
  20.7150         79
  20.7521         97
  20.7893        102
  20.8264         92
  20.8636         90
  20.9007         93
  20.9379         92
  20.9750        105
  21.0122        105
  21.0493         90
  21.0865         95
  21.1236         95
  21.1608        110
  21.1979        151
  21.2351        153
  21.2722        145
  21.3094        154
  21.3465        241
  21.3837        221
  21.4208        152
  21.4580        115
  21.4951        112
  21.5323         99
  21.5694         99
  21.6066         97
  21.6437        103
  21.6809        117
  21.7180         97
  21.7552         95
  21.7923         99
  21.8295        119
  21.8666         81
  21.9038         89
  21.9409         87
  21.9781         99
  22.0152        112
  22.0524         88
  22.0896         94
  22.1267         99
  22.1639         93
  22.2010         84
  22.2382         84
  22.2753         89
  22.3125         79
  22.3496         98
  22.3868        106
  22.4239        102
  22.4611         93
  22.4982         88
  22.5354        106
  22.5725        104
  22.6097        100
  22.6468         89
  22.6840        105
  22.7211         98
  22.7583         96
  22.7954        100
  22.8326         79
  22.8697        100
  22.9069         86
  22.9440         96
  22.9812        100
  23.0183        104
  23.0555         95
  23.0926        108
  23.1298        110
  23.1669         81
  23.2041         92
  23.2412        104
  23.2784         89
  23.3155        114
  23.3527         98
  23.3898         91
  23.4270         96
  23.4641         86
  23.5013        128
  23.5384        103
  23.5756         85
  23.6128         97
  23.6499         86
  23.6871        121
  23.7242         87
  23.7614         76
  23.7985        105
  23.8357        104
  23.8728         92
  23.9100        107
  23.9471        108
  23.9843         99
  24.0214        100
  24.0586        100
  24.0957        105
  24.1329         99
  24.1700         93
  24.2072        112
  24.2443        135
  24.2815        122
  24.3186        110
  24.3558        110
  24.3929        115
  24.4301        105
  24.4672         89
  24.5044         82
  24.5415        101
  24.5787        101
  24.6158        129
  24.6530         98
  24.6901         94
  24.7273        103
  24.7644         96
  24.8016        124
  24.8387         98
  24.8759         99
  24.9130         88
  24.9502         85
  24.9873         91
  25.0245         98
  25.0616         82
  25.0988         84
  25.1360         96
  25.1731         94
  25.2103        109
  25.2474         79
  25.2846         81
  25.3217         94
  25.3589         74
  25.3960         69
  25.4332         99
  25.4703         93
  25.5075        114
  25.5446        108
  25.5818        100
  25.6189        117
  25.6561         88
  25.6932         97
  25.7304         84
  25.7675        104
  25.8047         99
  25.8418         94
  25.8790         83
  25.9161         79
  25.9533         92
  25.9904         83
  26.0276        100
  26.0647         93
  26.1019         82
  26.1390         96
  26.1762         83
  26.2133         97
  26.2505        110
  26.2876         97
  26.3248         84
  26.3619         89
  26.3991         90
  26.4362         92
  26.4734         89
  26.5105         93
  26.5477         99
  26.5848         93
  26.6220         92
  26.6591         88
  26.6963         93
  26.7335         91
  26.7706        109
  26.8078         91
  26.8449         84
  26.8821         81
  26.9192        101
  26.9564         90
  26.9935         91
  27.0307        106
  27.0678         79
  27.1050         98
  27.1421         95
  27.1793        115
  27.2164         89
  27.2536        111
  27.2907        109
  27.3279         92
  27.3650         98
  27.4022         95
  27.4393         97
  27.4765         95
  27.5136         95
  27.5508         75
  27.5879         82
  27.6251         84
  27.6622         82
  27.6994         91
  27.7365         82
  27.7737         98
  27.8108         96
  27.8480         76
  27.8851         87
  27.9223         79
  27.9594         77
  27.9966         96
  28.0337         81
  28.0709         84
  28.1080         88
  28.1452         85
  28.1823         84
  28.2195         97
  28.2567         81
  28.2938         84
  28.3310         81
  28.3681         71
  28.4053         95
  28.4424         79
  28.4796         57
  28.5167         71
  28.5539         80
  28.5910         74
  28.6282         79
  28.6653         86
  28.7025         97
  28.7396         72
  28.7768         81
  28.8139         84
  28.8511         80
  28.8882         85
  28.9254         79
  28.9625         83
  28.9997         72
  29.0368         77
  29.0740         81
  29.1111         91
  29.1483         85
  29.1854         79
  29.2226         75
  29.2597         73
  29.2969         75
  29.3340         78
  29.3712         80
  29.4083         74
  29.4455         72
  29.4826         86
  29.5198         76
  29.5569         96
  29.5941         64
  29.6312         80
  29.6684         85
  29.7055         84
  29.7427         84
  29.7799         88
  29.8170         71
  29.8542         79
  29.8913         84
  29.9285         86
  29.9656         78
  30.0028         75
  30.0399         93
  30.0771         74
  30.1142         73
  30.1514         80
  30.1885         79
  30.2257         88
  30.2628         95
  30.3000         79
  30.3371        104
  30.3743        189
  30.4114        125
  30.4486         95
  30.4857        108
  30.5229         76
  30.5600         85
  30.5972         71
  30.6343         84
  30.6715         82
  30.7086         79
  30.7458         86
  30.7829         61
  30.8201         78
  30.8572         68
  30.8944         63
  30.9315         81
  30.9687         74
  31.0058         66
  31.0430         62
  31.0801         84
  31.1173         63
  31.1544         59
  31.1916         74
  31.2287         70
  31.2659         65
  31.3030         69
  31.3402         64
  31.3774         66
  31.4145         75
  31.4517         77
  31.4888         85
  31.5260         64
  31.5631         82
  31.6003         65
  31.6374         70
  31.6746         73
  31.7117         68
  31.7489         58
  31.7860         48
  31.8232         60
  31.8603         68
  31.8975         61
  31.9346         57
  31.9718         72
  32.0089         58
  32.0461         70
  32.0832         66
  32.1204         62
  32.1575         71
  32.1947         77
  32.2318         68
  32.2690         73
  32.3061         73
  32.3433         81
  32.3804         65
  32.4176         62
  32.4547         70
  32.4919         64
  32.5290         74
  32.5662         66
  32.6033         69
  32.6405         71
  32.6776         73
  32.7148         58
  32.7519         62
  32.7891         53
  32.8262         46
  32.8634         60
  32.9006         52
  32.9377         56
  32.9749         65
  33.0120         64
  33.0492         54
  33.0863         58
  33.1235         70
  33.1606         71
  33.1978         52
  33.2349         61
  33.2721         58
  33.3092         60
  33.3464         65
  33.3835         57
  33.4207         56
  33.4578         68
  33.4950         54
  33.5321         51
  33.5693         57
  33.6064         55
  33.6436         48
  33.6807         52
  33.7179         70
  33.7550         54
  33.7922         59
  33.8293         62
  33.8665         60
  33.9036         58
  33.9408         53
  33.9779         60
  34.0151         51
  34.0522         53
  34.0894         57
  34.1265         50
  34.1637         52
  34.2008         49
  34.2380         57
  34.2751         65
  34.3123         54
  34.3494         55
  34.3866         52
  34.4238         67
  34.4609         64
  34.4981         61
  34.5352         54
  34.5724         57
  34.6095         54
  34.6467         68
  34.6838         69
  34.7210         76
  34.7581         75
  34.7953         81
  34.8324         64
  34.8696         51
  34.9067         61
  34.9439         47
  34.9810         46
  35.0182         53
  35.0553         62
  35.0925         45
  35.1296         43
  35.1668         41
  35.2039         50
  35.2411         53
  35.2782         41
  35.3154         49
  35.3525         46
  35.3897         49
  35.4268         47
  35.4640         35
  35.5011         48
  35.5383         54
  35.5754         40
  35.6126         53
  35.6497         51
  35.6869         53
  35.7240         48
  35.7612         53
  35.7983         42
  35.8355         49
  35.8726         34
  35.9098         37
  35.9469         55
  35.9841         58
  36.0213         48
  36.0584         50
  36.0956         57
  36.1327         50
  36.1699         48
  36.2070         46
  36.2442         38
  36.2813         43
  36.3185         40
  36.3556         51
  36.3928         55
  36.4299         36
  36.4671         49
  36.5042         48
  36.5414         43
  36.5785         59
  36.6157         40
  36.6528         39
  36.6900         58
  36.7271         47
  36.7643         44
  36.8014         40
  36.8386         32
  36.8757         45
  36.9129         32
  36.9500         33
  36.9872         48
  37.0243         36
  37.0615         41
  37.0986         39
  37.1358         45
  37.1729         44
  37.2101         51
  37.2472         53
  37.2844         52
  37.3215         37
  37.3587         57
  37.3958         73
  37.4330         70
  37.4701         56
  37.5073         53
  37.5445         51
  37.5816         62
  37.6188         37
  37.6559         40
  37.6931         41
  37.7302         41
  37.7674         38
  37.8045         52
  37.8417         41
  37.8788         44
  37.9160         41
  37.9531         42
  37.9903         50
  38.0274         38
  38.0646         51
  38.1017         36
  38.1389         35
  38.1760         40
  38.2132         42
  38.2503         41
  38.2875         34
  38.3246         38
  38.3618         41
  38.3989         31
  38.4361         55
  38.4732         47
  38.5104         21
  38.5475         30
  38.5847         35
  38.6218         38
  38.6590         36
  38.6961         43
  38.7333         39
  38.7704         42
  38.8076         49
  38.8447         40
  38.8819         54
  38.9190         66
  38.9562         41
  38.9933         32
  39.0305         38
  39.0677         43
  39.1048         34
  39.1420         39
  39.1791         41
  39.2163         40
  39.2534         38
  39.2906         31
  39.3277         43
  39.3649         40
  39.4020         41
  39.4392         37
  39.4763         32
  39.5135         40
  39.5506         42
  39.5878         42
  39.6249         41
  39.6621         49
  39.6992         30
  39.7364         42
  39.7735         40
  39.8107         28
  39.8478         44
  39.8850         36
  39.9221         43
  39.9593         31
  39.9964         30
  40.0336         34
  40.0707         47
  40.1079         44
  40.1450         41
  40.1822         35
  40.2193         35
  40.2565         28
  40.2936         45
  40.3308         48
  40.3679         38
  40.4051         32
  40.4422         37
  40.4794         46
  40.5165         28
  40.5537         27
  40.5908         37
  40.6280         37
  40.6652         40
  40.7023         31
  40.7395         37
  40.7766         35
  40.8138         46
  40.8509         35
  40.8881         45
  40.9252         42
  40.9624         30
  40.9995         36
  41.0367         40
  41.0738         43
  41.1110         44
  41.1481         44
  41.1853         48
  41.2224         41
  41.2596         35
  41.2967         33
  41.3339         44
  41.3710         33
  41.4082         42
  41.4453         39
  41.4825         41
  41.5196         33
  41.5568         33
  41.5939         46
  41.6311         50
  41.6682         29
  41.7054         34
  41.7425         41
  41.7797         27
  41.8168         25
  41.8540         32
  41.8911         44
  41.9283         29
  41.9654         33
  42.0026         42
  42.0397         28
  42.0769         28
  42.1140         34
  42.1512         35
  42.1884         35
  42.2255         50
  42.2627         37
  42.2998         32
  42.3370         38
  42.3741         41
  42.4113         40
  42.4484         36
  42.4856         41
  42.5227         36
  42.5599         38
  42.5970         31
  42.6342         30
  42.6713         33
  42.7085         38
  42.7456         46
  42.7828         32
  42.8199         32
  42.8571         38
  42.8942         37
  42.9314         36
  42.9685         35
  43.0057         35
  43.0428         40
  43.0800         40
  43.1171         33
  43.1543         37
  43.1914         39
  43.2286         38
  43.2657         43
  43.3029         45
  43.3400         34
  43.3772         35
  43.4143         46
  43.4515         38
  43.4886         58
  43.5258         50
  43.5629         38
  43.6001         41
  43.6372         44
  43.6744         49
  43.7116         30
  43.7487         42
  43.7859         46
  43.8230         30
  43.8602         39
  43.8973         23
  43.9345         26
  43.9716         31
  44.0088         41
  44.0459         42
  44.0831         43
  44.1202         31
  44.1574         33
  44.1945         34
  44.2317         30
  44.2688         34
  44.3060         33
  44.3431         41
  44.3803         32
  44.4174         45
  44.4546         40
  44.4917         47
  44.5289         36
  44.5660         31
  44.6032         36
  44.6403         35
  44.6775         41
  44.7146         39
  44.7518         39
  44.7889         40
  44.8261         27
  44.8632         27
  44.9004         43
  44.9375         26
  44.9747         31
  45.0118         28
  45.0490         47
  45.0861         27
  45.1233         28
  45.1604         34
  45.1976         42
  45.2347         49
  45.2719         33
  45.3091         27
  45.3462         35
  45.3834         42
  45.4205         30
  45.4577         37
  45.4948         35
  45.5320         44
  45.5691         33
  45.6063         28
  45.6434         34
  45.6806         34
  45.7177         27
  45.7549         44
  45.7920         28
  45.8292         32
  45.8663         36
  45.9035         42
  45.9406         33
  45.9778         32
  46.0149         24
  46.0521         28
  46.0892         36
  46.1264         41
  46.1635         42
  46.2007         32
  46.2378         44
  46.2750         29
  46.3121         26
  46.3493         35
  46.3864         31
  46.4236         20
  46.4607         33
  46.4979         29
  46.5350         21
  46.5722         32
  46.6093         28
  46.6465         38
  46.6836         36
  46.7208         30
  46.7579         36
  46.7951         33
  46.8323         24
  46.8694         25
  46.9066         45
  46.9437         32
  46.9809         30
  47.0180         29
  47.0552         27
  47.0923         34
  47.1295         32
  47.1666         29
  47.2038         29
  47.2409         36
  47.2781         29
  47.3152         31
  47.3524         36
  47.3895         39
  47.4267         21
  47.4638         33
  47.5010         33
  47.5381         29
  47.5753         29
  47.6124         35
  47.6496         28
  47.6867         36
  47.7239         29
  47.7610         25
  47.7982         42
  47.8353         27
  47.8725         32
  47.9096         35
  47.9468         36
  47.9839         42
  48.0211         29
  48.0582         32
  48.0954         26
  48.1325         33
  48.1697         36
  48.2068         33
  48.2440         27
  48.2811         28
  48.3183         26
  48.3555         31
  48.3926         41
  48.4298         38
  48.4669         24
  48.5041         34
  48.5412         32
  48.5784         35
  48.6155         36
  48.6527         32
  48.6898         29
  48.7270         34
  48.7641         36
  48.8013         28
  48.8384         37
  48.8756         35
  48.9127         58
  48.9499         54
  48.9870         52
  49.0242         35
  49.0613         35
  49.0985         51
  49.1356         27
  49.1728         24
  49.2099         23
  49.2471         27
  49.2842         31
  49.3214         24
  49.3585         26
  49.3957         34
  49.4328         42
  49.4700         27
  49.5071         32
  49.5443         33
  49.5814         28
  49.6186         27
  49.6557         22
  49.6929         38
  49.7300         33
  49.7672         31
  49.8043         31
  49.8415         24
  49.8786         39
  49.9158         27
  49.9530         38
  49.9901         30
  50.0273         34
  50.0644         26
  50.1016         30
  50.1387         29
  50.1759         19
  50.2130         35
  50.2502         31
  50.2873         33
  50.3245         27
  50.3616         24
  50.3988         36
  50.4359         27
  50.4731         32
  50.5102         30
  50.5474         26
  50.5845         34
  50.6217         42
  50.6588         28
  50.6960         25
  50.7331         33
  50.7703         29
  50.8074         35
  50.8446         24
  50.8817         27
  50.9189         24
  50.9560         28
  50.9932         29
  51.0303         32
  51.0675         31
  51.1046         41
  51.1418         25
  51.1789         35
  51.2161         28
  51.2532         23
  51.2904         29
  51.3275         37
  51.3647         21
  51.4018         16
  51.4390         37
  51.4762         33
  51.5133         28
  51.5505         36
  51.5876         30
  51.6248         39
  51.6619         27
  51.6991         31
  51.7362         31
  51.7734         38
  51.8105         39
  51.8477         30
  51.8848         37
  51.9220         29
  51.9591         24
  51.9963         24
  52.0334         35
  52.0706         25
  52.1077         29
  52.1449         31
  52.1820         23
  52.2192         29
  52.2563         27
  52.2935         31
  52.3306         23
  52.3678         21
  52.4049         30
  52.4421         26
  52.4792         23
  52.5164         25
  52.5535         32
  52.5907         26
  52.6278         24
  52.6650         28
  52.7021         36
  52.7393         29
  52.7764         30
  52.8136         28
  52.8507         28
  52.8879         39
  52.9250         22
  52.9622         26
  52.9994         42
  53.0365         33
  53.0737         36
  53.1108         31
  53.1480         37
  53.1851         26
  53.2223         25
  53.2594         26
  53.2966         30
  53.3337         27
  53.3709         31
  53.4080         29
  53.4452         29
  53.4823         31
  53.5195         31
  53.5566         29
  53.5938         31
  53.6309         23
  53.6681         37
  53.7052         23
  53.7424         30
  53.7795         27
  53.8167         26
  53.8538         33
  53.8910         31
  53.9281         33
  53.9653         40
  54.0024         41
  54.0396         29
  54.0767         20
  54.1139         33
  54.1510         44
  54.1882         27
  54.2253         35
  54.2625         25
  54.2996         33
  54.3368         39
  54.3739         32
  54.4111         35
  54.4482         37
  54.4854         24
  54.5225         25
  54.5597         24
  54.5969         31
  54.6340         32
  54.6712         25
  54.7083         32
  54.7455         25
  54.7826         26
  54.8198         29
  54.8569         27
  54.8941         27
  54.9312         36
  54.9684         31
  55.0055         30
  55.0427         28
  55.0798         31
  55.1170         33
  55.1541         30
  55.1913         37
  55.2284         31
  55.2656         32
  55.3027         30
  55.3399         24
  55.3770         33
  55.4142         39
  55.4513         30
  55.4885         27
  55.5256         30
  55.5628         29
  55.5999         31
  55.6371         17
  55.6742         27
  55.7114         15
  55.7485         28
  55.7857         27
  55.8228         41
  55.8600         30
  55.8971         38
  55.9343         23
  55.9714         33
  56.0086         28
  56.0457         28
  56.0829         16
  56.1201         16
  56.1572         37
  56.1944         28
  56.2315         35
  56.2687         27
  56.3058         25
  56.3430         43
  56.3801         30
  56.4173         29
  56.4544         36
  56.4916         25
  56.5287         28
  56.5659         44
  56.6030         29
  56.6402         24
  56.6773         22
  56.7145         24
  56.7516         34
  56.7888         24
  56.8259         19
  56.8631         19
  56.9002         29
  56.9374         27
  56.9745         27
  57.0117         19
  57.0488         25
  57.0860         29
  57.1231         36
  57.1603         23
  57.1974         32
  57.2346         31
  57.2717         34
  57.3089         25
  57.3460         29
  57.3832         24
  57.4203         29
  57.4575         32
  57.4946         25
  57.5318         26
  57.5689         30
  57.6061         18
  57.6433         26
  57.6804         31
  57.7176         35
  57.7547         18
  57.7919         30
  57.8290         28
  57.8662         23
  57.9033         30
  57.9405         29
  57.9776         31
  58.0148         34
  58.0519         31
  58.0891         34
  58.1262         22
  58.1634         38
  58.2005         34
  58.2377         28
  58.2748         31
  58.3120         24
  58.3491         27
  58.3863         31
  58.4234         30
  58.4606         25
  58.4977         26
  58.5349         21
  58.5720         32
  58.6092         24
  58.6463         14
  58.6835         21
  58.7206         27
  58.7578         26
  58.7949         46
  58.8321         23
  58.8692         25
  58.9064         16
  58.9435         22
  58.9807         32
  59.0178         27
  59.0550         27
  59.0921         31
  59.1293         20
  59.1664         25
  59.2036         29
  59.2408         31
  59.2779         27
  59.3151         26
  59.3522         43
  59.3894         29
  59.4265         25
  59.4637         26
  59.5008         22
  59.5380         15
  59.5751         25
  59.6123         38
  59.6494         30
  59.6866         20
  59.7237         24
  59.7609         29
  59.7980         32
  59.8352         26
  59.8723         30
  59.9095         30
  59.9466         26
  59.9838         27
  60.0024         25