File: notebooks/data/xrd_data/ML_20220718_11_SJD_4_LaB6-2min.csv
;,2THETA,
5.0000,112
5.0372,131
5.0743,145
5.1115,121
5.1486,121
5.1858,117
5.2229,114
5.2601,127
5.2972,122
5.3344,100
5.3715,117
5.4087,109
5.4458,110
5.4830,114
5.5201,99
5.5573,120
5.5944,106
5.6316,96
5.6687,110
5.7059,114
5.7430,103
5.7802,116
5.8173,103
5.8545,96
5.8916,97
5.9288,83
5.9659,107
6.0031,93
6.0402,79
6.0774,91
6.1145,104
6.1517,94
6.1888,73
6.2260,89
6.2631,96
6.3003,94
6.3374,94
6.3746,91
6.4117,78
6.4489,77
6.4860,94
6.5232,91
6.5604,91
6.5975,91
6.6347,115
6.6718,94
6.7090,86
6.7461,77
6.7833,92
6.8204,91
6.8576,82
6.8947,82
6.9319,81
6.9690,65
7.0062,85
7.0433,78
7.0805,93
7.1176,99
7.1548,76
7.1919,73
7.2291,67
7.2662,87
7.3034,74
7.3405,85
7.3777,73
7.4148,81
7.4520,85
7.4891,87
7.5263,81
7.5634,82
7.6006,87
7.6377,82
7.6749,91
7.7120,89
7.7492,88
7.7863,92
7.8235,88
7.8606,105
7.8978,90
7.9349,78
7.9721,108
8.0092,99
8.0464,89
8.0835,103
8.1207,90
8.1579,93
8.1950,92
8.2322,92
8.2693,95
8.3065,97
8.3436,113
8.3808,84
8.4179,103
8.4551,104
8.4922,89
8.5294,101
8.5665,102
8.6037,107
8.6408,90
8.6780,115
8.7151,118
8.7523,105
8.7894,93
8.8266,101
8.8637,112
8.9009,112
8.9380,105
8.9752,91
9.0123,112
9.0495,95
9.0866,99
9.1238,110
9.1609,114
9.1981,96
9.2352,98
9.2724,119
9.3095,117
9.3467,110
9.3838,123
9.4210,93
9.4581,110
9.4953,95
9.5324,102
9.5696,106
9.6067,112
9.6439,107
9.6811,122
9.7182,117
9.7554,114
9.7925,124
9.8297,115
9.8668,113
9.9040,124
9.9411,120
9.9783,128
10.0154,124
10.0526,114
10.0897,106
10.1269,116
10.1640,159
10.2012,134
10.2383,137
10.2755,113
10.3126,128
10.3498,121
10.3869,113
10.4241,127
10.4612,102
10.4984,129
10.5355,115
10.5727,113
10.6098,134
10.6470,115
10.6841,102
10.7213,117
10.7584,106
10.7956,127
10.8327,136
10.8699,115
10.9070,122
10.9442,121
10.9813,102
11.0185,105
11.0556,115
11.0928,127
11.1299,110
11.1671,125
11.2043,113
11.2414,108
11.2786,111
11.3157,116
11.3529,125
11.3900,102
11.4272,112
11.4643,111
11.5015,120
11.5386,98
11.5758,100
11.6129,131
11.6501,123
11.6872,107
11.7244,114
11.7615,120
11.7987,125
11.8358,110
11.8730,114
11.9101,119
11.9473,106
11.9844,123
12.0216,102
12.0587,114
12.0959,120
12.1330,109
12.1702,112
12.2073,122
12.2445,104
12.2816,101
12.3188,91
12.3559,108
12.3931,122
12.4302,98
12.4674,123
12.5045,92
12.5417,97
12.5788,106
12.6160,114
12.6531,123
12.6903,112
12.7274,98
12.7646,115
12.8018,105
12.8389,96
12.8761,81
12.9132,127
12.9504,103
12.9875,102
13.0247,118
13.0618,99
13.0990,91
13.1361,108
13.1733,103
13.2104,100
13.2476,98
13.2847,91
13.3219,107
13.3590,88
13.3962,93
13.4333,94
13.4705,105
13.5076,105
13.5448,78
13.5819,91
13.6191,98
13.6562,95
13.6934,97
13.7305,87
13.7677,97
13.8048,94
13.8420,100
13.8791,98
13.9163,102
13.9534,81
13.9906,79
14.0277,102
14.0649,96
14.1020,88
14.1392,104
14.1763,82
14.2135,79
14.2506,88
14.2878,83
14.3250,114
14.3621,79
14.3993,93
14.4364,97
14.4736,96
14.5107,107
14.5479,88
14.5850,92
14.6222,78
14.6593,78
14.6965,79
14.7336,78
14.7708,94
14.8079,77
14.8451,82
14.8822,77
14.9194,71
14.9565,75
14.9937,67
15.0308,87
15.0680,80
15.1051,73
15.1423,83
15.1794,83
15.2166,82
15.2537,95
15.2909,70
15.3280,76
15.3652,88
15.4023,100
15.4395,77
15.4766,96
15.5138,93
15.5509,86
15.5881,89
15.6252,91
15.6624,64
15.6995,86
15.7367,76
15.7738,89
15.8110,79
15.8482,80
15.8853,88
15.9225,80
15.9596,82
15.9968,74
16.0339,90
16.0711,79
16.1082,88
16.1454,70
16.1825,80
16.2197,79
16.2568,67
16.2940,79
16.3311,91
16.3683,73
16.4054,69
16.4426,76
16.4797,87
16.5169,100
16.5540,91
16.5912,74
16.6283,67
16.6655,78
16.7026,81
16.7398,75
16.7769,66
16.8141,79
16.8512,70
16.8884,93
16.9255,70
16.9627,86
16.9998,97
17.0370,86
17.0741,80
17.1113,73
17.1484,88
17.1856,84
17.2227,75
17.2599,88
17.2970,84
17.3342,86
17.3713,81
17.4085,81
17.4457,82
17.4828,78
17.5200,76
17.5571,76
17.5943,79
17.6314,83
17.6686,73
17.7057,97
17.7429,72
17.7800,70
17.8172,91
17.8543,89
17.8915,92
17.9286,88
17.9658,80
18.0029,87
18.0401,83
18.0772,98
18.1144,94
18.1515,83
18.1887,76
18.2258,87
18.2630,75
18.3001,77
18.3373,82
18.3744,79
18.4116,82
18.4487,85
18.4859,76
18.5230,102
18.5602,83
18.5973,86
18.6345,79
18.6716,92
18.7088,72
18.7459,104
18.7831,86
18.8202,79
18.8574,80
18.8945,75
18.9317,77
18.9689,105
19.0060,85
19.0432,83
19.0803,91
19.1175,85
19.1546,82
19.1918,86
19.2289,82
19.2661,71
19.3032,89
19.3404,87
19.3775,88
19.4147,72
19.4518,75
19.4890,73
19.5261,90
19.5633,84
19.6004,78
19.6376,90
19.6747,76
19.7119,75
19.7490,75
19.7862,80
19.8233,90
19.8605,89
19.8976,75
19.9348,76
19.9719,96
20.0091,82
20.0462,96
20.0834,85
20.1205,90
20.1577,97
20.1948,89
20.2320,104
20.2691,101
20.3063,81
20.3434,96
20.3806,95
20.4177,69
20.4549,100
20.4921,91
20.5292,95
20.5664,102
20.6035,88
20.6407,85
20.6778,94
20.7150,77
20.7521,98
20.7893,100
20.8264,93
20.8636,100
20.9007,94
20.9379,92
20.9750,88
21.0122,87
21.0493,97
21.0865,92
21.1236,79
21.1608,109
21.1979,159
21.2351,162
21.2722,131
21.3094,174
21.3465,229
21.3837,216
21.4208,172
21.4580,126
21.4951,105
21.5323,107
21.5694,89
21.6066,104
21.6437,92
21.6809,111
21.7180,87
21.7552,96
21.7923,108
21.8295,96
21.8666,96
21.9038,99
21.9409,93
21.9781,73
22.0152,93
22.0524,85
22.0896,95
22.1267,110
22.1639,104
22.2010,99
22.2382,85
22.2753,94
22.3125,107
22.3496,88
22.3868,82
22.4239,113
22.4611,89
22.4982,100
22.5354,94
22.5725,109
22.6097,86
22.6468,88
22.6840,101
22.7211,76
22.7583,90
22.7954,85
22.8326,96
22.8697,105
22.9069,86
22.9440,97
22.9812,91
23.0183,92
23.0555,100
23.0926,93
23.1298,100
23.1669,88
23.2041,96
23.2412,90
23.2784,81
23.3155,106
23.3527,108
23.3898,94
23.4270,105
23.4641,116
23.5013,99
23.5384,104
23.5756,111
23.6128,91
23.6499,82
23.6871,97
23.7242,105
23.7614,110
23.7985,120
23.8357,107
23.8728,107
23.9100,95
23.9471,84
23.9843,84
24.0214,114
24.0586,104
24.0957,96
24.1329,106
24.1700,98
24.2072,115
24.2443,107
24.2815,87
24.3186,104
24.3558,112
24.3929,105
24.4301,114
24.4672,102
24.5044,96
24.5415,113
24.5787,108
24.6158,104
24.6530,114
24.6901,96
24.7273,104
24.7644,96
24.8016,108
24.8387,98
24.8759,94
24.9130,85
24.9502,98
24.9873,107
25.0245,114
25.0616,85
25.0988,112
25.1360,89
25.1731,103
25.2103,111
25.2474,96
25.2846,87
25.3217,104
25.3589,92
25.3960,114
25.4332,96
25.4703,91
25.5075,112
25.5446,89
25.5818,97
25.6189,89
25.6561,109
25.6932,77
25.7304,75
25.7675,99
25.8047,97
25.8418,95
25.8790,100
25.9161,80
25.9533,91
25.9904,107
26.0276,94
26.0647,86
26.1019,84
26.1390,105
26.1762,94
26.2133,98
26.2505,105
26.2876,89
26.3248,84
26.3619,99
26.3991,90
26.4362,97
26.4734,99
26.5105,96
26.5477,83
26.5848,92
26.6220,85
26.6591,71
26.6963,102
26.7335,90
26.7706,96
26.8078,105
26.8449,93
26.8821,89
26.9192,94
26.9564,115
26.9935,91
27.0307,100
27.0678,110
27.1050,89
27.1421,92
27.1793,107
27.2164,145
27.2536,117
27.2907,91
27.3279,89
27.3650,101
27.4022,97
27.4393,74
27.4765,93
27.5136,101
27.5508,79
27.5879,74
27.6251,105
27.6622,85
27.6994,84
27.7365,96
27.7737,104
27.8108,74
27.8480,100
27.8851,95
27.9223,72
27.9594,95
27.9966,79
28.0337,90
28.0709,98
28.1080,95
28.1452,85
28.1823,90
28.2195,98
28.2567,80
28.2938,87
28.3310,83
28.3681,74
28.4053,70
28.4424,65
28.4796,88
28.5167,84
28.5539,95
28.5910,99
28.6282,88
28.6653,71
28.7025,73
28.7396,74
28.7768,85
28.8139,81
28.8511,81
28.8882,80
28.9254,93
28.9625,88
28.9997,67
29.0368,71
29.0740,78
29.1111,69
29.1483,79
29.1854,93
29.2226,75
29.2597,77
29.2969,78
29.3340,78
29.3712,70
29.4083,85
29.4455,100
29.4826,62
29.5198,73
29.5569,75
29.5941,97
29.6312,80
29.6684,87
29.7055,86
29.7427,97
29.7799,70
29.8170,77
29.8542,79
29.8913,72
29.9285,82
29.9656,65
30.0028,75
30.0399,76
30.0771,84
30.1142,65
30.1514,84
30.1885,76
30.2257,74
30.2628,79
30.3000,102
30.3371,92
30.3743,162
30.4114,148
30.4486,131
30.4857,105
30.5229,85
30.5600,82
30.5972,70
30.6343,70
30.6715,75
30.7086,67
30.7458,79
30.7829,87
30.8201,76
30.8572,58
30.8944,78
30.9315,70
30.9687,67
31.0058,71
31.0430,64
31.0801,56
31.1173,60
31.1544,76
31.1916,85
31.2287,57
31.2659,74
31.3030,63
31.3402,63
31.3774,62
31.4145,71
31.4517,62
31.4888,65
31.5260,62
31.5631,53
31.6003,66
31.6374,70
31.6746,70
31.7117,65
31.7489,71
31.7860,54
31.8232,66
31.8603,83
31.8975,61
31.9346,71
31.9718,73
32.0089,70
32.0461,76
32.0832,56
32.1204,71
32.1575,73
32.1947,82
32.2318,65
32.2690,73
32.3061,73
32.3433,83
32.3804,67
32.4176,75
32.4547,77
32.4919,76
32.5290,77
32.5662,80
32.6033,53
32.6405,59
32.6776,68
32.7148,67
32.7519,56
32.7891,63
32.8262,55
32.8634,53
32.9006,66
32.9377,71
32.9749,73
33.0120,63
33.0492,66
33.0863,48
33.1235,73
33.1606,64
33.1978,55
33.2349,64
33.2721,52
33.3092,63
33.3464,82
33.3835,57
33.4207,73
33.4578,57
33.4950,60
33.5321,49
33.5693,59
33.6064,61
33.6436,66
33.6807,48
33.7179,57
33.7550,54
33.7922,62
33.8293,56
33.8665,58
33.9036,53
33.9408,47
33.9779,56
34.0151,63
34.0522,64
34.0894,56
34.1265,65
34.1637,70
34.2008,55
34.2380,53
34.2751,52
34.3123,52
34.3494,46
34.3866,46
34.4238,68
34.4609,72
34.4981,63
34.5352,60
34.5724,60
34.6095,57
34.6467,59
34.6838,59
34.7210,65
34.7581,74
34.7953,74
34.8324,58
34.8696,67
34.9067,41
34.9439,56
34.9810,55
35.0182,59
35.0553,63
35.0925,49
35.1296,41
35.1668,50
35.2039,57
35.2411,50
35.2782,48
35.3154,49
35.3525,64
35.3897,50
35.4268,57
35.4640,58
35.5011,41
35.5383,46
35.5754,61
35.6126,56
35.6497,44
35.6869,40
35.7240,51
35.7612,51
35.7983,53
35.8355,50
35.8726,48
35.9098,51
35.9469,48
35.9841,56
36.0213,58
36.0584,37
36.0956,47
36.1327,47
36.1699,40
36.2070,48
36.2442,45
36.2813,47
36.3185,42
36.3556,46
36.3928,49
36.4299,55
36.4671,42
36.5042,51
36.5414,48
36.5785,40
36.6157,55
36.6528,41
36.6900,47
36.7271,54
36.7643,46
36.8014,46
36.8386,38
36.8757,41
36.9129,47
36.9500,47
36.9872,44
37.0243,50
37.0615,43
37.0986,53
37.1358,40
37.1729,53
37.2101,51
37.2472,43
37.2844,42
37.3215,51
37.3587,38
37.3958,56
37.4330,99
37.4701,67
37.5073,54
37.5445,63
37.5816,39
37.6188,55
37.6559,39
37.6931,46
37.7302,38
37.7674,44
37.8045,37
37.8417,36
37.8788,39
37.9160,51
37.9531,52
37.9903,45
38.0274,36
38.0646,38
38.1017,38
38.1389,46
38.1760,37
38.2132,39
38.2503,39
38.2875,41
38.3246,44
38.3618,41
38.3989,41
38.4361,30
38.4732,43
38.5104,38
38.5475,52
38.5847,40
38.6218,47
38.6590,38
38.6961,45
38.7333,45
38.7704,42
38.8076,39
38.8447,43
38.8819,38
38.9190,41
38.9562,37
38.9933,50
39.0305,43
39.0677,34
39.1048,43
39.1420,42
39.1791,42
39.2163,37
39.2534,39
39.2906,37
39.3277,30
39.3649,40
39.4020,40
39.4392,34
39.4763,31
39.5135,41
39.5506,43
39.5878,41
39.6249,39
39.6621,55
39.6992,47
39.7364,46
39.7735,48
39.8107,49
39.8478,26
39.8850,37
39.9221,41
39.9593,35
39.9964,45
40.0336,34
40.0707,29
40.1079,30
40.1450,32
40.1822,33
40.2193,34
40.2565,31
40.2936,40
40.3308,48
40.3679,43
40.4051,29
40.4422,47
40.4794,38
40.5165,55
40.5537,41
40.5908,38
40.6280,48
40.6652,48
40.7023,44
40.7395,28
40.7766,37
40.8138,29
40.8509,31
40.8881,46
40.9252,33
40.9624,43
40.9995,35
41.0367,35
41.0738,36
41.1110,43
41.1481,39
41.1853,35
41.2224,33
41.2596,45
41.2967,42
41.3339,38
41.3710,39
41.4082,34
41.4453,46
41.4825,53
41.5196,52
41.5568,41
41.5939,35
41.6311,30
41.6682,39
41.7054,38
41.7425,38
41.7797,40
41.8168,32
41.8540,40
41.8911,37
41.9283,38
41.9654,34
42.0026,33
42.0397,27
42.0769,40
42.1140,40
42.1512,41
42.1884,31
42.2255,35
42.2627,38
42.2998,30
42.3370,34
42.3741,29
42.4113,30
42.4484,32
42.4856,31
42.5227,41
42.5599,42
42.5970,34
42.6342,43
42.6713,38
42.7085,35
42.7456,34
42.7828,35
42.8199,38
42.8571,33
42.8942,38
42.9314,35
42.9685,43
43.0057,34
43.0428,31
43.0800,42
43.1171,35
43.1543,52
43.1914,41
43.2286,38
43.2657,41
43.3029,46
43.3400,40
43.3772,37
43.4143,50
43.4515,31
43.4886,58
43.5258,61
43.5629,49
43.6001,49
43.6372,50
43.6744,26
43.7116,45
43.7487,37
43.7859,37
43.8230,32
43.8602,34
43.8973,33
43.9345,42
43.9716,43
44.0088,37
44.0459,38
44.0831,34
44.1202,41
44.1574,37
44.1945,45
44.2317,25
44.2688,23
44.3060,46
44.3431,46
44.3803,37
44.4174,44
44.4546,34
44.4917,29
44.5289,35
44.5660,40
44.6032,41
44.6403,50
44.6775,61
44.7146,41
44.7518,43
44.7889,37
44.8261,36
44.8632,33
44.9004,34
44.9375,35
44.9747,37
45.0118,31
45.0490,37
45.0861,33
45.1233,47
45.1604,33
45.1976,38
45.2347,47
45.2719,40
45.3091,36
45.3462,38
45.3834,43
45.4205,30
45.4577,41
45.4948,36
45.5320,30
45.5691,34
45.6063,39
45.6434,40
45.6806,31
45.7177,45
45.7549,26
45.7920,38
45.8292,42
45.8663,31
45.9035,34
45.9406,34
45.9778,37
46.0149,35
46.0521,35
46.0892,26
46.1264,31
46.1635,35
46.2007,36
46.2378,25
46.2750,36
46.3121,33
46.3493,40
46.3864,39
46.4236,33
46.4607,28
46.4979,28
46.5350,38
46.5722,31
46.6093,36
46.6465,28
46.6836,28
46.7208,31
46.7579,35
46.7951,36
46.8323,32
46.8694,39
46.9066,24
46.9437,31
46.9809,34
47.0180,33
47.0552,32
47.0923,33
47.1295,35
47.1666,34
47.2038,34
47.2409,35
47.2781,31
47.3152,33
47.3524,40
47.3895,27
47.4267,26
47.4638,32
47.5010,27
47.5381,34
47.5753,27
47.6124,31
47.6496,30
47.6867,25
47.7239,29
47.7610,27
47.7982,34
47.8353,38
47.8725,28
47.9096,36
47.9468,43
47.9839,33
48.0211,33
48.0582,30
48.0954,29
48.1325,42
48.1697,32
48.2068,23
48.2440,25
48.2811,34
48.3183,31
48.3555,37
48.3926,26
48.4298,32
48.4669,37
48.5041,35
48.5412,29
48.5784,36
48.6155,30
48.6527,33
48.6898,23
48.7270,41
48.7641,28
48.8013,27
48.8384,26
48.8756,27
48.9127,45
48.9499,64
48.9870,50
49.0242,39
49.0613,29
49.0985,43
49.1356,33
49.1728,33
49.2099,25
49.2471,37
49.2842,34
49.3214,34
49.3585,31
49.3957,31
49.4328,32
49.4700,29
49.5071,27
49.5443,30
49.5814,33
49.6186,37
49.6557,27
49.6929,33
49.7300,38
49.7672,31
49.8043,29
49.8415,32
49.8786,38
49.9158,29
49.9530,27
49.9901,28
50.0273,28
50.0644,33
50.1016,37
50.1387,27
50.1759,33
50.2130,36
50.2502,23
50.2873,35
50.3245,25
50.3616,34
50.3988,25
50.4359,35
50.4731,39
50.5102,39
50.5474,32
50.5845,25
50.6217,36
50.6588,39
50.6960,25
50.7331,24
50.7703,33
50.8074,21
50.8446,31
50.8817,28
50.9189,24
50.9560,36
50.9932,24
51.0303,27
51.0675,30
51.1046,26
51.1418,33
51.1789,20
51.2161,26
51.2532,35
51.2904,30
51.3275,23
51.3647,30
51.4018,35
51.4390,38
51.4762,30
51.5133,28
51.5505,30
51.5876,39
51.6248,33
51.6619,35
51.6991,37
51.7362,31
51.7734,31
51.8105,32
51.8477,26
51.8848,44
51.9220,44
51.9591,28
51.9963,21
52.0334,32
52.0706,25
52.1077,32
52.1449,24
52.1820,30
52.2192,26
52.2563,26
52.2935,23
52.3306,36
52.3678,35
52.4049,38
52.4421,23
52.4792,27
52.5164,29
52.5535,39
52.5907,36
52.6278,30
52.6650,18
52.7021,33
52.7393,28
52.7764,29
52.8136,25
52.8507,34
52.8879,27
52.9250,22
52.9622,29
52.9994,25
53.0365,43
53.0737,37
53.1108,26
53.1480,34
53.1851,27
53.2223,25
53.2594,33
53.2966,23
53.3337,31
53.3709,41
53.4080,26
53.4452,36
53.4823,20
53.5195,35
53.5566,34
53.5938,30
53.6309,26
53.6681,32
53.7052,31
53.7424,22
53.7795,38
53.8167,29
53.8538,24
53.8910,38
53.9281,33
53.9653,45
54.0024,37
54.0396,35
54.0767,26
54.1139,34
54.1510,29
54.1882,30
54.2253,23
54.2625,23
54.2996,32
54.3368,29
54.3739,21
54.4111,23
54.4482,27
54.4854,30
54.5225,30
54.5597,24
54.5969,29
54.6340,29
54.6712,28
54.7083,24
54.7455,26
54.7826,21
54.8198,28
54.8569,23
54.8941,37
54.9312,34
54.9684,23
55.0055,32
55.0427,32
55.0798,26
55.1170,16
55.1541,23
55.1913,24
55.2284,33
55.2656,33
55.3027,34
55.3399,26
55.3770,31
55.4142,23
55.4513,35
55.4885,23
55.5256,33
55.5628,28
55.5999,28
55.6371,25
55.6742,27
55.7114,30
55.7485,23
55.7857,35
55.8228,27
55.8600,27
55.8971,19
55.9343,25
55.9714,22
56.0086,21
56.0457,28
56.0829,39
56.1201,33
56.1572,39
56.1944,25
56.2315,34
56.2687,38
56.3058,38
56.3430,38
56.3801,33
56.4173,23
56.4544,31
56.4916,26
56.5287,29
56.5659,31
56.6030,28
56.6402,38
56.6773,27
56.7145,26
56.7516,29
56.7888,26
56.8259,26
56.8631,28
56.9002,37
56.9374,17
56.9745,24
57.0117,26
57.0488,32
57.0860,29
57.1231,19
57.1603,32
57.1974,32
57.2346,21
57.2717,31
57.3089,16
57.3460,36
57.3832,28
57.4203,25
57.4575,32
57.4946,20
57.5318,24
57.5689,22
57.6061,29
57.6433,24
57.6804,32
57.7176,30
57.7547,27
57.7919,24
57.8290,23
57.8662,31
57.9033,22
57.9405,26
57.9776,26
58.0148,28
58.0519,25
58.0891,31
58.1262,25
58.1634,25
58.2005,33
58.2377,27
58.2748,30
58.3120,25
58.3491,20
58.3863,22
58.4234,22
58.4606,30
58.4977,24
58.5349,29
58.5720,24
58.6092,28
58.6463,25
58.6835,32
58.7206,28
58.7578,25
58.7949,20
58.8321,20
58.8692,24
58.9064,31
58.9435,26
58.9807,24
59.0178,37
59.0550,34
59.0921,26
59.1293,22
59.1664,27
59.2036,30
59.2408,23
59.2779,25
59.3151,23
59.3522,31
59.3894,31
59.4265,29
59.4637,25
59.5008,25
59.5380,20
59.5751,27
59.6123,23
59.6494,28
59.6866,25
59.7237,21
59.7609,23
59.7980,37
59.8352,32
59.8723,30
59.9095,25
59.9466,39
59.9838,28
60.0024,31