File: notebooks/data/xrd_data/ML_20220718_49_SJD_4_LaB6-4min.uxd
; (content of file Y:\Sam\Apurva-07-20-2022\puck4\ML_20220718_49_SJD_4_LaB6-4min.raw)
_FILEVERSION = 3
_SAMPLE = ML_20220718_49_SJD_4_LaB6-4min
_+SAMPLE =
_SITE = USA
_USER = Administrator
_GONIOMETER_CODE = 20
; Goniometer : D8 theta/2theta, stage : Unknown
_ATTACHMENTS_CODE = 0
_GONIOMETER_RADIUS = 200.5
_FIXED_DIVSLIT = 0.6
_FIXED_SAMPLESLIT = 0
_SOLLER_SLITS = 2
_FIXED_DETSLIT = 9.55
_MONOCHROMATOR = 0
; Incident beam monochromator : None
_SOLLER_SLITS_2 = N
_THIN_FILM = N
_BETA_FILTER = Y
_FIXED_ANTISLIT = 5.89
_ANALYZER_CODE = 0
; Received beam analyzer : None
_DATEMEASURED = "26-Jul-2022 13:56:19"
_WL_UNIT = A
_WL1 = 1.5406
_WL2 = 1.54439
_WL3 = 1.39222
_WLRATIO = 0.5
_ANODE = Cu
_V4_INF_CREATOR = XRDWizard
_V4_INF_CREATOR_VERSION = V2.9.0.22
_V4_INF_WIZARD_VERSION = V2.9.0.22
_V4_INF_WIZARD_ADDINS = V2.9.0.22
_V4_INF_WIZARD_DOCTYPE = XRD
_V4_INF_OSUSER = McQueenLab
_V4_INF_USER = Administrator
_V4_INF_SITE = USA
_V4_INF_SAMPLEID = ML_20220718_49_SJD_4_LaB6-4min

; Data for range 1
_DRIVE = COUPLED
_STEPTIME = 11.28
_STEPSIZE = 0.0185756
_STEPMODE = C
_START = 5
_THETA = 2.5
_2THETA = 5
_KHI = 0
_PHI = 0
_X = 0
_Y = 0
_Z = 0
_DETECTOR = 5
; Detector type : Unknown
_DETECTORSLIT = unkn
_AUX1 = 0
_AUX2 = 0
_AUX3 = 0
_TIMESTARTED = 15
_TEMP_RATE = -1
_TEMP_DELAY = -1
_KV = 40
_MA = 40
_RANGE_WL = 1.5406
_3DPLANE = 0
_V4_ADDITIONALDETECTOR = 257
_V4_PSD2THETA = 3.3663
_V4_PSDCHANNEL1 = 0
_V4_PSDAPERTURE = 12.68
_V4_PSDTYPE = 5
_V4_PSDFIXED = 0
_V4_COUNTERS_MASK = 4096
_V4_DRIVES_MASK = 0
_V4_ENCODERS_MASK = 0
_2THETACOUNTS = 1
; 2THETA  PSD
   5.0000        247
   5.0372        267
   5.0743        269
   5.1115        212
   5.1486        260
   5.1858        247
   5.2229        243
   5.2601        237
   5.2972        257
   5.3344        244
   5.3715        220
   5.4087        233
   5.4458        226
   5.4830        255
   5.5201        246
   5.5573        235
   5.5944        237
   5.6316        238
   5.6687        210
   5.7059        215
   5.7430        204
   5.7802        207
   5.8173        224
   5.8545        221
   5.8916        209
   5.9288        206
   5.9659        184
   6.0031        188
   6.0402        195
   6.0774        173
   6.1145        216
   6.1517        193
   6.1888        191
   6.2260        173
   6.2631        201
   6.3003        165
   6.3374        184
   6.3746        198
   6.4117        193
   6.4489        193
   6.4860        178
   6.5232        198
   6.5604        180
   6.5975        197
   6.6347        170
   6.6718        160
   6.7090        179
   6.7461        152
   6.7833        201
   6.8204        182
   6.8576        181
   6.8947        156
   6.9319        175
   6.9690        177
   7.0062        169
   7.0433        188
   7.0805        183
   7.1176        162
   7.1548        167
   7.1919        175
   7.2291        152
   7.2662        174
   7.3034        155
   7.3405        153
   7.3777        178
   7.4148        176
   7.4520        175
   7.4891        166
   7.5263        181
   7.5634        166
   7.6006        175
   7.6377        179
   7.6749        193
   7.7120        152
   7.7492        197
   7.7863        180
   7.8235        157
   7.8606        211
   7.8978        176
   7.9349        201
   7.9721        193
   8.0092        204
   8.0464        180
   8.0835        175
   8.1207        206
   8.1579        173
   8.1950        184
   8.2322        204
   8.2693        195
   8.3065        169
   8.3436        203
   8.3808        198
   8.4179        193
   8.4551        176
   8.4922        205
   8.5294        205
   8.5665        186
   8.6037        191
   8.6408        191
   8.6780        200
   8.7151        237
   8.7523        198
   8.7894        221
   8.8266        200
   8.8637        203
   8.9009        173
   8.9380        197
   8.9752        219
   9.0123        236
   9.0495        217
   9.0866        216
   9.1238        241
   9.1609        217
   9.1981        240
   9.2352        208
   9.2724        200
   9.3095        249
   9.3467        212
   9.3838        211
   9.4210        226
   9.4581        233
   9.4953        199
   9.5324        207
   9.5696        198
   9.6067        217
   9.6439        252
   9.6811        229
   9.7182        240
   9.7554        245
   9.7925        243
   9.8297        219
   9.8668        225
   9.9040        258
   9.9411        229
   9.9783        229
  10.0154        221
  10.0526        253
  10.0897        226
  10.1269        244
  10.1640        224
  10.2012        197
  10.2383        234
  10.2755        244
  10.3126        244
  10.3498        243
  10.3869        236
  10.4241        224
  10.4612        283
  10.4984        218
  10.5355        228
  10.5727        259
  10.6098        235
  10.6470        255
  10.6841        238
  10.7213        235
  10.7584        237
  10.7956        227
  10.8327        223
  10.8699        240
  10.9070        225
  10.9442        248
  10.9813        279
  11.0185        233
  11.0556        244
  11.0928        252
  11.1299        224
  11.1671        237
  11.2043        227
  11.2414        230
  11.2786        211
  11.3157        204
  11.3529        243
  11.3900        239
  11.4272        228
  11.4643        241
  11.5015        233
  11.5386        252
  11.5758        239
  11.6129        229
  11.6501        223
  11.6872        252
  11.7244        247
  11.7615        219
  11.7987        256
  11.8358        236
  11.8730        266
  11.9101        216
  11.9473        238
  11.9844        220
  12.0216        219
  12.0587        215
  12.0959        225
  12.1330        206
  12.1702        187
  12.2073        221
  12.2445        231
  12.2816        209
  12.3188        211
  12.3559        210
  12.3931        224
  12.4302        231
  12.4674        209
  12.5045        267
  12.5417        208
  12.5788        233
  12.6160        243
  12.6531        240
  12.6903        199
  12.7274        235
  12.7646        240
  12.8018        209
  12.8389        208
  12.8761        218
  12.9132        205
  12.9504        210
  12.9875        216
  13.0247        195
  13.0618        206
  13.0990        201
  13.1361        194
  13.1733        175
  13.2104        194
  13.2476        209
  13.2847        189
  13.3219        198
  13.3590        209
  13.3962        208
  13.4333        196
  13.4705        184
  13.5076        202
  13.5448        187
  13.5819        199
  13.6191        201
  13.6562        207
  13.6934        215
  13.7305        183
  13.7677        200
  13.8048        166
  13.8420        182
  13.8791        169
  13.9163        186
  13.9534        176
  13.9906        189
  14.0277        174
  14.0649        177
  14.1020        170
  14.1392        168
  14.1763        179
  14.2135        181
  14.2506        176
  14.2878        210
  14.3250        190
  14.3621        167
  14.3993        163
  14.4364        202
  14.4736        180
  14.5107        184
  14.5479        179
  14.5850        184
  14.6222        167
  14.6593        175
  14.6965        170
  14.7336        175
  14.7708        166
  14.8079        167
  14.8451        183
  14.8822        160
  14.9194        164
  14.9565        161
  14.9937        167
  15.0308        153
  15.0680        188
  15.1051        157
  15.1423        143
  15.1794        166
  15.2166        169
  15.2537        156
  15.2909        160
  15.3280        169
  15.3652        139
  15.4023        148
  15.4395        197
  15.4766        146
  15.5138        170
  15.5509        167
  15.5881        159
  15.6252        180
  15.6624        156
  15.6995        154
  15.7367        177
  15.7738        148
  15.8110        171
  15.8482        186
  15.8853        182
  15.9225        196
  15.9596        185
  15.9968        148
  16.0339        183
  16.0711        160
  16.1082        181
  16.1454        173
  16.1825        153
  16.2197        149
  16.2568        151
  16.2940        153
  16.3311        188
  16.3683        163
  16.4054        153
  16.4426        172
  16.4797        153
  16.5169        167
  16.5540        160
  16.5912        144
  16.6283        149
  16.6655        161
  16.7026        171
  16.7398        179
  16.7769        169
  16.8141        169
  16.8512        141
  16.8884        161
  16.9255        161
  16.9627        162
  16.9998        153
  17.0370        148
  17.0741        149
  17.1113        179
  17.1484        185
  17.1856        171
  17.2227        155
  17.2599        181
  17.2970        177
  17.3342        145
  17.3713        135
  17.4085        168
  17.4457        170
  17.4828        155
  17.5200        152
  17.5571        161
  17.5943        146
  17.6314        177
  17.6686        157
  17.7057        166
  17.7429        115
  17.7800        171
  17.8172        150
  17.8543        178
  17.8915        173
  17.9286        170
  17.9658        165
  18.0029        160
  18.0401        163
  18.0772        138
  18.1144        156
  18.1515        169
  18.1887        154
  18.2258        183
  18.2630        163
  18.3001        158
  18.3373        138
  18.3744        155
  18.4116        151
  18.4487        148
  18.4859        180
  18.5230        172
  18.5602        159
  18.5973        180
  18.6345        179
  18.6716        150
  18.7088        172
  18.7459        178
  18.7831        162
  18.8202        177
  18.8574        165
  18.8945        165
  18.9317        164
  18.9689        176
  19.0060        215
  19.0432        155
  19.0803        181
  19.1175        177
  19.1546        162
  19.1918        171
  19.2289        172
  19.2661        164
  19.3032        143
  19.3404        184
  19.3775        196
  19.4147        178
  19.4518        193
  19.4890        165
  19.5261        181
  19.5633        158
  19.6004        187
  19.6376        178
  19.6747        188
  19.7119        167
  19.7490        180
  19.7862        183
  19.8233        178
  19.8605        173
  19.8976        181
  19.9348        174
  19.9719        160
  20.0091        182
  20.0462        187
  20.0834        191
  20.1205        158
  20.1577        173
  20.1948        162
  20.2320        180
  20.2691        180
  20.3063        162
  20.3434        178
  20.3806        204
  20.4177        169
  20.4549        196
  20.4921        207
  20.5292        169
  20.5664        193
  20.6035        180
  20.6407        180
  20.6778        199
  20.7150        182
  20.7521        186
  20.7893        187
  20.8264        191
  20.8636        201
  20.9007        198
  20.9379        162
  20.9750        209
  21.0122        211
  21.0493        206
  21.0865        181
  21.1236        203
  21.1608        222
  21.1979        297
  21.2351        363
  21.2722        338
  21.3094        314
  21.3465        474
  21.3837        424
  21.4208        352
  21.4580        250
  21.4951        207
  21.5323        217
  21.5694        176
  21.6066        198
  21.6437        189
  21.6809        181
  21.7180        198
  21.7552        179
  21.7923        208
  21.8295        184
  21.8666        193
  21.9038        177
  21.9409        200
  21.9781        202
  22.0152        191
  22.0524        204
  22.0896        207
  22.1267        195
  22.1639        194
  22.2010        208
  22.2382        196
  22.2753        219
  22.3125        176
  22.3496        199
  22.3868        220
  22.4239        210
  22.4611        195
  22.4982        191
  22.5354        181
  22.5725        208
  22.6097        213
  22.6468        212
  22.6840        189
  22.7211        220
  22.7583        177
  22.7954        182
  22.8326        178
  22.8697        200
  22.9069        202
  22.9440        210
  22.9812        186
  23.0183        210
  23.0555        186
  23.0926        208
  23.1298        209
  23.1669        217
  23.2041        190
  23.2412        194
  23.2784        232
  23.3155        194
  23.3527        195
  23.3898        186
  23.4270        198
  23.4641        227
  23.5013        195
  23.5384        170
  23.5756        185
  23.6128        186
  23.6499        178
  23.6871        201
  23.7242        191
  23.7614        182
  23.7985        194
  23.8357        205
  23.8728        202
  23.9100        224
  23.9471        209
  23.9843        220
  24.0214        183
  24.0586        187
  24.0957        187
  24.1329        234
  24.1700        184
  24.2072        206
  24.2443        208
  24.2815        229
  24.3186        219
  24.3558        201
  24.3929        210
  24.4301        214
  24.4672        192
  24.5044        193
  24.5415        194
  24.5787        187
  24.6158        168
  24.6530        198
  24.6901        196
  24.7273        187
  24.7644        201
  24.8016        172
  24.8387        190
  24.8759        195
  24.9130        201
  24.9502        192
  24.9873        209
  25.0245        188
  25.0616        199
  25.0988        201
  25.1360        198
  25.1731        177
  25.2103        215
  25.2474        221
  25.2846        185
  25.3217        181
  25.3589        192
  25.3960        198
  25.4332        196
  25.4703        222
  25.5075        203
  25.5446        167
  25.5818        194
  25.6189        195
  25.6561        222
  25.6932        199
  25.7304        178
  25.7675        196
  25.8047        185
  25.8418        206
  25.8790        179
  25.9161        178
  25.9533        181
  25.9904        183
  26.0276        192
  26.0647        190
  26.1019        183
  26.1390        197
  26.1762        180
  26.2133        214
  26.2505        197
  26.2876        170
  26.3248        203
  26.3619        178
  26.3991        191
  26.4362        178
  26.4734        197
  26.5105        182
  26.5477        205
  26.5848        198
  26.6220        195
  26.6591        201
  26.6963        192
  26.7335        180
  26.7706        209
  26.8078        180
  26.8449        182
  26.8821        194
  26.9192        195
  26.9564        188
  26.9935        219
  27.0307        193
  27.0678        189
  27.1050        198
  27.1421        233
  27.1793        246
  27.2164        228
  27.2536        231
  27.2907        211
  27.3279        204
  27.3650        168
  27.4022        195
  27.4393        175
  27.4765        181
  27.5136        166
  27.5508        190
  27.5879        148
  27.6251        198
  27.6622        189
  27.6994        175
  27.7365        153
  27.7737        188
  27.8108        177
  27.8480        173
  27.8851        184
  27.9223        169
  27.9594        164
  27.9966        163
  28.0337        158
  28.0709        161
  28.1080        181
  28.1452        179
  28.1823        185
  28.2195        178
  28.2567        155
  28.2938        159
  28.3310        177
  28.3681        157
  28.4053        174
  28.4424        176
  28.4796        185
  28.5167        164
  28.5539        171
  28.5910        176
  28.6282        153
  28.6653        159
  28.7025        181
  28.7396        138
  28.7768        177
  28.8139        173
  28.8511        161
  28.8882        159
  28.9254        157
  28.9625        173
  28.9997        159
  29.0368        140
  29.0740        176
  29.1111        162
  29.1483        168
  29.1854        166
  29.2226        155
  29.2597        161
  29.2969        161
  29.3340        163
  29.3712        159
  29.4083        174
  29.4455        168
  29.4826        171
  29.5198        156
  29.5569        127
  29.5941        165
  29.6312        175
  29.6684        145
  29.7055        177
  29.7427        141
  29.7799        149
  29.8170        154
  29.8542        147
  29.8913        146
  29.9285        150
  29.9656        145
  30.0028        144
  30.0399        141
  30.0771        148
  30.1142        173
  30.1514        180
  30.1885        157
  30.2257        151
  30.2628        157
  30.3000        171
  30.3371        196
  30.3743        282
  30.4114        242
  30.4486        226
  30.4857        234
  30.5229        154
  30.5600        142
  30.5972        141
  30.6343        140
  30.6715        148
  30.7086        155
  30.7458        156
  30.7829        138
  30.8201        144
  30.8572        127
  30.8944        137
  30.9315        150
  30.9687        132
  31.0058        153
  31.0430        156
  31.0801        129
  31.1173        139
  31.1544        152
  31.1916        143
  31.2287        127
  31.2659        150
  31.3030        140
  31.3402        157
  31.3774        149
  31.4145        148
  31.4517        131
  31.4888        115
  31.5260        123
  31.5631        150
  31.6003        169
  31.6374        151
  31.6746        117
  31.7117        153
  31.7489        115
  31.7860        112
  31.8232        141
  31.8603        141
  31.8975        116
  31.9346        131
  31.9718        153
  32.0089        161
  32.0461        143
  32.0832        139
  32.1204        126
  32.1575        121
  32.1947        125
  32.2318        116
  32.2690        141
  32.3061        140
  32.3433        134
  32.3804        143
  32.4176        143
  32.4547        167
  32.4919        182
  32.5290        150
  32.5662        134
  32.6033        108
  32.6405        109
  32.6776        139
  32.7148        137
  32.7519        139
  32.7891        113
  32.8262        142
  32.8634        140
  32.9006        126
  32.9377        136
  32.9749        115
  33.0120        156
  33.0492        104
  33.0863        119
  33.1235        116
  33.1606        118
  33.1978        128
  33.2349        125
  33.2721        142
  33.3092        120
  33.3464        119
  33.3835        125
  33.4207        105
  33.4578        152
  33.4950        127
  33.5321        124
  33.5693        132
  33.6064        124
  33.6436        116
  33.6807        120
  33.7179        111
  33.7550        112
  33.7922        118
  33.8293        120
  33.8665        117
  33.9036        126
  33.9408        120
  33.9779        109
  34.0151         94
  34.0522        125
  34.0894        113
  34.1265        129
  34.1637        122
  34.2008        121
  34.2380        125
  34.2751        106
  34.3123        131
  34.3494        117
  34.3866        116
  34.4238        101
  34.4609        131
  34.4981        107
  34.5352        105
  34.5724        117
  34.6095        131
  34.6467        126
  34.6838        132
  34.7210        157
  34.7581        148
  34.7953        157
  34.8324        138
  34.8696        129
  34.9067        115
  34.9439        125
  34.9810        103
  35.0182        100
  35.0553        100
  35.0925        109
  35.1296         90
  35.1668        122
  35.2039        110
  35.2411        118
  35.2782         86
  35.3154         98
  35.3525        113
  35.3897         99
  35.4268        101
  35.4640        117
  35.5011         95
  35.5383         91
  35.5754        102
  35.6126        101
  35.6497        118
  35.6869        103
  35.7240         98
  35.7612         85
  35.7983        113
  35.8355        113
  35.8726         80
  35.9098        100
  35.9469         97
  35.9841         90
  36.0213        103
  36.0584        109
  36.0956        103
  36.1327         84
  36.1699        117
  36.2070        103
  36.2442        104
  36.2813         95
  36.3185         90
  36.3556         70
  36.3928         92
  36.4299         85
  36.4671         97
  36.5042         88
  36.5414        102
  36.5785        103
  36.6157         95
  36.6528         93
  36.6900         78
  36.7271         91
  36.7643        106
  36.8014         88
  36.8386         95
  36.8757         82
  36.9129        107
  36.9500         91
  36.9872         87
  37.0243         87
  37.0615         96
  37.0986         94
  37.1358         95
  37.1729        106
  37.2101        110
  37.2472         91
  37.2844         99
  37.3215        111
  37.3587         94
  37.3958        130
  37.4330        150
  37.4701        122
  37.5073        114
  37.5445        135
  37.5816        104
  37.6188         96
  37.6559         89
  37.6931         92
  37.7302        100
  37.7674         94
  37.8045         79
  37.8417         74
  37.8788         93
  37.9160        116
  37.9531        100
  37.9903         88
  38.0274        101
  38.0646         87
  38.1017         90
  38.1389         70
  38.1760         90
  38.2132         80
  38.2503         89
  38.2875         91
  38.3246         95
  38.3618         71
  38.3989         68
  38.4361         85
  38.4732         80
  38.5104         84
  38.5475         98
  38.5847         82
  38.6218         69
  38.6590         83
  38.6961         89
  38.7333         77
  38.7704         66
  38.8076         93
  38.8447        100
  38.8819         85
  38.9190         82
  38.9562         76
  38.9933         90
  39.0305         92
  39.0677         81
  39.1048         77
  39.1420         90
  39.1791         79
  39.2163         78
  39.2534         94
  39.2906         74
  39.3277         79
  39.3649         77
  39.4020         79
  39.4392         77
  39.4763         75
  39.5135         75
  39.5506         78
  39.5878         74
  39.6249         71
  39.6621         79
  39.6992         70
  39.7364         86
  39.7735         80
  39.8107         86
  39.8478         75
  39.8850         63
  39.9221        101
  39.9593         72
  39.9964         64
  40.0336         87
  40.0707         88
  40.1079         85
  40.1450         68
  40.1822         77
  40.2193         60
  40.2565         63
  40.2936         74
  40.3308         70
  40.3679         96
  40.4051         75
  40.4422         79
  40.4794         85
  40.5165         82
  40.5537         68
  40.5908         71
  40.6280         92
  40.6652         75
  40.7023         83
  40.7395         78
  40.7766         77
  40.8138         86
  40.8509         71
  40.8881         76
  40.9252         96
  40.9624        109
  40.9995         92
  41.0367         81
  41.0738         94
  41.1110         79
  41.1481         66
  41.1853         82
  41.2224         94
  41.2596         72
  41.2967         71
  41.3339         86
  41.3710         79
  41.4082         79
  41.4453         70
  41.4825         79
  41.5196         72
  41.5568         83
  41.5939         79
  41.6311         85
  41.6682         58
  41.7054         76
  41.7425         76
  41.7797         72
  41.8168         68
  41.8540         68
  41.8911         69
  41.9283         67
  41.9654         91
  42.0026         64
  42.0397         71
  42.0769         77
  42.1140         53
  42.1512         77
  42.1884         67
  42.2255         78
  42.2627         69
  42.2998         70
  42.3370         84
  42.3741         74
  42.4113         84
  42.4484         87
  42.4856         66
  42.5227         87
  42.5599         64
  42.5970         76
  42.6342         78
  42.6713         64
  42.7085         78
  42.7456         82
  42.7828         70
  42.8199         64
  42.8571         81
  42.8942         72
  42.9314         79
  42.9685         71
  43.0057        107
  43.0428         67
  43.0800         72
  43.1171         62
  43.1543         80
  43.1914         64
  43.2286         83
  43.2657         79
  43.3029         83
  43.3400         92
  43.3772         95
  43.4143         84
  43.4515        104
  43.4886        104
  43.5258        147
  43.5629         93
  43.6001         82
  43.6372         97
  43.6744         75
  43.7116         79
  43.7487         69
  43.7859         79
  43.8230         81
  43.8602         66
  43.8973         73
  43.9345         77
  43.9716         62
  44.0088         68
  44.0459         89
  44.0831         89
  44.1202         71
  44.1574         91
  44.1945         73
  44.2317         76
  44.2688         77
  44.3060         88
  44.3431         71
  44.3803         76
  44.4174         70
  44.4546         81
  44.4917         71
  44.5289         77
  44.5660         79
  44.6032         79
  44.6403         79
  44.6775         91
  44.7146        103
  44.7518         70
  44.7889         78
  44.8261         86
  44.8632         75
  44.9004         68
  44.9375         88
  44.9747         86
  45.0118         74
  45.0490         77
  45.0861         69
  45.1233         71
  45.1604         81
  45.1976         75
  45.2347         72
  45.2719         58
  45.3091         67
  45.3462         67
  45.3834         57
  45.4205         70
  45.4577         80
  45.4948         62
  45.5320         61
  45.5691         58
  45.6063         74
  45.6434         64
  45.6806         83
  45.7177         61
  45.7549         67
  45.7920         71
  45.8292         80
  45.8663         61
  45.9035         79
  45.9406         55
  45.9778         67
  46.0149         57
  46.0521         56
  46.0892         77
  46.1264         59
  46.1635         73
  46.2007         62
  46.2378         69
  46.2750         70
  46.3121         67
  46.3493         59
  46.3864         64
  46.4236         75
  46.4607         58
  46.4979         59
  46.5350         73
  46.5722         73
  46.6093         81
  46.6465         60
  46.6836         61
  46.7208         69
  46.7579         55
  46.7951         68
  46.8323         66
  46.8694         63
  46.9066         63
  46.9437         59
  46.9809         50
  47.0180         68
  47.0552         78
  47.0923         75
  47.1295         46
  47.1666         52
  47.2038         63
  47.2409         60
  47.2781         76
  47.3152         61
  47.3524         68
  47.3895         67
  47.4267         70
  47.4638         73
  47.5010         59
  47.5381         71
  47.5753         63
  47.6124         59
  47.6496         60
  47.6867         58
  47.7239         68
  47.7610         60
  47.7982         58
  47.8353         74
  47.8725         70
  47.9096         53
  47.9468         67
  47.9839         44
  48.0211         58
  48.0582         62
  48.0954         66
  48.1325         60
  48.1697         50
  48.2068         51
  48.2440         52
  48.2811         69
  48.3183         64
  48.3555         66
  48.3926         56
  48.4298         60
  48.4669         68
  48.5041         60
  48.5412         59
  48.5784         56
  48.6155         74
  48.6527         60
  48.6898         55
  48.7270         51
  48.7641         67
  48.8013         72
  48.8384         66
  48.8756         63
  48.9127         81
  48.9499        133
  48.9870        102
  49.0242         82
  49.0613         92
  49.0985         88
  49.1356         89
  49.1728         67
  49.2099         70
  49.2471         79
  49.2842         48
  49.3214         55
  49.3585         61
  49.3957         60
  49.4328         53
  49.4700         59
  49.5071         64
  49.5443         56
  49.5814         65
  49.6186         56
  49.6557         51
  49.6929         71
  49.7300         59
  49.7672         61
  49.8043         50
  49.8415         67
  49.8786         52
  49.9158         62
  49.9530         73
  49.9901         62
  50.0273         62
  50.0644         63
  50.1016         54
  50.1387         59
  50.1759         68
  50.2130         54
  50.2502         66
  50.2873         62
  50.3245         63
  50.3616         67
  50.3988         59
  50.4359         61
  50.4731         64
  50.5102         61
  50.5474         54
  50.5845         49
  50.6217         51
  50.6588         54
  50.6960         45
  50.7331         68
  50.7703         59
  50.8074         44
  50.8446         68
  50.8817         60
  50.9189         66
  50.9560         72
  50.9932         50
  51.0303         84
  51.0675         55
  51.1046         59
  51.1418         56
  51.1789         59
  51.2161         54
  51.2532         59
  51.2904         67
  51.3275         60
  51.3647         68
  51.4018         58
  51.4390         75
  51.4762         61
  51.5133         57
  51.5505         62
  51.5876         67
  51.6248         44
  51.6619         68
  51.6991         58
  51.7362         64
  51.7734         63
  51.8105         56
  51.8477         63
  51.8848         63
  51.9220         57
  51.9591         60
  51.9963         57
  52.0334         70
  52.0706         61
  52.1077         55
  52.1449         69
  52.1820         52
  52.2192         67
  52.2563         56
  52.2935         61
  52.3306         72
  52.3678         59
  52.4049         74
  52.4421         60
  52.4792         54
  52.5164         64
  52.5535         57
  52.5907         62
  52.6278         70
  52.6650         56
  52.7021         71
  52.7393         49
  52.7764         65
  52.8136         59
  52.8507         53
  52.8879         46
  52.9250         40
  52.9622         64
  52.9994         59
  53.0365         50
  53.0737         66
  53.1108         68
  53.1480         70
  53.1851         59
  53.2223         63
  53.2594         49
  53.2966         56
  53.3337         81
  53.3709         66
  53.4080         58
  53.4452         51
  53.4823         48
  53.5195         63
  53.5566         57
  53.5938         55
  53.6309         50
  53.6681         49
  53.7052         71
  53.7424         51
  53.7795         54
  53.8167         56
  53.8538         60
  53.8910         64
  53.9281         81
  53.9653         71
  54.0024         76
  54.0396         57
  54.0767         68
  54.1139         71
  54.1510         58
  54.1882         57
  54.2253         66
  54.2625         65
  54.2996         60
  54.3368         61
  54.3739         44
  54.4111         60
  54.4482         53
  54.4854         66
  54.5225         66
  54.5597         50
  54.5969         54
  54.6340         52
  54.6712         53
  54.7083         55
  54.7455         50
  54.7826         61
  54.8198         51
  54.8569         52
  54.8941         50
  54.9312         51
  54.9684         61
  55.0055         50
  55.0427         61
  55.0798         58
  55.1170         62
  55.1541         48
  55.1913         58
  55.2284         54
  55.2656         54
  55.3027         51
  55.3399         45
  55.3770         65
  55.4142         59
  55.4513         62
  55.4885         57
  55.5256         60
  55.5628         49
  55.5999         46
  55.6371         52
  55.6742         61
  55.7114         44
  55.7485         75
  55.7857         58
  55.8228         62
  55.8600         51
  55.8971         64
  55.9343         43
  55.9714         54
  56.0086         59
  56.0457         70
  56.0829         45
  56.1201         47
  56.1572         47
  56.1944         65
  56.2315         71
  56.2687         62
  56.3058         61
  56.3430         53
  56.3801         68
  56.4173         63
  56.4544         57
  56.4916         61
  56.5287         59
  56.5659         51
  56.6030         55
  56.6402         56
  56.6773         55
  56.7145         55
  56.7516         51
  56.7888         48
  56.8259         53
  56.8631         54
  56.9002         55
  56.9374         64
  56.9745         61
  57.0117         45
  57.0488         63
  57.0860         55
  57.1231         61
  57.1603         60
  57.1974         61
  57.2346         59
  57.2717         56
  57.3089         64
  57.3460         61
  57.3832         59
  57.4203         51
  57.4575         53
  57.4946         56
  57.5318         42
  57.5689         51
  57.6061         53
  57.6433         52
  57.6804         65
  57.7176         51
  57.7547         61
  57.7919         56
  57.8290         62
  57.8662         60
  57.9033         55
  57.9405         58
  57.9776         49
  58.0148         41
  58.0519         56
  58.0891         46
  58.1262         58
  58.1634         41
  58.2005         45
  58.2377         50
  58.2748         56
  58.3120         58
  58.3491         50
  58.3863         46
  58.4234         51
  58.4606         54
  58.4977         56
  58.5349         51
  58.5720         45
  58.6092         52
  58.6463         49
  58.6835         55
  58.7206         71
  58.7578         54
  58.7949         49
  58.8321         63
  58.8692         54
  58.9064         55
  58.9435         49
  58.9807         53
  59.0178         52
  59.0550         42
  59.0921         65
  59.1293         56
  59.1664         43
  59.2036         55
  59.2408         59
  59.2779         63
  59.3151         50
  59.3522         57
  59.3894         51
  59.4265         53
  59.4637         41
  59.5008         55
  59.5380         34
  59.5751         59
  59.6123         54
  59.6494         57
  59.6866         59
  59.7237         58
  59.7609         54
  59.7980         51
  59.8352         53
  59.8723         59
  59.9095         45
  59.9466         59
  59.9838         68
  60.0024         57