File: notebooks/data/xrd_data/ML_20220718_25_SJD_4_LaB6-2min.csv
;,2THETA,
5.0000,143
5.0372,116
5.0743,163
5.1115,142
5.1486,141
5.1858,107
5.2229,140
5.2601,131
5.2972,105
5.3344,131
5.3715,106
5.4087,93
5.4458,96
5.4830,142
5.5201,113
5.5573,125
5.5944,116
5.6316,128
5.6687,91
5.7059,116
5.7430,101
5.7802,88
5.8173,118
5.8545,106
5.8916,90
5.9288,91
5.9659,124
6.0031,84
6.0402,109
6.0774,85
6.1145,99
6.1517,108
6.1888,98
6.2260,87
6.2631,92
6.3003,94
6.3374,80
6.3746,109
6.4117,93
6.4489,102
6.4860,74
6.5232,80
6.5604,98
6.5975,94
6.6347,76
6.6718,97
6.7090,83
6.7461,84
6.7833,91
6.8204,92
6.8576,83
6.8947,80
6.9319,85
6.9690,90
7.0062,65
7.0433,93
7.0805,69
7.1176,74
7.1548,55
7.1919,78
7.2291,88
7.2662,74
7.3034,67
7.3405,89
7.3777,74
7.4148,84
7.4520,87
7.4891,93
7.5263,88
7.5634,80
7.6006,83
7.6377,88
7.6749,94
7.7120,84
7.7492,102
7.7863,97
7.8235,96
7.8606,83
7.8978,100
7.9349,109
7.9721,122
8.0092,91
8.0464,102
8.0835,99
8.1207,90
8.1579,79
8.1950,89
8.2322,111
8.2693,97
8.3065,89
8.3436,91
8.3808,89
8.4179,99
8.4551,88
8.4922,113
8.5294,103
8.5665,102
8.6037,95
8.6408,105
8.6780,112
8.7151,126
8.7523,102
8.7894,100
8.8266,110
8.8637,95
8.9009,101
8.9380,111
8.9752,106
9.0123,117
9.0495,112
9.0866,115
9.1238,121
9.1609,103
9.1981,109
9.2352,106
9.2724,95
9.3095,115
9.3467,98
9.3838,108
9.4210,145
9.4581,106
9.4953,94
9.5324,111
9.5696,120
9.6067,106
9.6439,108
9.6811,100
9.7182,103
9.7554,116
9.7925,124
9.8297,118
9.8668,122
9.9040,111
9.9411,115
9.9783,116
10.0154,124
10.0526,96
10.0897,122
10.1269,104
10.1640,131
10.2012,97
10.2383,136
10.2755,126
10.3126,136
10.3498,109
10.3869,117
10.4241,129
10.4612,119
10.4984,121
10.5355,125
10.5727,104
10.6098,105
10.6470,115
10.6841,108
10.7213,127
10.7584,142
10.7956,128
10.8327,106
10.8699,108
10.9070,109
10.9442,102
10.9813,116
11.0185,122
11.0556,134
11.0928,124
11.1299,101
11.1671,123
11.2043,122
11.2414,122
11.2786,108
11.3157,121
11.3529,142
11.3900,117
11.4272,108
11.4643,101
11.5015,112
11.5386,111
11.5758,117
11.6129,127
11.6501,114
11.6872,114
11.7244,121
11.7615,119
11.7987,129
11.8358,117
11.8730,121
11.9101,93
11.9473,114
11.9844,132
12.0216,107
12.0587,122
12.0959,120
12.1330,110
12.1702,116
12.2073,111
12.2445,108
12.2816,109
12.3188,97
12.3559,116
12.3931,90
12.4302,104
12.4674,99
12.5045,85
12.5417,112
12.5788,82
12.6160,111
12.6531,97
12.6903,100
12.7274,104
12.7646,106
12.8018,93
12.8389,105
12.8761,104
12.9132,103
12.9504,120
12.9875,120
13.0247,104
13.0618,95
13.0990,104
13.1361,97
13.1733,105
13.2104,99
13.2476,115
13.2847,87
13.3219,115
13.3590,95
13.3962,91
13.4333,91
13.4705,101
13.5076,105
13.5448,103
13.5819,99
13.6191,93
13.6562,94
13.6934,93
13.7305,116
13.7677,103
13.8048,92
13.8420,87
13.8791,89
13.9163,92
13.9534,106
13.9906,97
14.0277,105
14.0649,103
14.1020,100
14.1392,94
14.1763,99
14.2135,91
14.2506,75
14.2878,94
14.3250,80
14.3621,88
14.3993,90
14.4364,68
14.4736,97
14.5107,93
14.5479,81
14.5850,85
14.6222,83
14.6593,91
14.6965,88
14.7336,79
14.7708,79
14.8079,74
14.8451,79
14.8822,94
14.9194,74
14.9565,76
14.9937,79
15.0308,98
15.0680,82
15.1051,90
15.1423,78
15.1794,84
15.2166,73
15.2537,95
15.2909,79
15.3280,85
15.3652,90
15.4023,97
15.4395,74
15.4766,88
15.5138,80
15.5509,90
15.5881,90
15.6252,78
15.6624,69
15.6995,74
15.7367,78
15.7738,88
15.8110,69
15.8482,78
15.8853,72
15.9225,95
15.9596,88
15.9968,81
16.0339,79
16.0711,75
16.1082,84
16.1454,67
16.1825,74
16.2197,77
16.2568,97
16.2940,72
16.3311,87
16.3683,73
16.4054,64
16.4426,86
16.4797,78
16.5169,63
16.5540,82
16.5912,75
16.6283,94
16.6655,75
16.7026,100
16.7398,78
16.7769,89
16.8141,93
16.8512,91
16.8884,90
16.9255,67
16.9627,73
16.9998,68
17.0370,91
17.0741,90
17.1113,91
17.1484,69
17.1856,62
17.2227,91
17.2599,77
17.2970,105
17.3342,84
17.3713,76
17.4085,66
17.4457,86
17.4828,81
17.5200,70
17.5571,75
17.5943,85
17.6314,103
17.6686,69
17.7057,83
17.7429,94
17.7800,87
17.8172,78
17.8543,87
17.8915,78
17.9286,87
17.9658,89
18.0029,80
18.0401,80
18.0772,77
18.1144,72
18.1515,86
18.1887,92
18.2258,74
18.2630,79
18.3001,85
18.3373,80
18.3744,94
18.4116,74
18.4487,84
18.4859,72
18.5230,74
18.5602,82
18.5973,94
18.6345,92
18.6716,86
18.7088,90
18.7459,84
18.7831,88
18.8202,114
18.8574,91
18.8945,86
18.9317,83
18.9689,93
19.0060,87
19.0432,75
19.0803,102
19.1175,77
19.1546,86
19.1918,73
19.2289,80
19.2661,83
19.3032,90
19.3404,87
19.3775,84
19.4147,81
19.4518,80
19.4890,91
19.5261,88
19.5633,89
19.6004,90
19.6376,96
19.6747,77
19.7119,90
19.7490,83
19.7862,96
19.8233,89
19.8605,69
19.8976,86
19.9348,91
19.9719,104
20.0091,80
20.0462,80
20.0834,71
20.1205,91
20.1577,84
20.1948,76
20.2320,84
20.2691,92
20.3063,80
20.3434,87
20.3806,81
20.4177,83
20.4549,99
20.4921,90
20.5292,112
20.5664,105
20.6035,103
20.6407,87
20.6778,80
20.7150,74
20.7521,81
20.7893,79
20.8264,108
20.8636,100
20.9007,99
20.9379,96
20.9750,86
21.0122,101
21.0493,90
21.0865,96
21.1236,105
21.1608,96
21.1979,147
21.2351,173
21.2722,151
21.3094,157
21.3465,296
21.3837,235
21.4208,179
21.4580,123
21.4951,106
21.5323,103
21.5694,115
21.6066,84
21.6437,88
21.6809,89
21.7180,85
21.7552,80
21.7923,105
21.8295,81
21.8666,89
21.9038,108
21.9409,93
21.9781,107
22.0152,100
22.0524,86
22.0896,99
22.1267,80
22.1639,116
22.2010,86
22.2382,80
22.2753,85
22.3125,89
22.3496,82
22.3868,92
22.4239,101
22.4611,95
22.4982,94
22.5354,96
22.5725,88
22.6097,90
22.6468,107
22.6840,109
22.7211,87
22.7583,99
22.7954,105
22.8326,94
22.8697,98
22.9069,113
22.9440,108
22.9812,122
23.0183,99
23.0555,97
23.0926,88
23.1298,103
23.1669,99
23.2041,91
23.2412,102
23.2784,103
23.3155,100
23.3527,101
23.3898,111
23.4270,81
23.4641,91
23.5013,85
23.5384,90
23.5756,104
23.6128,84
23.6499,93
23.6871,116
23.7242,119
23.7614,106
23.7985,101
23.8357,105
23.8728,90
23.9100,87
23.9471,105
23.9843,84
24.0214,105
24.0586,93
24.0957,105
24.1329,92
24.1700,108
24.2072,112
24.2443,110
24.2815,112
24.3186,125
24.3558,118
24.3929,103
24.4301,90
24.4672,98
24.5044,100
24.5415,99
24.5787,101
24.6158,106
24.6530,112
24.6901,112
24.7273,108
24.7644,99
24.8016,97
24.8387,98
24.8759,103
24.9130,102
24.9502,86
24.9873,99
25.0245,96
25.0616,85
25.0988,106
25.1360,107
25.1731,102
25.2103,111
25.2474,107
25.2846,105
25.3217,92
25.3589,93
25.3960,81
25.4332,98
25.4703,106
25.5075,96
25.5446,107
25.5818,93
25.6189,81
25.6561,98
25.6932,103
25.7304,85
25.7675,76
25.8047,102
25.8418,95
25.8790,88
25.9161,83
25.9533,109
25.9904,110
26.0276,101
26.0647,84
26.1019,70
26.1390,81
26.1762,102
26.2133,85
26.2505,101
26.2876,105
26.3248,92
26.3619,104
26.3991,83
26.4362,96
26.4734,84
26.5105,98
26.5477,102
26.5848,77
26.6220,84
26.6591,105
26.6963,96
26.7335,101
26.7706,90
26.8078,87
26.8449,83
26.8821,94
26.9192,92
26.9564,92
26.9935,106
27.0307,96
27.0678,106
27.1050,112
27.1421,123
27.1793,137
27.2164,140
27.2536,117
27.2907,122
27.3279,103
27.3650,106
27.4022,94
27.4393,81
27.4765,95
27.5136,100
27.5508,91
27.5879,90
27.6251,75
27.6622,67
27.6994,79
27.7365,93
27.7737,79
27.8108,98
27.8480,83
27.8851,102
27.9223,82
27.9594,89
27.9966,83
28.0337,92
28.0709,83
28.1080,83
28.1452,94
28.1823,80
28.2195,68
28.2567,94
28.2938,81
28.3310,84
28.3681,89
28.4053,78
28.4424,100
28.4796,88
28.5167,90
28.5539,80
28.5910,64
28.6282,74
28.6653,58
28.7025,81
28.7396,74
28.7768,94
28.8139,69
28.8511,75
28.8882,89
28.9254,68
28.9625,73
28.9997,75
29.0368,91
29.0740,100
29.1111,85
29.1483,92
29.1854,73
29.2226,81
29.2597,70
29.2969,79
29.3340,88
29.3712,82
29.4083,66
29.4455,85
29.4826,78
29.5198,87
29.5569,85
29.5941,82
29.6312,77
29.6684,70
29.7055,82
29.7427,93
29.7799,73
29.8170,90
29.8542,68
29.8913,81
29.9285,60
29.9656,81
30.0028,72
30.0399,82
30.0771,76
30.1142,85
30.1514,74
30.1885,67
30.2257,78
30.2628,77
30.3000,94
30.3371,89
30.3743,143
30.4114,135
30.4486,135
30.4857,101
30.5229,73
30.5600,69
30.5972,75
30.6343,82
30.6715,76
30.7086,76
30.7458,79
30.7829,82
30.8201,60
30.8572,76
30.8944,78
30.9315,72
30.9687,71
31.0058,78
31.0430,90
31.0801,68
31.1173,68
31.1544,72
31.1916,75
31.2287,80
31.2659,79
31.3030,58
31.3402,60
31.3774,70
31.4145,46
31.4517,69
31.4888,63
31.5260,58
31.5631,80
31.6003,65
31.6374,80
31.6746,68
31.7117,51
31.7489,64
31.7860,66
31.8232,70
31.8603,65
31.8975,74
31.9346,51
31.9718,70
32.0089,62
32.0461,68
32.0832,61
32.1204,59
32.1575,59
32.1947,74
32.2318,64
32.2690,68
32.3061,62
32.3433,81
32.3804,57
32.4176,91
32.4547,58
32.4919,63
32.5290,73
32.5662,83
32.6033,57
32.6405,80
32.6776,60
32.7148,65
32.7519,68
32.7891,65
32.8262,61
32.8634,58
32.9006,63
32.9377,55
32.9749,57
33.0120,62
33.0492,73
33.0863,70
33.1235,60
33.1606,54
33.1978,51
33.2349,46
33.2721,60
33.3092,57
33.3464,53
33.3835,58
33.4207,60
33.4578,69
33.4950,54
33.5321,52
33.5693,52
33.6064,66
33.6436,44
33.6807,63
33.7179,52
33.7550,55
33.7922,67
33.8293,57
33.8665,65
33.9036,62
33.9408,62
33.9779,53
34.0151,49
34.0522,60
34.0894,50
34.1265,53
34.1637,48
34.2008,69
34.2380,68
34.2751,69
34.3123,58
34.3494,46
34.3866,49
34.4238,45
34.4609,42
34.4981,65
34.5352,52
34.5724,47
34.6095,72
34.6467,67
34.6838,71
34.7210,74
34.7581,92
34.7953,84
34.8324,73
34.8696,71
34.9067,53
34.9439,56
34.9810,52
35.0182,54
35.0553,48
35.0925,50
35.1296,46
35.1668,49
35.2039,54
35.2411,55
35.2782,45
35.3154,53
35.3525,48
35.3897,50
35.4268,50
35.4640,36
35.5011,50
35.5383,48
35.5754,67
35.6126,54
35.6497,49
35.6869,50
35.7240,52
35.7612,50
35.7983,56
35.8355,43
35.8726,49
35.9098,48
35.9469,49
35.9841,55
36.0213,33
36.0584,51
36.0956,52
36.1327,53
36.1699,48
36.2070,58
36.2442,54
36.2813,45
36.3185,47
36.3556,55
36.3928,52
36.4299,39
36.4671,47
36.5042,49
36.5414,52
36.5785,53
36.6157,41
36.6528,65
36.6900,48
36.7271,51
36.7643,41
36.8014,41
36.8386,50
36.8757,45
36.9129,42
36.9500,41
36.9872,44
37.0243,44
37.0615,54
37.0986,38
37.1358,59
37.1729,47
37.2101,49
37.2472,38
37.2844,51
37.3215,52
37.3587,50
37.3958,48
37.4330,86
37.4701,67
37.5073,63
37.5445,57
37.5816,44
37.6188,49
37.6559,37
37.6931,47
37.7302,36
37.7674,51
37.8045,48
37.8417,53
37.8788,34
37.9160,30
37.9531,44
37.9903,40
38.0274,48
38.0646,41
38.1017,46
38.1389,38
38.1760,42
38.2132,41
38.2503,55
38.2875,39
38.3246,42
38.3618,43
38.3989,50
38.4361,53
38.4732,46
38.5104,41
38.5475,39
38.5847,39
38.6218,44
38.6590,36
38.6961,42
38.7333,34
38.7704,40
38.8076,45
38.8447,50
38.8819,42
38.9190,38
38.9562,45
38.9933,40
39.0305,32
39.0677,43
39.1048,39
39.1420,39
39.1791,34
39.2163,40
39.2534,36
39.2906,51
39.3277,35
39.3649,33
39.4020,34
39.4392,35
39.4763,44
39.5135,40
39.5506,40
39.5878,39
39.6249,41
39.6621,44
39.6992,50
39.7364,45
39.7735,34
39.8107,42
39.8478,36
39.8850,51
39.9221,41
39.9593,31
39.9964,33
40.0336,41
40.0707,34
40.1079,37
40.1450,32
40.1822,41
40.2193,34
40.2565,48
40.2936,35
40.3308,45
40.3679,40
40.4051,42
40.4422,45
40.4794,38
40.5165,34
40.5537,36
40.5908,32
40.6280,33
40.6652,36
40.7023,34
40.7395,50
40.7766,38
40.8138,30
40.8509,35
40.8881,40
40.9252,46
40.9624,36
40.9995,45
41.0367,38
41.0738,47
41.1110,29
41.1481,40
41.1853,43
41.2224,36
41.2596,32
41.2967,44
41.3339,35
41.3710,39
41.4082,36
41.4453,51
41.4825,31
41.5196,32
41.5568,24
41.5939,34
41.6311,42
41.6682,30
41.7054,41
41.7425,40
41.7797,31
41.8168,30
41.8540,39
41.8911,40
41.9283,43
41.9654,34
42.0026,29
42.0397,38
42.0769,39
42.1140,28
42.1512,30
42.1884,45
42.2255,44
42.2627,33
42.2998,39
42.3370,30
42.3741,35
42.4113,35
42.4484,34
42.4856,45
42.5227,41
42.5599,29
42.5970,26
42.6342,35
42.6713,37
42.7085,37
42.7456,24
42.7828,36
42.8199,34
42.8571,32
42.8942,26
42.9314,30
42.9685,37
43.0057,47
43.0428,48
43.0800,32
43.1171,35
43.1543,39
43.1914,52
43.2286,49
43.2657,46
43.3029,35
43.3400,47
43.3772,43
43.4143,39
43.4515,41
43.4886,66
43.5258,49
43.5629,44
43.6001,39
43.6372,37
43.6744,47
43.7116,46
43.7487,31
43.7859,39
43.8230,23
43.8602,33
43.8973,29
43.9345,48
43.9716,41
44.0088,36
44.0459,24
44.0831,34
44.1202,42
44.1574,51
44.1945,36
44.2317,42
44.2688,24
44.3060,32
44.3431,42
44.3803,38
44.4174,44
44.4546,34
44.4917,44
44.5289,41
44.5660,32
44.6032,35
44.6403,41
44.6775,48
44.7146,33
44.7518,44
44.7889,41
44.8261,41
44.8632,26
44.9004,39
44.9375,38
44.9747,41
45.0118,47
45.0490,25
45.0861,39
45.1233,41
45.1604,32
45.1976,32
45.2347,38
45.2719,41
45.3091,37
45.3462,40
45.3834,32
45.4205,38
45.4577,32
45.4948,34
45.5320,31
45.5691,26
45.6063,33
45.6434,26
45.6806,30
45.7177,34
45.7549,31
45.7920,41
45.8292,38
45.8663,33
45.9035,39
45.9406,31
45.9778,37
46.0149,29
46.0521,38
46.0892,27
46.1264,32
46.1635,32
46.2007,33
46.2378,24
46.2750,35
46.3121,28
46.3493,29
46.3864,36
46.4236,46
46.4607,24
46.4979,31
46.5350,28
46.5722,28
46.6093,33
46.6465,27
46.6836,33
46.7208,32
46.7579,42
46.7951,44
46.8323,33
46.8694,38
46.9066,30
46.9437,31
46.9809,29
47.0180,28
47.0552,35
47.0923,33
47.1295,34
47.1666,36
47.2038,25
47.2409,34
47.2781,23
47.3152,28
47.3524,26
47.3895,31
47.4267,32
47.4638,35
47.5010,33
47.5381,30
47.5753,31
47.6124,29
47.6496,25
47.6867,28
47.7239,33
47.7610,28
47.7982,33
47.8353,33
47.8725,28
47.9096,30
47.9468,37
47.9839,33
48.0211,22
48.0582,35
48.0954,27
48.1325,29
48.1697,25
48.2068,26
48.2440,34
48.2811,27
48.3183,45
48.3555,39
48.3926,39
48.4298,25
48.4669,31
48.5041,29
48.5412,26
48.5784,35
48.6155,35
48.6527,28
48.6898,28
48.7270,36
48.7641,28
48.8013,35
48.8384,35
48.8756,34
48.9127,51
48.9499,53
48.9870,47
49.0242,48
49.0613,36
49.0985,44
49.1356,41
49.1728,25
49.2099,41
49.2471,35
49.2842,29
49.3214,24
49.3585,25
49.3957,39
49.4328,30
49.4700,28
49.5071,33
49.5443,38
49.5814,27
49.6186,31
49.6557,23
49.6929,18
49.7300,36
49.7672,38
49.8043,28
49.8415,27
49.8786,40
49.9158,23
49.9530,24
49.9901,31
50.0273,33
50.0644,34
50.1016,42
50.1387,40
50.1759,31
50.2130,43
50.2502,29
50.2873,27
50.3245,34
50.3616,33
50.3988,38
50.4359,35
50.4731,34
50.5102,27
50.5474,29
50.5845,31
50.6217,31
50.6588,32
50.6960,29
50.7331,19
50.7703,23
50.8074,45
50.8446,29
50.8817,27
50.9189,35
50.9560,29
50.9932,25
51.0303,29
51.0675,30
51.1046,25
51.1418,33
51.1789,25
51.2161,30
51.2532,32
51.2904,34
51.3275,31
51.3647,29
51.4018,28
51.4390,29
51.4762,34
51.5133,30
51.5505,44
51.5876,31
51.6248,23
51.6619,34
51.6991,31
51.7362,29
51.7734,40
51.8105,30
51.8477,23
51.8848,23
51.9220,33
51.9591,36
51.9963,28
52.0334,29
52.0706,37
52.1077,27
52.1449,25
52.1820,29
52.2192,39
52.2563,37
52.2935,25
52.3306,35
52.3678,38
52.4049,19
52.4421,39
52.4792,24
52.5164,38
52.5535,30
52.5907,34
52.6278,28
52.6650,31
52.7021,24
52.7393,34
52.7764,36
52.8136,25
52.8507,32
52.8879,30
52.9250,33
52.9622,20
52.9994,25
53.0365,34
53.0737,38
53.1108,30
53.1480,28
53.1851,36
53.2223,24
53.2594,30
53.2966,30
53.3337,24
53.3709,25
53.4080,29
53.4452,26
53.4823,21
53.5195,33
53.5566,32
53.5938,34
53.6309,28
53.6681,27
53.7052,28
53.7424,27
53.7795,21
53.8167,22
53.8538,21
53.8910,26
53.9281,37
53.9653,26
54.0024,43
54.0396,36
54.0767,28
54.1139,42
54.1510,42
54.1882,35
54.2253,29
54.2625,32
54.2996,30
54.3368,24
54.3739,31
54.4111,27
54.4482,29
54.4854,24
54.5225,24
54.5597,27
54.5969,29
54.6340,31
54.6712,19
54.7083,19
54.7455,22
54.7826,17
54.8198,30
54.8569,27
54.8941,22
54.9312,38
54.9684,29
55.0055,20
55.0427,36
55.0798,17
55.1170,23
55.1541,24
55.1913,21
55.2284,35
55.2656,30
55.3027,30
55.3399,27
55.3770,33
55.4142,29
55.4513,23
55.4885,29
55.5256,34
55.5628,30
55.5999,29
55.6371,36
55.6742,26
55.7114,32
55.7485,30
55.7857,26
55.8228,16
55.8600,19
55.8971,28
55.9343,38
55.9714,30
56.0086,30
56.0457,25
56.0829,29
56.1201,29
56.1572,30
56.1944,36
56.2315,32
56.2687,26
56.3058,30
56.3430,31
56.3801,29
56.4173,33
56.4544,40
56.4916,27
56.5287,30
56.5659,26
56.6030,35
56.6402,32
56.6773,25
56.7145,22
56.7516,21
56.7888,21
56.8259,23
56.8631,33
56.9002,20
56.9374,26
56.9745,31
57.0117,26
57.0488,37
57.0860,25
57.1231,28
57.1603,28
57.1974,33
57.2346,32
57.2717,26
57.3089,26
57.3460,31
57.3832,24
57.4203,21
57.4575,20
57.4946,25
57.5318,31
57.5689,20
57.6061,25
57.6433,30
57.6804,29
57.7176,21
57.7547,23
57.7919,35
57.8290,24
57.8662,38
57.9033,24
57.9405,32
57.9776,29
58.0148,25
58.0519,24
58.0891,35
58.1262,27
58.1634,18
58.2005,25
58.2377,31
58.2748,38
58.3120,27
58.3491,30
58.3863,21
58.4234,28
58.4606,22
58.4977,33
58.5349,32
58.5720,24
58.6092,25
58.6463,15
58.6835,41
58.7206,34
58.7578,19
58.7949,22
58.8321,30
58.8692,30
58.9064,19
58.9435,24
58.9807,25
59.0178,26
59.0550,21
59.0921,24
59.1293,32
59.1664,22
59.2036,27
59.2408,32
59.2779,24
59.3151,33
59.3522,24
59.3894,31
59.4265,24
59.4637,27
59.5008,23
59.5380,32
59.5751,21
59.6123,26
59.6494,24
59.6866,31
59.7237,26
59.7609,21
59.7980,33
59.8352,30
59.8723,24
59.9095,22
59.9466,21
59.9838,32
60.0024,42