File: notebooks/data/xrd_data/ML_20220718_54_SJD_4_LaB6-2min.uxd
; (content of file Y:\Sam\Apurva-07-20-2022\puck4\ML_20220718_54_SJD_4_LaB6-2min.raw)
_FILEVERSION = 3
_SAMPLE = ML_20220718_54_SJD_4_LaB6-2min
_+SAMPLE =
_SITE = USA
_USER = Administrator
_GONIOMETER_CODE = 20
; Goniometer : D8 theta/2theta, stage : Unknown
_ATTACHMENTS_CODE = 0
_GONIOMETER_RADIUS = 200.5
_FIXED_DIVSLIT = 0.6
_FIXED_SAMPLESLIT = 0
_SOLLER_SLITS = 2
_FIXED_DETSLIT = 9.55
_MONOCHROMATOR = 0
; Incident beam monochromator : None
_SOLLER_SLITS_2 = N
_THIN_FILM = N
_BETA_FILTER = Y
_FIXED_ANTISLIT = 5.89
_ANALYZER_CODE = 0
; Received beam analyzer : None
_DATEMEASURED = "26-Jul-2022 12:37:12"
_WL_UNIT = A
_WL1 = 1.5406
_WL2 = 1.54439
_WL3 = 1.39222
_WLRATIO = 0.5
_ANODE = Cu
_V4_INF_CREATOR = XRDWizard
_V4_INF_CREATOR_VERSION = V2.9.0.22
_V4_INF_WIZARD_VERSION = V2.9.0.22
_V4_INF_WIZARD_ADDINS = V2.9.0.22
_V4_INF_WIZARD_DOCTYPE = XRD
_V4_INF_OSUSER = McQueenLab
_V4_INF_USER = Administrator
_V4_INF_SITE = USA
_V4_INF_SAMPLEID = ML_20220718_54_SJD_4_LaB6-2min

; Data for range 1
_DRIVE = COUPLED
_STEPTIME = 5.64
_STEPSIZE = 0.0185756
_STEPMODE = C
_START = 5
_THETA = 2.5
_2THETA = 5
_KHI = 0
_PHI = 0
_X = 0
_Y = 0
_Z = 0
_DETECTOR = 5
; Detector type : Unknown
_DETECTORSLIT = unkn
_AUX1 = 0
_AUX2 = 0
_AUX3 = 0
_TIMESTARTED = 15
_TEMP_RATE = -1
_TEMP_DELAY = -1
_KV = 40
_MA = 40
_RANGE_WL = 1.5406
_3DPLANE = 0
_V4_ADDITIONALDETECTOR = 257
_V4_PSD2THETA = 3.3706
_V4_PSDCHANNEL1 = 0
_V4_PSDAPERTURE = 12.68
_V4_PSDTYPE = 5
_V4_PSDFIXED = 0
_V4_COUNTERS_MASK = 4096
_V4_DRIVES_MASK = 0
_V4_ENCODERS_MASK = 0
_2THETACOUNTS = 1
; 2THETA  PSD
   5.0000        114
   5.0372        143
   5.0743        147
   5.1115        136
   5.1486        115
   5.1858        132
   5.2229        127
   5.2601        117
   5.2972        125
   5.3344        112
   5.3715        106
   5.4087        121
   5.4458         98
   5.4830        121
   5.5201        120
   5.5573        106
   5.5944        106
   5.6316         93
   5.6687        110
   5.7059        102
   5.7430        123
   5.7802        105
   5.8173         81
   5.8545        135
   5.8916         85
   5.9288        100
   5.9659         97
   6.0031         89
   6.0402         97
   6.0774         87
   6.1145         93
   6.1517         76
   6.1888         90
   6.2260         89
   6.2631         74
   6.3003         90
   6.3374         95
   6.3746        103
   6.4117         91
   6.4489         94
   6.4860         95
   6.5232         99
   6.5604         74
   6.5975         84
   6.6347         88
   6.6718         83
   6.7090        104
   6.7461         82
   6.7833         73
   6.8204         88
   6.8576         83
   6.8947         85
   6.9319         80
   6.9690         79
   7.0062         78
   7.0433         63
   7.0805         78
   7.1176         97
   7.1548         85
   7.1919         80
   7.2291         66
   7.2662         81
   7.3034         82
   7.3405         83
   7.3777         71
   7.4148         79
   7.4520         76
   7.4891         90
   7.5263         83
   7.5634         88
   7.6006         81
   7.6377         88
   7.6749         89
   7.7120         81
   7.7492         91
   7.7863         99
   7.8235         89
   7.8606        108
   7.8978         80
   7.9349         83
   7.9721         86
   8.0092         67
   8.0464         97
   8.0835         94
   8.1207         95
   8.1579         82
   8.1950         87
   8.2322         81
   8.2693        105
   8.3065        105
   8.3436        103
   8.3808        101
   8.4179        112
   8.4551         96
   8.4922        101
   8.5294        102
   8.5665        106
   8.6037         96
   8.6408        102
   8.6780         96
   8.7151        106
   8.7523        122
   8.7894        106
   8.8266        114
   8.8637        110
   8.9009        103
   8.9380        136
   8.9752        103
   9.0123         92
   9.0495        100
   9.0866        101
   9.1238        105
   9.1609        103
   9.1981         97
   9.2352        100
   9.2724        109
   9.3095        110
   9.3467        107
   9.3838        108
   9.4210        104
   9.4581        117
   9.4953        108
   9.5324        111
   9.5696        117
   9.6067        109
   9.6439        104
   9.6811        111
   9.7182        105
   9.7554        111
   9.7925        105
   9.8297        126
   9.8668        120
   9.9040        120
   9.9411        115
   9.9783        120
  10.0154        107
  10.0526        104
  10.0897        124
  10.1269        123
  10.1640        120
  10.2012        126
  10.2383        116
  10.2755        114
  10.3126        118
  10.3498        115
  10.3869        108
  10.4241        118
  10.4612        109
  10.4984        105
  10.5355        116
  10.5727        119
  10.6098        121
  10.6470        106
  10.6841        119
  10.7213        117
  10.7584        116
  10.7956        113
  10.8327        102
  10.8699        121
  10.9070        126
  10.9442        139
  10.9813        123
  11.0185        134
  11.0556        113
  11.0928        124
  11.1299        125
  11.1671         93
  11.2043        117
  11.2414        113
  11.2786        106
  11.3157        121
  11.3529        122
  11.3900        136
  11.4272        113
  11.4643        127
  11.5015        106
  11.5386        129
  11.5758        112
  11.6129        124
  11.6501        117
  11.6872        113
  11.7244        107
  11.7615        114
  11.7987        100
  11.8358        123
  11.8730        123
  11.9101        100
  11.9473        125
  11.9844        125
  12.0216         87
  12.0587         94
  12.0959        124
  12.1330        103
  12.1702        132
  12.2073        112
  12.2445        111
  12.2816        130
  12.3188         91
  12.3559        114
  12.3931        120
  12.4302        111
  12.4674        117
  12.5045        115
  12.5417         92
  12.5788        103
  12.6160         94
  12.6531        104
  12.6903        113
  12.7274        110
  12.7646        108
  12.8018        106
  12.8389        102
  12.8761        114
  12.9132        107
  12.9504         84
  12.9875         69
  13.0247        106
  13.0618        116
  13.0990        128
  13.1361        121
  13.1733        104
  13.2104         98
  13.2476         84
  13.2847         92
  13.3219        113
  13.3590         97
  13.3962         98
  13.4333         85
  13.4705        104
  13.5076         88
  13.5448         75
  13.5819        109
  13.6191         78
  13.6562         87
  13.6934         88
  13.7305         96
  13.7677        103
  13.8048        103
  13.8420         97
  13.8791         81
  13.9163         82
  13.9534         94
  13.9906         74
  14.0277        106
  14.0649         89
  14.1020        108
  14.1392         74
  14.1763        103
  14.2135         87
  14.2506         89
  14.2878         81
  14.3250         85
  14.3621         81
  14.3993         65
  14.4364         82
  14.4736         95
  14.5107         89
  14.5479         83
  14.5850         94
  14.6222         83
  14.6593         91
  14.6965         78
  14.7336         81
  14.7708         84
  14.8079         79
  14.8451         92
  14.8822         68
  14.9194         83
  14.9565         78
  14.9937         86
  15.0308         85
  15.0680         66
  15.1051         76
  15.1423         75
  15.1794         64
  15.2166         88
  15.2537         77
  15.2909         84
  15.3280         81
  15.3652         86
  15.4023         81
  15.4395         73
  15.4766         82
  15.5138         70
  15.5509         69
  15.5881         80
  15.6252         81
  15.6624         64
  15.6995        100
  15.7367         84
  15.7738         81
  15.8110         87
  15.8482         80
  15.8853         76
  15.9225         87
  15.9596         91
  15.9968         84
  16.0339         71
  16.0711         75
  16.1082         83
  16.1454         78
  16.1825         76
  16.2197         74
  16.2568         69
  16.2940         66
  16.3311         59
  16.3683         73
  16.4054         81
  16.4426         79
  16.4797         86
  16.5169         84
  16.5540         93
  16.5912         77
  16.6283         75
  16.6655         81
  16.7026         83
  16.7398         64
  16.7769         75
  16.8141         81
  16.8512         76
  16.8884         95
  16.9255         72
  16.9627         79
  16.9998         81
  17.0370         92
  17.0741         81
  17.1113         76
  17.1484         87
  17.1856         86
  17.2227         74
  17.2599         63
  17.2970         92
  17.3342         83
  17.3713         81
  17.4085         88
  17.4457         95
  17.4828         73
  17.5200         67
  17.5571         79
  17.5943         66
  17.6314         90
  17.6686         85
  17.7057         83
  17.7429         88
  17.7800         79
  17.8172         73
  17.8543         69
  17.8915         61
  17.9286         74
  17.9658         81
  18.0029         82
  18.0401         90
  18.0772         74
  18.1144         80
  18.1515         70
  18.1887         84
  18.2258         75
  18.2630         93
  18.3001         82
  18.3373         79
  18.3744         81
  18.4116         81
  18.4487         88
  18.4859        102
  18.5230         93
  18.5602         79
  18.5973         84
  18.6345         74
  18.6716         89
  18.7088         86
  18.7459         64
  18.7831         73
  18.8202         97
  18.8574         70
  18.8945         82
  18.9317         82
  18.9689         79
  19.0060         87
  19.0432        100
  19.0803        101
  19.1175         83
  19.1546         76
  19.1918         90
  19.2289         85
  19.2661         80
  19.3032         97
  19.3404         82
  19.3775         97
  19.4147         84
  19.4518         89
  19.4890        101
  19.5261         91
  19.5633         78
  19.6004         93
  19.6376         84
  19.6747         77
  19.7119         83
  19.7490         96
  19.7862        101
  19.8233         66
  19.8605         79
  19.8976         96
  19.9348         91
  19.9719         88
  20.0091         88
  20.0462         83
  20.0834         90
  20.1205        101
  20.1577         81
  20.1948         89
  20.2320        101
  20.2691         91
  20.3063         95
  20.3434         81
  20.3806         75
  20.4177        107
  20.4549         81
  20.4921        112
  20.5292         89
  20.5664         88
  20.6035         85
  20.6407        106
  20.6778         96
  20.7150         93
  20.7521        106
  20.7893         69
  20.8264         79
  20.8636         80
  20.9007         84
  20.9379         96
  20.9750        113
  21.0122         89
  21.0493         82
  21.0865         91
  21.1236         98
  21.1608        111
  21.1979        147
  21.2351        195
  21.2722        150
  21.3094        131
  21.3465        237
  21.3837        190
  21.4208        202
  21.4580        119
  21.4951         96
  21.5323         95
  21.5694        107
  21.6066         86
  21.6437        101
  21.6809         88
  21.7180         86
  21.7552         91
  21.7923         87
  21.8295         89
  21.8666         99
  21.9038        106
  21.9409         88
  21.9781         84
  22.0152        106
  22.0524        110
  22.0896        111
  22.1267         77
  22.1639         97
  22.2010         99
  22.2382        106
  22.2753         89
  22.3125         82
  22.3496         89
  22.3868         91
  22.4239         89
  22.4611         98
  22.4982         87
  22.5354        104
  22.5725        100
  22.6097         83
  22.6468        103
  22.6840         85
  22.7211         85
  22.7583        105
  22.7954        109
  22.8326         91
  22.8697        105
  22.9069        111
  22.9440        121
  22.9812         93
  23.0183        113
  23.0555        100
  23.0926         96
  23.1298         98
  23.1669         89
  23.2041         83
  23.2412        103
  23.2784        103
  23.3155        105
  23.3527         97
  23.3898        104
  23.4270         99
  23.4641         93
  23.5013        126
  23.5384         85
  23.5756        104
  23.6128         87
  23.6499         93
  23.6871         94
  23.7242         86
  23.7614         97
  23.7985        105
  23.8357        106
  23.8728        107
  23.9100         99
  23.9471        107
  23.9843         92
  24.0214        105
  24.0586        110
  24.0957        105
  24.1329         97
  24.1700         96
  24.2072        106
  24.2443        108
  24.2815        113
  24.3186        103
  24.3558        121
  24.3929        108
  24.4301        105
  24.4672         81
  24.5044         93
  24.5415        103
  24.5787        108
  24.6158        102
  24.6530         93
  24.6901        102
  24.7273        105
  24.7644         96
  24.8016         91
  24.8387         98
  24.8759         93
  24.9130        101
  24.9502        103
  24.9873        100
  25.0245         82
  25.0616         89
  25.0988         91
  25.1360        118
  25.1731         97
  25.2103        113
  25.2474         95
  25.2846        100
  25.3217        102
  25.3589         93
  25.3960         78
  25.4332        101
  25.4703         92
  25.5075         82
  25.5446         89
  25.5818        102
  25.6189        105
  25.6561        104
  25.6932        112
  25.7304         83
  25.7675         98
  25.8047         78
  25.8418        101
  25.8790        102
  25.9161         95
  25.9533         95
  25.9904         73
  26.0276        108
  26.0647        102
  26.1019         90
  26.1390         93
  26.1762         87
  26.2133        110
  26.2505         98
  26.2876         81
  26.3248         92
  26.3619        113
  26.3991         89
  26.4362         90
  26.4734         83
  26.5105         83
  26.5477         98
  26.5848         90
  26.6220         91
  26.6591        102
  26.6963        102
  26.7335        102
  26.7706        109
  26.8078         96
  26.8449         81
  26.8821         94
  26.9192         93
  26.9564         86
  26.9935         93
  27.0307        110
  27.0678         88
  27.1050        100
  27.1421         98
  27.1793        124
  27.2164        105
  27.2536        113
  27.2907        105
  27.3279         83
  27.3650         81
  27.4022         76
  27.4393         82
  27.4765        106
  27.5136        108
  27.5508         95
  27.5879         85
  27.6251         74
  27.6622         92
  27.6994         81
  27.7365         83
  27.7737         78
  27.8108         95
  27.8480         81
  27.8851         82
  27.9223         87
  27.9594         74
  27.9966         76
  28.0337         89
  28.0709         77
  28.1080         99
  28.1452         90
  28.1823         93
  28.2195         78
  28.2567         91
  28.2938        102
  28.3310         82
  28.3681         91
  28.4053         93
  28.4424         95
  28.4796         85
  28.5167         75
  28.5539         79
  28.5910         70
  28.6282         90
  28.6653         74
  28.7025         68
  28.7396         81
  28.7768         90
  28.8139         72
  28.8511         84
  28.8882         87
  28.9254         77
  28.9625         91
  28.9997         84
  29.0368         78
  29.0740         74
  29.1111         87
  29.1483         89
  29.1854         96
  29.2226         84
  29.2597         70
  29.2969         83
  29.3340         92
  29.3712         83
  29.4083         94
  29.4455         77
  29.4826         79
  29.5198         75
  29.5569         80
  29.5941         65
  29.6312         73
  29.6684         76
  29.7055         72
  29.7427         77
  29.7799         73
  29.8170         67
  29.8542         68
  29.8913         85
  29.9285         67
  29.9656         72
  30.0028         77
  30.0399         89
  30.0771         73
  30.1142         75
  30.1514         65
  30.1885         73
  30.2257         83
  30.2628         67
  30.3000         87
  30.3371         98
  30.3743        146
  30.4114        143
  30.4486        117
  30.4857        100
  30.5229         82
  30.5600         72
  30.5972         76
  30.6343         69
  30.6715         64
  30.7086         89
  30.7458         61
  30.7829         67
  30.8201         66
  30.8572         75
  30.8944         69
  30.9315         82
  30.9687         82
  31.0058         69
  31.0430         67
  31.0801         66
  31.1173         68
  31.1544         64
  31.1916         69
  31.2287         74
  31.2659         57
  31.3030         67
  31.3402         66
  31.3774         69
  31.4145         60
  31.4517         67
  31.4888         70
  31.5260         63
  31.5631         69
  31.6003         69
  31.6374         72
  31.6746         59
  31.7117         62
  31.7489         60
  31.7860         70
  31.8232         66
  31.8603         79
  31.8975         73
  31.9346         64
  31.9718         57
  32.0089         59
  32.0461         53
  32.0832         51
  32.1204         56
  32.1575         65
  32.1947         62
  32.2318         63
  32.2690         56
  32.3061         59
  32.3433         75
  32.3804         63
  32.4176         71
  32.4547         80
  32.4919         72
  32.5290         84
  32.5662         73
  32.6033         69
  32.6405         55
  32.6776         56
  32.7148         58
  32.7519         77
  32.7891         57
  32.8262         80
  32.8634         57
  32.9006         59
  32.9377         49
  32.9749         61
  33.0120         49
  33.0492         58
  33.0863         47
  33.1235         59
  33.1606         69
  33.1978         67
  33.2349         62
  33.2721         61
  33.3092         52
  33.3464         76
  33.3835         59
  33.4207         58
  33.4578         64
  33.4950         61
  33.5321         63
  33.5693         60
  33.6064         44
  33.6436         56
  33.6807         42
  33.7179         63
  33.7550         61
  33.7922         55
  33.8293         49
  33.8665         57
  33.9036         55
  33.9408         55
  33.9779         41
  34.0151         58
  34.0522         49
  34.0894         60
  34.1265         49
  34.1637         74
  34.2008         63
  34.2380         70
  34.2751         66
  34.3123         64
  34.3494         62
  34.3866         49
  34.4238         52
  34.4609         54
  34.4981         50
  34.5352         72
  34.5724         54
  34.6095         68
  34.6467         51
  34.6838         68
  34.7210         61
  34.7581         74
  34.7953         75
  34.8324         62
  34.8696         74
  34.9067         65
  34.9439         57
  34.9810         57
  35.0182         42
  35.0553         48
  35.0925         59
  35.1296         61
  35.1668         55
  35.2039         43
  35.2411         44
  35.2782         51
  35.3154         56
  35.3525         54
  35.3897         65
  35.4268         57
  35.4640         42
  35.5011         57
  35.5383         54
  35.5754         52
  35.6126         40
  35.6497         50
  35.6869         50
  35.7240         50
  35.7612         52
  35.7983         53
  35.8355         56
  35.8726         60
  35.9098         49
  35.9469         48
  35.9841         48
  36.0213         49
  36.0584         54
  36.0956         46
  36.1327         49
  36.1699         33
  36.2070         49
  36.2442         46
  36.2813         49
  36.3185         35
  36.3556         36
  36.3928         38
  36.4299         42
  36.4671         47
  36.5042         51
  36.5414         49
  36.5785         44
  36.6157         44
  36.6528         47
  36.6900         58
  36.7271         42
  36.7643         39
  36.8014         41
  36.8386         38
  36.8757         48
  36.9129         42
  36.9500         46
  36.9872         58
  37.0243         57
  37.0615         60
  37.0986         59
  37.1358         52
  37.1729         39
  37.2101         41
  37.2472         37
  37.2844         40
  37.3215         46
  37.3587         37
  37.3958         38
  37.4330         71
  37.4701         56
  37.5073         45
  37.5445         60
  37.5816         37
  37.6188         51
  37.6559         44
  37.6931         49
  37.7302         38
  37.7674         50
  37.8045         54
  37.8417         42
  37.8788         43
  37.9160         38
  37.9531         53
  37.9903         42
  38.0274         43
  38.0646         41
  38.1017         44
  38.1389         38
  38.1760         46
  38.2132         42
  38.2503         47
  38.2875         53
  38.3246         38
  38.3618         38
  38.3989         37
  38.4361         36
  38.4732         35
  38.5104         50
  38.5475         32
  38.5847         41
  38.6218         30
  38.6590         41
  38.6961         34
  38.7333         33
  38.7704         41
  38.8076         44
  38.8447         46
  38.8819         34
  38.9190         55
  38.9562         36
  38.9933         30
  39.0305         35
  39.0677         35
  39.1048         47
  39.1420         33
  39.1791         41
  39.2163         39
  39.2534         40
  39.2906         35
  39.3277         34
  39.3649         32
  39.4020         42
  39.4392         41
  39.4763         27
  39.5135         44
  39.5506         41
  39.5878         31
  39.6249         28
  39.6621         48
  39.6992         37
  39.7364         41
  39.7735         36
  39.8107         40
  39.8478         31
  39.8850         42
  39.9221         39
  39.9593         42
  39.9964         39
  40.0336         46
  40.0707         32
  40.1079         30
  40.1450         40
  40.1822         40
  40.2193         32
  40.2565         43
  40.2936         41
  40.3308         34
  40.3679         43
  40.4051         41
  40.4422         40
  40.4794         34
  40.5165         38
  40.5537         38
  40.5908         35
  40.6280         42
  40.6652         32
  40.7023         46
  40.7395         27
  40.7766         36
  40.8138         38
  40.8509         50
  40.8881         37
  40.9252         45
  40.9624         42
  40.9995         44
  41.0367         44
  41.0738         42
  41.1110         30
  41.1481         36
  41.1853         38
  41.2224         40
  41.2596         37
  41.2967         38
  41.3339         48
  41.3710         39
  41.4082         36
  41.4453         29
  41.4825         41
  41.5196         36
  41.5568         40
  41.5939         38
  41.6311         31
  41.6682         35
  41.7054         37
  41.7425         40
  41.7797         37
  41.8168         39
  41.8540         40
  41.8911         39
  41.9283         35
  41.9654         31
  42.0026         34
  42.0397         20
  42.0769         30
  42.1140         25
  42.1512         31
  42.1884         35
  42.2255         37
  42.2627         33
  42.2998         36
  42.3370         25
  42.3741         35
  42.4113         33
  42.4484         41
  42.4856         36
  42.5227         32
  42.5599         48
  42.5970         40
  42.6342         20
  42.6713         35
  42.7085         34
  42.7456         37
  42.7828         40
  42.8199         34
  42.8571         35
  42.8942         40
  42.9314         32
  42.9685         46
  43.0057         42
  43.0428         32
  43.0800         48
  43.1171         34
  43.1543         33
  43.1914         44
  43.2286         45
  43.2657         51
  43.3029         29
  43.3400         44
  43.3772         40
  43.4143         50
  43.4515         41
  43.4886         70
  43.5258         77
  43.5629         37
  43.6001         33
  43.6372         52
  43.6744         34
  43.7116         34
  43.7487         32
  43.7859         49
  43.8230         23
  43.8602         26
  43.8973         28
  43.9345         30
  43.9716         31
  44.0088         34
  44.0459         33
  44.0831         37
  44.1202         33
  44.1574         45
  44.1945         33
  44.2317         35
  44.2688         42
  44.3060         43
  44.3431         49
  44.3803         38
  44.4174         35
  44.4546         35
  44.4917         33
  44.5289         36
  44.5660         33
  44.6032         48
  44.6403         36
  44.6775         33
  44.7146         48
  44.7518         33
  44.7889         37
  44.8261         39
  44.8632         31
  44.9004         40
  44.9375         33
  44.9747         34
  45.0118         36
  45.0490         51
  45.0861         33
  45.1233         44
  45.1604         33
  45.1976         32
  45.2347         35
  45.2719         28
  45.3091         35
  45.3462         31
  45.3834         35
  45.4205         34
  45.4577         40
  45.4948         36
  45.5320         24
  45.5691         31
  45.6063         31
  45.6434         22
  45.6806         32
  45.7177         37
  45.7549         28
  45.7920         25
  45.8292         27
  45.8663         28
  45.9035         41
  45.9406         36
  45.9778         45
  46.0149         36
  46.0521         34
  46.0892         27
  46.1264         32
  46.1635         35
  46.2007         26
  46.2378         34
  46.2750         30
  46.3121         39
  46.3493         35
  46.3864         35
  46.4236         29
  46.4607         37
  46.4979         27
  46.5350         28
  46.5722         37
  46.6093         37
  46.6465         27
  46.6836         30
  46.7208         33
  46.7579         35
  46.7951         29
  46.8323         24
  46.8694         26
  46.9066         23
  46.9437         36
  46.9809         23
  47.0180         32
  47.0552         29
  47.0923         31
  47.1295         30
  47.1666         32
  47.2038         31
  47.2409         25
  47.2781         49
  47.3152         32
  47.3524         32
  47.3895         29
  47.4267         32
  47.4638         27
  47.5010         24
  47.5381         30
  47.5753         25
  47.6124         30
  47.6496         31
  47.6867         27
  47.7239         34
  47.7610         35
  47.7982         38
  47.8353         33
  47.8725         27
  47.9096         40
  47.9468         34
  47.9839         31
  48.0211         24
  48.0582         29
  48.0954         30
  48.1325         37
  48.1697         42
  48.2068         18
  48.2440         33
  48.2811         31
  48.3183         29
  48.3555         23
  48.3926         24
  48.4298         21
  48.4669         33
  48.5041         39
  48.5412         23
  48.5784         31
  48.6155         28
  48.6527         26
  48.6898         35
  48.7270         34
  48.7641         24
  48.8013         35
  48.8384         40
  48.8756         35
  48.9127         44
  48.9499         71
  48.9870         49
  49.0242         33
  49.0613         44
  49.0985         40
  49.1356         38
  49.1728         32
  49.2099         23
  49.2471         27
  49.2842         32
  49.3214         26
  49.3585         29
  49.3957         28
  49.4328         42
  49.4700         25
  49.5071         33
  49.5443         39
  49.5814         24
  49.6186         32
  49.6557         24
  49.6929         29
  49.7300         36
  49.7672         30
  49.8043         33
  49.8415         27
  49.8786         27
  49.9158         18
  49.9530         35
  49.9901         37
  50.0273         25
  50.0644         30
  50.1016         22
  50.1387         29
  50.1759         41
  50.2130         30
  50.2502         33
  50.2873         31
  50.3245         38
  50.3616         32
  50.3988         26
  50.4359         39
  50.4731         30
  50.5102         35
  50.5474         32
  50.5845         16
  50.6217         35
  50.6588         28
  50.6960         39
  50.7331         43
  50.7703         32
  50.8074         28
  50.8446         36
  50.8817         22
  50.9189         26
  50.9560         29
  50.9932         31
  51.0303         38
  51.0675         29
  51.1046         39
  51.1418         30
  51.1789         35
  51.2161         27
  51.2532         28
  51.2904         37
  51.3275         28
  51.3647         25
  51.4018         35
  51.4390         36
  51.4762         30
  51.5133         39
  51.5505         47
  51.5876         32
  51.6248         27
  51.6619         27
  51.6991         35
  51.7362         27
  51.7734         21
  51.8105         33
  51.8477         32
  51.8848         29
  51.9220         24
  51.9591         29
  51.9963         28
  52.0334         30
  52.0706         39
  52.1077         36
  52.1449         34
  52.1820         29
  52.2192         31
  52.2563         35
  52.2935         26
  52.3306         32
  52.3678         21
  52.4049         24
  52.4421         33
  52.4792         30
  52.5164         30
  52.5535         33
  52.5907         38
  52.6278         22
  52.6650         30
  52.7021         23
  52.7393         20
  52.7764         34
  52.8136         31
  52.8507         28
  52.8879         30
  52.9250         32
  52.9622         24
  52.9994         33
  53.0365         28
  53.0737         35
  53.1108         17
  53.1480         21
  53.1851         29
  53.2223         32
  53.2594         28
  53.2966         31
  53.3337         38
  53.3709         23
  53.4080         22
  53.4452         30
  53.4823         27
  53.5195         24
  53.5566         36
  53.5938         34
  53.6309         27
  53.6681         24
  53.7052         29
  53.7424         35
  53.7795         27
  53.8167         26
  53.8538         32
  53.8910         24
  53.9281         39
  53.9653         35
  54.0024         44
  54.0396         33
  54.0767         33
  54.1139         25
  54.1510         43
  54.1882         27
  54.2253         34
  54.2625         19
  54.2996         27
  54.3368         33
  54.3739         31
  54.4111         29
  54.4482         22
  54.4854         24
  54.5225         25
  54.5597         36
  54.5969         19
  54.6340         27
  54.6712         28
  54.7083         29
  54.7455         21
  54.7826         27
  54.8198         22
  54.8569         22
  54.8941         37
  54.9312         35
  54.9684         22
  55.0055         33
  55.0427         24
  55.0798         29
  55.1170         22
  55.1541         31
  55.1913         25
  55.2284         21
  55.2656         32
  55.3027         23
  55.3399         33
  55.3770         28
  55.4142         20
  55.4513         34
  55.4885         22
  55.5256         24
  55.5628         31
  55.5999         21
  55.6371         18
  55.6742         36
  55.7114         20
  55.7485         31
  55.7857         20
  55.8228         38
  55.8600         31
  55.8971         33
  55.9343         25
  55.9714         28
  56.0086         33
  56.0457         22
  56.0829         20
  56.1201         35
  56.1572         39
  56.1944         43
  56.2315         34
  56.2687         35
  56.3058         27
  56.3430         38
  56.3801         25
  56.4173         23
  56.4544         31
  56.4916         20
  56.5287         22
  56.5659         28
  56.6030         24
  56.6402         30
  56.6773         34
  56.7145         27
  56.7516         26
  56.7888         31
  56.8259         27
  56.8631         24
  56.9002         22
  56.9374         20
  56.9745         28
  57.0117         28
  57.0488         27
  57.0860         19
  57.1231         25
  57.1603         27
  57.1974         32
  57.2346         24
  57.2717         23
  57.3089         27
  57.3460         23
  57.3832         32
  57.4203         24
  57.4575         19
  57.4946         27
  57.5318         29
  57.5689         31
  57.6061         27
  57.6433         26
  57.6804         28
  57.7176         21
  57.7547         30
  57.7919         31
  57.8290         21
  57.8662         23
  57.9033         26
  57.9405         28
  57.9776         28
  58.0148         29
  58.0519         42
  58.0891         27
  58.1262         22
  58.1634         23
  58.2005         38
  58.2377         25
  58.2748         33
  58.3120         31
  58.3491         30
  58.3863         31
  58.4234         37
  58.4606         23
  58.4977         38
  58.5349         29
  58.5720         29
  58.6092         27
  58.6463         30
  58.6835         19
  58.7206         28
  58.7578         25
  58.7949         22
  58.8321         26
  58.8692         33
  58.9064         25
  58.9435         24
  58.9807         30
  59.0178         26
  59.0550         30
  59.0921         21
  59.1293         26
  59.1664         28
  59.2036         20
  59.2408         29
  59.2779         23
  59.3151         39
  59.3522         25
  59.3894         20
  59.4265         26
  59.4637         36
  59.5008         21
  59.5380         33
  59.5751         29
  59.6123         34
  59.6494         23
  59.6866         34
  59.7237         20
  59.7609         24
  59.7980         22
  59.8352         27
  59.8723         40
  59.9095         24
  59.9466         28
  59.9838         31
  60.0024         22