File: notebooks/data/xrd_data/ML_20220721_19_SJD_4_LaB6-4min.uxd
; (content of file Y:\Sam\Apurva-07-20-2022\puck1\ML_20220721_19_SJD_0_LaB6-4min.raw)
_FILEVERSION = 3
_SAMPLE = ML_20220721_19_SJD_0_LaB6-4min
_+SAMPLE =
_SITE = USA
_USER = Administrator
_GONIOMETER_CODE = 20
; Goniometer : D8 theta/2theta, stage : Unknown
_ATTACHMENTS_CODE = 0
_GONIOMETER_RADIUS = 200.5
_FIXED_DIVSLIT = 0.6
_FIXED_SAMPLESLIT = 0
_SOLLER_SLITS = 2
_FIXED_DETSLIT = 9.55
_MONOCHROMATOR = 0
; Incident beam monochromator : None
_SOLLER_SLITS_2 = N
_THIN_FILM = N
_BETA_FILTER = Y
_FIXED_ANTISLIT = 5.89
_ANALYZER_CODE = 0
; Received beam analyzer : None
_DATEMEASURED = "25-Jul-2022 15:17:43"
_WL_UNIT = A
_WL1 = 1.5406
_WL2 = 1.54439
_WL3 = 1.39222
_WLRATIO = 0.5
_ANODE = Cu
_V4_INF_CREATOR = XRDWizard
_V4_INF_CREATOR_VERSION = V2.9.0.22
_V4_INF_WIZARD_VERSION = V2.9.0.22
_V4_INF_WIZARD_ADDINS = V2.9.0.22
_V4_INF_WIZARD_DOCTYPE = XRD
_V4_INF_OSUSER = McQueenLab
_V4_INF_USER = Administrator
_V4_INF_SITE = USA
_V4_INF_SAMPLEID = ML_20220721_19_SJD_0_LaB6-4min

; Data for range 1
_DRIVE = COUPLED
_STEPTIME = 11.28
_STEPSIZE = 0.0185756
_STEPMODE = C
_START = 5
_THETA = 2.5
_2THETA = 5
_KHI = 0
_PHI = 0
_X = 0
_Y = 0
_Z = 0
_DETECTOR = 5
; Detector type : Unknown
_DETECTORSLIT = unkn
_AUX1 = 0
_AUX2 = 0
_AUX3 = 0
_TIMESTARTED = 15
_TEMP_RATE = -1
_TEMP_DELAY = -1
_KV = 40
_MA = 40
_RANGE_WL = 1.5406
_3DPLANE = 0
_V4_ADDITIONALDETECTOR = 257
_V4_PSD2THETA = 3.3674
_V4_PSDCHANNEL1 = 0
_V4_PSDAPERTURE = 12.68
_V4_PSDTYPE = 5
_V4_PSDFIXED = 0
_V4_COUNTERS_MASK = 4096
_V4_DRIVES_MASK = 0
_V4_ENCODERS_MASK = 0
_2THETACOUNTS = 1
; 2THETA  PSD
   5.0000        256
   5.0372        290
   5.0743        253
   5.1115        259
   5.1486        280
   5.1858        278
   5.2229        273
   5.2601        246
   5.2972        251
   5.3344        265
   5.3715        243
   5.4087        244
   5.4458        239
   5.4830        233
   5.5201        227
   5.5573        216
   5.5944        230
   5.6316        205
   5.6687        205
   5.7059        225
   5.7430        213
   5.7802        207
   5.8173        221
   5.8545        195
   5.8916        209
   5.9288        220
   5.9659        231
   6.0031        203
   6.0402        202
   6.0774        173
   6.1145        207
   6.1517        218
   6.1888        188
   6.2260        213
   6.2631        180
   6.3003        198
   6.3374        189
   6.3746        198
   6.4117        180
   6.4489        189
   6.4860        197
   6.5232        163
   6.5604        163
   6.5975        172
   6.6347        199
   6.6718        194
   6.7090        180
   6.7461        182
   6.7833        155
   6.8204        191
   6.8576        190
   6.8947        181
   6.9319        168
   6.9690        159
   7.0062        174
   7.0433        165
   7.0805        142
   7.1176        158
   7.1548        172
   7.1919        168
   7.2291        155
   7.2662        166
   7.3034        171
   7.3405        143
   7.3777        168
   7.4148        160
   7.4520        157
   7.4891        164
   7.5263        169
   7.5634        155
   7.6006        170
   7.6377        193
   7.6749        176
   7.7120        182
   7.7492        158
   7.7863        183
   7.8235        139
   7.8606        181
   7.8978        182
   7.9349        207
   7.9721        187
   8.0092        181
   8.0464        189
   8.0835        173
   8.1207        205
   8.1579        203
   8.1950        189
   8.2322        196
   8.2693        215
   8.3065        227
   8.3436        186
   8.3808        176
   8.4179        191
   8.4551        224
   8.4922        183
   8.5294        192
   8.5665        211
   8.6037        199
   8.6408        205
   8.6780        231
   8.7151        207
   8.7523        219
   8.7894        210
   8.8266        219
   8.8637        186
   8.9009        179
   8.9380        215
   8.9752        214
   9.0123        204
   9.0495        214
   9.0866        227
   9.1238        224
   9.1609        200
   9.1981        211
   9.2352        215
   9.2724        220
   9.3095        243
   9.3467        229
   9.3838        227
   9.4210        196
   9.4581        230
   9.4953        196
   9.5324        221
   9.5696        228
   9.6067        242
   9.6439        207
   9.6811        246
   9.7182        251
   9.7554        236
   9.7925        228
   9.8297        241
   9.8668        239
   9.9040        247
   9.9411        231
   9.9783        282
  10.0154        283
  10.0526        220
  10.0897        257
  10.1269        246
  10.1640        249
  10.2012        247
  10.2383        222
  10.2755        274
  10.3126        260
  10.3498        239
  10.3869        235
  10.4241        241
  10.4612        218
  10.4984        265
  10.5355        252
  10.5727        261
  10.6098        256
  10.6470        270
  10.6841        254
  10.7213        225
  10.7584        240
  10.7956        217
  10.8327        235
  10.8699        237
  10.9070        235
  10.9442        203
  10.9813        258
  11.0185        253
  11.0556        222
  11.0928        241
  11.1299        259
  11.1671        252
  11.2043        230
  11.2414        228
  11.2786        218
  11.3157        217
  11.3529        234
  11.3900        251
  11.4272        236
  11.4643        219
  11.5015        258
  11.5386        244
  11.5758        248
  11.6129        253
  11.6501        237
  11.6872        235
  11.7244        231
  11.7615        235
  11.7987        245
  11.8358        210
  11.8730        236
  11.9101        232
  11.9473        225
  11.9844        241
  12.0216        247
  12.0587        241
  12.0959        219
  12.1330        234
  12.1702        240
  12.2073        262
  12.2445        221
  12.2816        209
  12.3188        211
  12.3559        210
  12.3931        204
  12.4302        223
  12.4674        232
  12.5045        215
  12.5417        210
  12.5788        221
  12.6160        226
  12.6531        236
  12.6903        229
  12.7274        218
  12.7646        199
  12.8018        258
  12.8389        219
  12.8761        192
  12.9132        221
  12.9504        225
  12.9875        246
  13.0247        210
  13.0618        195
  13.0990        211
  13.1361        201
  13.1733        219
  13.2104        199
  13.2476        190
  13.2847        192
  13.3219        213
  13.3590        209
  13.3962        212
  13.4333        216
  13.4705        202
  13.5076        194
  13.5448        184
  13.5819        194
  13.6191        210
  13.6562        178
  13.6934        191
  13.7305        212
  13.7677        189
  13.8048        199
  13.8420        201
  13.8791        181
  13.9163        180
  13.9534        184
  13.9906        198
  14.0277        174
  14.0649        179
  14.1020        198
  14.1392        197
  14.1763        158
  14.2135        181
  14.2506        173
  14.2878        183
  14.3250        201
  14.3621        179
  14.3993        163
  14.4364        182
  14.4736        155
  14.5107        181
  14.5479        178
  14.5850        187
  14.6222        167
  14.6593        184
  14.6965        150
  14.7336        196
  14.7708        165
  14.8079        195
  14.8451        147
  14.8822        174
  14.9194        177
  14.9565        162
  14.9937        186
  15.0308        155
  15.0680        169
  15.1051        164
  15.1423        159
  15.1794        165
  15.2166        171
  15.2537        164
  15.2909        177
  15.3280        155
  15.3652        160
  15.4023        160
  15.4395        174
  15.4766        181
  15.5138        163
  15.5509        182
  15.5881        161
  15.6252        165
  15.6624        162
  15.6995        175
  15.7367        159
  15.7738        147
  15.8110        159
  15.8482        158
  15.8853        143
  15.9225        171
  15.9596        178
  15.9968        170
  16.0339        153
  16.0711        170
  16.1082        171
  16.1454        167
  16.1825        183
  16.2197        154
  16.2568        193
  16.2940        158
  16.3311        169
  16.3683        160
  16.4054        169
  16.4426        176
  16.4797        160
  16.5169        151
  16.5540        168
  16.5912        147
  16.6283        141
  16.6655        169
  16.7026        164
  16.7398        148
  16.7769        157
  16.8141        183
  16.8512        165
  16.8884        167
  16.9255        159
  16.9627        150
  16.9998        164
  17.0370        152
  17.0741        158
  17.1113        156
  17.1484        147
  17.1856        173
  17.2227        176
  17.2599        185
  17.2970        158
  17.3342        157
  17.3713        184
  17.4085        178
  17.4457        151
  17.4828        159
  17.5200        157
  17.5571        151
  17.5943        162
  17.6314        184
  17.6686        176
  17.7057        161
  17.7429        162
  17.7800        188
  17.8172        153
  17.8543        188
  17.8915        158
  17.9286        176
  17.9658        148
  18.0029        162
  18.0401        162
  18.0772        164
  18.1144        177
  18.1515        151
  18.1887        171
  18.2258        159
  18.2630        168
  18.3001        166
  18.3373        152
  18.3744        167
  18.4116        175
  18.4487        175
  18.4859        150
  18.5230        167
  18.5602        184
  18.5973        171
  18.6345        146
  18.6716        201
  18.7088        172
  18.7459        182
  18.7831        181
  18.8202        194
  18.8574        153
  18.8945        172
  18.9317        191
  18.9689        176
  19.0060        179
  19.0432        159
  19.0803        192
  19.1175        209
  19.1546        177
  19.1918        177
  19.2289        177
  19.2661        151
  19.3032        163
  19.3404        179
  19.3775        194
  19.4147        179
  19.4518        161
  19.4890        170
  19.5261        186
  19.5633        162
  19.6004        174
  19.6376        186
  19.6747        183
  19.7119        184
  19.7490        180
  19.7862        182
  19.8233        189
  19.8605        163
  19.8976        169
  19.9348        156
  19.9719        179
  20.0091        171
  20.0462        187
  20.0834        189
  20.1205        188
  20.1577        188
  20.1948        164
  20.2320        158
  20.2691        164
  20.3063        179
  20.3434        169
  20.3806        190
  20.4177        167
  20.4549        200
  20.4921        169
  20.5292        181
  20.5664        201
  20.6035        192
  20.6407        183
  20.6778        180
  20.7150        201
  20.7521        217
  20.7893        177
  20.8264        200
  20.8636        194
  20.9007        182
  20.9379        196
  20.9750        197
  21.0122        204
  21.0493        222
  21.0865        194
  21.1236        215
  21.1608        257
  21.1979        298
  21.2351        332
  21.2722        298
  21.3094        339
  21.3465        524
  21.3837        439
  21.4208        336
  21.4580        246
  21.4951        214
  21.5323        201
  21.5694        194
  21.6066        224
  21.6437        201
  21.6809        176
  21.7180        193
  21.7552        193
  21.7923        174
  21.8295        206
  21.8666        196
  21.9038        195
  21.9409        185
  21.9781        218
  22.0152        207
  22.0524        196
  22.0896        157
  22.1267        183
  22.1639        199
  22.2010        208
  22.2382        203
  22.2753        179
  22.3125        190
  22.3496        208
  22.3868        221
  22.4239        206
  22.4611        194
  22.4982        197
  22.5354        209
  22.5725        198
  22.6097        207
  22.6468        191
  22.6840        183
  22.7211        195
  22.7583        197
  22.7954        169
  22.8326        189
  22.8697        212
  22.9069        198
  22.9440        180
  22.9812        200
  23.0183        218
  23.0555        196
  23.0926        204
  23.1298        201
  23.1669        205
  23.2041        196
  23.2412        201
  23.2784        201
  23.3155        200
  23.3527        196
  23.3898        188
  23.4270        222
  23.4641        200
  23.5013        177
  23.5384        189
  23.5756        177
  23.6128        223
  23.6499        185
  23.6871        210
  23.7242        211
  23.7614        222
  23.7985        190
  23.8357        218
  23.8728        200
  23.9100        205
  23.9471        200
  23.9843        224
  24.0214        209
  24.0586        203
  24.0957        195
  24.1329        193
  24.1700        202
  24.2072        227
  24.2443        237
  24.2815        218
  24.3186        239
  24.3558        219
  24.3929        219
  24.4301        197
  24.4672        201
  24.5044        203
  24.5415        189
  24.5787        188
  24.6158        198
  24.6530        207
  24.6901        231
  24.7273        180
  24.7644        200
  24.8016        190
  24.8387        207
  24.8759        188
  24.9130        207
  24.9502        216
  24.9873        193
  25.0245        201
  25.0616        219
  25.0988        190
  25.1360        188
  25.1731        193
  25.2103        196
  25.2474        184
  25.2846        193
  25.3217        215
  25.3589        212
  25.3960        220
  25.4332        189
  25.4703        204
  25.5075        192
  25.5446        183
  25.5818        190
  25.6189        178
  25.6561        186
  25.6932        195
  25.7304        182
  25.7675        181
  25.8047        222
  25.8418        193
  25.8790        170
  25.9161        247
  25.9533        234
  25.9904        213
  26.0276        167
  26.0647        198
  26.1019        200
  26.1390        191
  26.1762        188
  26.2133        189
  26.2505        183
  26.2876        191
  26.3248        222
  26.3619        190
  26.3991        207
  26.4362        193
  26.4734        212
  26.5105        169
  26.5477        198
  26.5848        188
  26.6220        217
  26.6591        177
  26.6963        186
  26.7335        191
  26.7706        200
  26.8078        198
  26.8449        187
  26.8821        193
  26.9192        203
  26.9564        192
  26.9935        183
  27.0307        206
  27.0678        200
  27.1050        210
  27.1421        206
  27.1793        226
  27.2164        254
  27.2536        219
  27.2907        230
  27.3279        195
  27.3650        185
  27.4022        184
  27.4393        191
  27.4765        190
  27.5136        190
  27.5508        196
  27.5879        152
  27.6251        188
  27.6622        180
  27.6994        189
  27.7365        207
  27.7737        182
  27.8108        178
  27.8480        190
  27.8851        173
  27.9223        175
  27.9594        193
  27.9966        159
  28.0337        188
  28.0709        152
  28.1080        180
  28.1452        152
  28.1823        178
  28.2195        177
  28.2567        179
  28.2938        157
  28.3310        155
  28.3681        171
  28.4053        181
  28.4424        174
  28.4796        161
  28.5167        183
  28.5539        176
  28.5910        183
  28.6282        164
  28.6653        182
  28.7025        160
  28.7396        186
  28.7768        167
  28.8139        185
  28.8511        175
  28.8882        194
  28.9254        152
  28.9625        163
  28.9997        147
  29.0368        163
  29.0740        180
  29.1111        158
  29.1483        163
  29.1854        178
  29.2226        151
  29.2597        161
  29.2969        173
  29.3340        147
  29.3712        141
  29.4083        159
  29.4455        169
  29.4826        164
  29.5198        165
  29.5569        161
  29.5941        141
  29.6312        169
  29.6684        145
  29.7055        146
  29.7427        151
  29.7799        175
  29.8170        153
  29.8542        186
  29.8913        182
  29.9285        164
  29.9656        158
  30.0028        153
  30.0399        166
  30.0771        168
  30.1142        161
  30.1514        168
  30.1885        171
  30.2257        182
  30.2628        190
  30.3000        158
  30.3371        197
  30.3743        316
  30.4114        314
  30.4486        256
  30.4857        214
  30.5229        184
  30.5600        161
  30.5972        182
  30.6343        142
  30.6715        153
  30.7086        157
  30.7458        162
  30.7829        139
  30.8201        140
  30.8572        155
  30.8944        162
  30.9315        149
  30.9687        136
  31.0058        144
  31.0430        140
  31.0801        139
  31.1173        147
  31.1544        140
  31.1916        148
  31.2287        126
  31.2659        146
  31.3030        124
  31.3402        147
  31.3774        153
  31.4145        148
  31.4517        146
  31.4888        152
  31.5260        115
  31.5631        137
  31.6003        121
  31.6374        132
  31.6746        151
  31.7117        145
  31.7489        152
  31.7860        145
  31.8232        146
  31.8603        139
  31.8975        142
  31.9346        153
  31.9718        131
  32.0089        137
  32.0461        125
  32.0832        134
  32.1204        128
  32.1575        137
  32.1947        130
  32.2318        129
  32.2690        155
  32.3061        116
  32.3433        135
  32.3804        133
  32.4176        142
  32.4547        156
  32.4919        140
  32.5290        152
  32.5662        155
  32.6033        119
  32.6405        139
  32.6776        115
  32.7148        131
  32.7519        102
  32.7891        120
  32.8262        107
  32.8634        138
  32.9006        129
  32.9377        106
  32.9749        112
  33.0120        131
  33.0492        127
  33.0863        128
  33.1235        127
  33.1606        113
  33.1978        116
  33.2349        137
  33.2721        132
  33.3092        109
  33.3464        149
  33.3835        125
  33.4207        102
  33.4578        120
  33.4950        137
  33.5321        123
  33.5693        113
  33.6064        121
  33.6436        107
  33.6807        112
  33.7179        112
  33.7550        106
  33.7922        120
  33.8293        115
  33.8665        106
  33.9036        120
  33.9408        142
  33.9779        109
  34.0151        107
  34.0522        124
  34.0894        121
  34.1265        119
  34.1637        123
  34.2008        122
  34.2380        132
  34.2751        119
  34.3123        133
  34.3494        121
  34.3866        100
  34.4238        123
  34.4609        132
  34.4981        109
  34.5352        112
  34.5724        119
  34.6095        117
  34.6467        124
  34.6838        129
  34.7210        121
  34.7581        166
  34.7953        151
  34.8324        141
  34.8696        141
  34.9067        120
  34.9439        110
  34.9810        105
  35.0182        109
  35.0553        112
  35.0925        105
  35.1296        115
  35.1668        105
  35.2039        100
  35.2411        124
  35.2782         95
  35.3154        108
  35.3525        100
  35.3897         93
  35.4268        104
  35.4640        113
  35.5011         97
  35.5383        101
  35.5754        131
  35.6126         99
  35.6497         90
  35.6869        123
  35.7240         92
  35.7612         95
  35.7983        115
  35.8355         98
  35.8726         98
  35.9098         99
  35.9469         97
  35.9841        105
  36.0213        102
  36.0584        108
  36.0956        100
  36.1327        102
  36.1699        102
  36.2070        106
  36.2442        116
  36.2813        103
  36.3185        103
  36.3556         81
  36.3928         97
  36.4299        105
  36.4671         83
  36.5042         85
  36.5414        109
  36.5785         98
  36.6157         92
  36.6528         85
  36.6900         85
  36.7271         94
  36.7643         73
  36.8014         96
  36.8386         91
  36.8757         94
  36.9129        109
  36.9500         88
  36.9872         93
  37.0243        116
  37.0615        108
  37.0986         85
  37.1358         82
  37.1729         83
  37.2101        101
  37.2472        106
  37.2844         77
  37.3215        112
  37.3587        109
  37.3958        116
  37.4330        162
  37.4701        123
  37.5073        118
  37.5445        125
  37.5816         99
  37.6188         95
  37.6559        106
  37.6931        101
  37.7302         98
  37.7674         99
  37.8045         83
  37.8417         69
  37.8788        102
  37.9160         84
  37.9531        102
  37.9903         75
  38.0274         77
  38.0646         82
  38.1017        102
  38.1389         99
  38.1760         95
  38.2132         92
  38.2503         95
  38.2875         74
  38.3246         90
  38.3618         84
  38.3989        107
  38.4361         87
  38.4732         85
  38.5104         85
  38.5475         98
  38.5847         81
  38.6218         92
  38.6590         89
  38.6961         69
  38.7333         90
  38.7704         67
  38.8076         90
  38.8447         82
  38.8819         63
  38.9190         89
  38.9562         72
  38.9933         81
  39.0305         96
  39.0677         84
  39.1048         94
  39.1420         80
  39.1791         83
  39.2163         91
  39.2534         66
  39.2906         71
  39.3277         73
  39.3649         97
  39.4020         71
  39.4392         72
  39.4763         74
  39.5135         81
  39.5506         89
  39.5878         86
  39.6249         80
  39.6621         79
  39.6992         76
  39.7364         80
  39.7735         70
  39.8107         79
  39.8478         78
  39.8850         77
  39.9221         75
  39.9593         83
  39.9964         75
  40.0336         79
  40.0707         80
  40.1079         77
  40.1450         81
  40.1822         79
  40.2193         84
  40.2565         85
  40.2936         79
  40.3308         79
  40.3679         83
  40.4051         73
  40.4422         74
  40.4794         82
  40.5165         73
  40.5537         82
  40.5908         77
  40.6280         85
  40.6652         71
  40.7023         69
  40.7395         82
  40.7766         67
  40.8138         78
  40.8509         86
  40.8881         83
  40.9252         89
  40.9624         79
  40.9995         92
  41.0367         79
  41.0738        111
  41.1110         71
  41.1481         62
  41.1853         81
  41.2224         73
  41.2596         89
  41.2967         89
  41.3339         65
  41.3710         92
  41.4082         83
  41.4453         94
  41.4825         66
  41.5196         80
  41.5568         70
  41.5939         77
  41.6311         67
  41.6682         97
  41.7054         81
  41.7425         69
  41.7797         76
  41.8168         75
  41.8540         83
  41.8911         81
  41.9283         79
  41.9654         62
  42.0026         71
  42.0397         85
  42.0769         93
  42.1140         87
  42.1512         75
  42.1884         78
  42.2255         73
  42.2627         74
  42.2998         69
  42.3370         73
  42.3741         81
  42.4113         94
  42.4484         77
  42.4856         76
  42.5227         82
  42.5599         70
  42.5970         84
  42.6342         76
  42.6713         63
  42.7085         65
  42.7456         66
  42.7828         73
  42.8199         66
  42.8571         74
  42.8942         75
  42.9314         68
  42.9685         71
  43.0057         88
  43.0428         70
  43.0800         64
  43.1171         84
  43.1543         82
  43.1914        102
  43.2286         86
  43.2657         91
  43.3029         80
  43.3400         92
  43.3772         91
  43.4143         77
  43.4515         97
  43.4886        125
  43.5258        119
  43.5629         87
  43.6001         96
  43.6372        103
  43.6744         76
  43.7116         87
  43.7487         71
  43.7859         81
  43.8230         91
  43.8602         69
  43.8973         88
  43.9345         75
  43.9716         79
  44.0088         80
  44.0459         71
  44.0831         60
  44.1202         72
  44.1574         62
  44.1945         70
  44.2317         68
  44.2688         69
  44.3060         56
  44.3431         77
  44.3803         72
  44.4174         81
  44.4546         82
  44.4917         71
  44.5289         71
  44.5660         84
  44.6032         64
  44.6403         60
  44.6775         69
  44.7146         85
  44.7518         77
  44.7889         99
  44.8261         85
  44.8632         70
  44.9004         71
  44.9375         78
  44.9747         59
  45.0118         60
  45.0490         75
  45.0861         76
  45.1233         70
  45.1604         60
  45.1976         59
  45.2347         63
  45.2719         67
  45.3091         70
  45.3462         69
  45.3834         84
  45.4205         66
  45.4577         62
  45.4948         68
  45.5320         89
  45.5691         76
  45.6063         59
  45.6434         56
  45.6806         68
  45.7177         73
  45.7549         76
  45.7920         56
  45.8292         55
  45.8663         88
  45.9035         79
  45.9406         85
  45.9778         53
  46.0149         72
  46.0521         63
  46.0892         64
  46.1264         69
  46.1635         67
  46.2007         69
  46.2378         67
  46.2750         53
  46.3121         77
  46.3493         52
  46.3864         81
  46.4236         77
  46.4607         70
  46.4979         69
  46.5350         67
  46.5722         65
  46.6093         77
  46.6465         62
  46.6836         54
  46.7208         74
  46.7579         65
  46.7951         64
  46.8323         80
  46.8694         70
  46.9066         60
  46.9437         63
  46.9809         63
  47.0180         80
  47.0552         58
  47.0923         64
  47.1295         64
  47.1666         54
  47.2038         71
  47.2409         60
  47.2781         58
  47.3152         35
  47.3524         58
  47.3895         72
  47.4267         77
  47.4638         62
  47.5010         59
  47.5381         68
  47.5753         78
  47.6124         67
  47.6496         59
  47.6867         67
  47.7239         75
  47.7610         67
  47.7982         53
  47.8353         80
  47.8725         74
  47.9096         55
  47.9468         62
  47.9839         76
  48.0211         66
  48.0582         66
  48.0954         72
  48.1325         52
  48.1697         57
  48.2068         67
  48.2440         64
  48.2811         63
  48.3183         58
  48.3555         62
  48.3926         72
  48.4298         61
  48.4669         65
  48.5041         58
  48.5412         70
  48.5784         63
  48.6155         63
  48.6527         74
  48.6898         69
  48.7270         49
  48.7641         78
  48.8013         76
  48.8384         57
  48.8756         66
  48.9127         84
  48.9499        115
  48.9870        103
  49.0242         78
  49.0613         92
  49.0985        100
  49.1356         91
  49.1728         74
  49.2099         54
  49.2471         70
  49.2842         64
  49.3214         54
  49.3585         60
  49.3957         49
  49.4328         64
  49.4700         58
  49.5071         58
  49.5443         62
  49.5814         70
  49.6186         57
  49.6557         64
  49.6929         77
  49.7300         56
  49.7672         62
  49.8043         68
  49.8415         60
  49.8786         51
  49.9158         59
  49.9530         58
  49.9901         68
  50.0273         70
  50.0644         60
  50.1016         59
  50.1387         66
  50.1759         68
  50.2130         60
  50.2502         66
  50.2873         62
  50.3245         68
  50.3616         67
  50.3988         54
  50.4359         56
  50.4731         70
  50.5102         53
  50.5474         59
  50.5845         74
  50.6217         55
  50.6588         59
  50.6960         62
  50.7331         68
  50.7703         63
  50.8074         48
  50.8446         64
  50.8817         58
  50.9189         52
  50.9560         50
  50.9932         61
  51.0303         54
  51.0675         69
  51.1046         46
  51.1418         68
  51.1789         61
  51.2161         67
  51.2532         42
  51.2904         63
  51.3275         58
  51.3647         59
  51.4018         70
  51.4390         67
  51.4762         63
  51.5133         58
  51.5505         63
  51.5876         66
  51.6248         59
  51.6619         68
  51.6991         58
  51.7362         65
  51.7734         64
  51.8105         67
  51.8477         63
  51.8848         73
  51.9220         69
  51.9591         74
  51.9963         67
  52.0334         75
  52.0706         63
  52.1077         65
  52.1449         70
  52.1820         61
  52.2192         62
  52.2563         73
  52.2935         46
  52.3306         53
  52.3678         69
  52.4049         57
  52.4421         54
  52.4792         55
  52.5164         68
  52.5535         65
  52.5907         65
  52.6278         54
  52.6650         52
  52.7021         49
  52.7393         61
  52.7764         50
  52.8136         66
  52.8507         74
  52.8879         52
  52.9250         66
  52.9622         63
  52.9994         58
  53.0365         58
  53.0737         69
  53.1108         66
  53.1480         52
  53.1851         59
  53.2223         56
  53.2594         71
  53.2966         49
  53.3337         67
  53.3709         50
  53.4080         67
  53.4452         56
  53.4823         50
  53.5195         59
  53.5566         59
  53.5938         66
  53.6309         58
  53.6681         59
  53.7052         74
  53.7424         59
  53.7795         69
  53.8167         59
  53.8538         75
  53.8910         53
  53.9281         46
  53.9653         74
  54.0024         76
  54.0396         79
  54.0767         76
  54.1139         82
  54.1510         70
  54.1882         56
  54.2253         70
  54.2625         71
  54.2996         50
  54.3368         70
  54.3739         57
  54.4111         62
  54.4482         54
  54.4854         65
  54.5225         64
  54.5597         74
  54.5969         71
  54.6340         41
  54.6712         59
  54.7083         62
  54.7455         62
  54.7826         64
  54.8198         54
  54.8569         58
  54.8941         55
  54.9312         61
  54.9684         46
  55.0055         63
  55.0427         63
  55.0798         57
  55.1170         48
  55.1541         48
  55.1913         65
  55.2284         53
  55.2656         56
  55.3027         52
  55.3399         52
  55.3770         52
  55.4142         57
  55.4513         60
  55.4885         52
  55.5256         57
  55.5628         53
  55.5999         45
  55.6371         58
  55.6742         71
  55.7114         54
  55.7485         68
  55.7857         54
  55.8228         60
  55.8600         58
  55.8971         62
  55.9343         56
  55.9714         49
  56.0086         56
  56.0457         67
  56.0829         43
  56.1201         62
  56.1572         66
  56.1944         49
  56.2315         73
  56.2687         62
  56.3058         56
  56.3430         61
  56.3801         64
  56.4173         45
  56.4544         61
  56.4916         58
  56.5287         63
  56.5659         51
  56.6030         58
  56.6402         54
  56.6773         62
  56.7145         60
  56.7516         51
  56.7888         48
  56.8259         65
  56.8631         57
  56.9002         63
  56.9374         58
  56.9745         58
  57.0117         60
  57.0488         51
  57.0860         61
  57.1231         55
  57.1603         67
  57.1974         60
  57.2346         66
  57.2717         50
  57.3089         60
  57.3460         55
  57.3832         59
  57.4203         52
  57.4575         51
  57.4946         57
  57.5318         50
  57.5689         54
  57.6061         73
  57.6433         56
  57.6804         50
  57.7176         55
  57.7547         60
  57.7919         54
  57.8290         56
  57.8662         60
  57.9033         65
  57.9405         64
  57.9776         64
  58.0148         63
  58.0519         58
  58.0891         47
  58.1262         54
  58.1634         48
  58.2005         66
  58.2377         57
  58.2748         64
  58.3120         54
  58.3491         47
  58.3863         41
  58.4234         67
  58.4606         57
  58.4977         62
  58.5349         51
  58.5720         64
  58.6092         46
  58.6463         55
  58.6835         59
  58.7206         53
  58.7578         59
  58.7949         51
  58.8321         55
  58.8692         44
  58.9064         53
  58.9435         47
  58.9807         55
  59.0178         60
  59.0550         64
  59.0921         67
  59.1293         69
  59.1664         49
  59.2036         49
  59.2408         59
  59.2779         65
  59.3151         53
  59.3522         52
  59.3894         56
  59.4265         71
  59.4637         72
  59.5008         62
  59.5380         56
  59.5751         49
  59.6123         62
  59.6494         63
  59.6866         39
  59.7237         61
  59.7609         60
  59.7980         43
  59.8352         56
  59.8723         44
  59.9095         63
  59.9466         42
  59.9838         48
  60.0024         61