File: notebooks/data/xrd_data/ML_20220720_4_SJD_4_LaB6-1min.csv
;,2THETA,
5.0000,105
5.0372,87
5.0743,86
5.1115,87
5.1486,74
5.1858,108
5.2229,87
5.2601,74
5.2972,85
5.3344,85
5.3715,89
5.4087,84
5.4458,86
5.4830,90
5.5201,89
5.5573,89
5.5944,67
5.6316,81
5.6687,81
5.7059,78
5.7430,82
5.7802,71
5.8173,65
5.8545,66
5.8916,73
5.9288,76
5.9659,70
6.0031,77
6.0402,70
6.0774,66
6.1145,56
6.1517,64
6.1888,73
6.2260,72
6.2631,61
6.3003,62
6.3374,81
6.3746,71
6.4117,66
6.4489,53
6.4860,58
6.5232,47
6.5604,64
6.5975,56
6.6347,50
6.6718,63
6.7090,64
6.7461,66
6.7833,82
6.8204,55
6.8576,74
6.8947,56
6.9319,62
6.9690,58
7.0062,47
7.0433,44
7.0805,52
7.1176,61
7.1548,59
7.1919,57
7.2291,69
7.2662,60
7.3034,63
7.3405,50
7.3777,61
7.4148,51
7.4520,64
7.4891,71
7.5263,50
7.5634,60
7.6006,65
7.6377,65
7.6749,64
7.7120,66
7.7492,66
7.7863,58
7.8235,84
7.8606,63
7.8978,70
7.9349,70
7.9721,67
8.0092,69
8.0464,69
8.0835,71
8.1207,62
8.1579,74
8.1950,64
8.2322,69
8.2693,63
8.3065,68
8.3436,70
8.3808,57
8.4179,69
8.4551,74
8.4922,64
8.5294,75
8.5665,78
8.6037,68
8.6408,64
8.6780,69
8.7151,73
8.7523,56
8.7894,75
8.8266,92
8.8637,67
8.9009,67
8.9380,75
8.9752,70
9.0123,65
9.0495,86
9.0866,68
9.1238,74
9.1609,72
9.1981,84
9.2352,72
9.2724,79
9.3095,83
9.3467,90
9.3838,77
9.4210,74
9.4581,78
9.4953,79
9.5324,77
9.5696,85
9.6067,72
9.6439,94
9.6811,89
9.7182,79
9.7554,80
9.7925,77
9.8297,92
9.8668,93
9.9040,83
9.9411,86
9.9783,96
10.0154,98
10.0526,77
10.0897,85
10.1269,77
10.1640,105
10.2012,86
10.2383,81
10.2755,84
10.3126,84
10.3498,101
10.3869,86
10.4241,81
10.4612,70
10.4984,90
10.5355,74
10.5727,84
10.6098,103
10.6470,70
10.6841,65
10.7213,110
10.7584,103
10.7956,99
10.8327,81
10.8699,80
10.9070,100
10.9442,86
10.9813,87
11.0185,81
11.0556,83
11.0928,81
11.1299,85
11.1671,85
11.2043,84
11.2414,64
11.2786,102
11.3157,89
11.3529,69
11.3900,84
11.4272,86
11.4643,89
11.5015,92
11.5386,88
11.5758,72
11.6129,93
11.6501,86
11.6872,90
11.7244,84
11.7615,84
11.7987,82
11.8358,87
11.8730,85
11.9101,73
11.9473,73
11.9844,80
12.0216,82
12.0587,90
12.0959,84
12.1330,90
12.1702,78
12.2073,73
12.2445,76
12.2816,71
12.3188,88
12.3559,78
12.3931,96
12.4302,80
12.4674,81
12.5045,78
12.5417,81
12.5788,60
12.6160,82
12.6531,70
12.6903,72
12.7274,78
12.7646,89
12.8018,69
12.8389,75
12.8761,80
12.9132,77
12.9504,77
12.9875,75
13.0247,62
13.0618,62
13.0990,79
13.1361,49
13.1733,59
13.2104,84
13.2476,66
13.2847,88
13.3219,56
13.3590,69
13.3962,76
13.4333,59
13.4705,62
13.5076,65
13.5448,82
13.5819,69
13.6191,68
13.6562,61
13.6934,78
13.7305,66
13.7677,70
13.8048,64
13.8420,71
13.8791,68
13.9163,68
13.9534,71
13.9906,67
14.0277,85
14.0649,72
14.1020,63
14.1392,60
14.1763,83
14.2135,73
14.2506,65
14.2878,75
14.3250,71
14.3621,58
14.3993,59
14.4364,64
14.4736,55
14.5107,51
14.5479,53
14.5850,69
14.6222,65
14.6593,59
14.6965,49
14.7336,40
14.7708,56
14.8079,72
14.8451,58
14.8822,58
14.9194,67
14.9565,72
14.9937,59
15.0308,63
15.0680,70
15.1051,58
15.1423,56
15.1794,54
15.2166,49
15.2537,56
15.2909,61
15.3280,65
15.3652,65
15.4023,51
15.4395,56
15.4766,55
15.5138,58
15.5509,51
15.5881,67
15.6252,66
15.6624,56
15.6995,53
15.7367,59
15.7738,64
15.8110,53
15.8482,67
15.8853,54
15.9225,55
15.9596,73
15.9968,60
16.0339,50
16.0711,45
16.1082,54
16.1454,53
16.1825,61
16.2197,57
16.2568,55
16.2940,62
16.3311,55
16.3683,44
16.4054,44
16.4426,51
16.4797,58
16.5169,66
16.5540,63
16.5912,73
16.6283,61
16.6655,59
16.7026,59
16.7398,38
16.7769,61
16.8141,80
16.8512,56
16.8884,54
16.9255,68
16.9627,65
16.9998,49
17.0370,63
17.0741,55
17.1113,56
17.1484,64
17.1856,54
17.2227,58
17.2599,61
17.2970,81
17.3342,59
17.3713,63
17.4085,62
17.4457,62
17.4828,66
17.5200,37
17.5571,51
17.5943,54
17.6314,66
17.6686,65
17.7057,71
17.7429,73
17.7800,59
17.8172,58
17.8543,49
17.8915,61
17.9286,70
17.9658,58
18.0029,68
18.0401,43
18.0772,61
18.1144,48
18.1515,63
18.1887,53
18.2258,61
18.2630,55
18.3001,61
18.3373,77
18.3744,59
18.4116,65
18.4487,53
18.4859,66
18.5230,60
18.5602,53
18.5973,35
18.6345,65
18.6716,46
18.7088,53
18.7459,71
18.7831,59
18.8202,70
18.8574,70
18.8945,67
18.9317,57
18.9689,63
19.0060,56
19.0432,68
19.0803,71
19.1175,50
19.1546,70
19.1918,56
19.2289,64
19.2661,59
19.3032,55
19.3404,65
19.3775,61
19.4147,52
19.4518,56
19.4890,61
19.5261,64
19.5633,63
19.6004,56
19.6376,66
19.6747,61
19.7119,63
19.7490,74
19.7862,61
19.8233,57
19.8605,65
19.8976,64
19.9348,77
19.9719,66
20.0091,65
20.0462,58
20.0834,64
20.1205,56
20.1577,55
20.1948,61
20.2320,73
20.2691,59
20.3063,62
20.3434,68
20.3806,56
20.4177,75
20.4549,60
20.4921,65
20.5292,67
20.5664,58
20.6035,54
20.6407,65
20.6778,79
20.7150,54
20.7521,56
20.7893,71
20.8264,66
20.8636,67
20.9007,66
20.9379,79
20.9750,79
21.0122,78
21.0493,75
21.0865,82
21.1236,70
21.1608,86
21.1979,109
21.2351,111
21.2722,105
21.3094,123
21.3465,171
21.3837,139
21.4208,92
21.4580,75
21.4951,72
21.5323,75
21.5694,68
21.6066,85
21.6437,62
21.6809,85
21.7180,63
21.7552,81
21.7923,57
21.8295,66
21.8666,70
21.9038,75
21.9409,69
21.9781,59
22.0152,76
22.0524,67
22.0896,63
22.1267,73
22.1639,68
22.2010,64
22.2382,76
22.2753,70
22.3125,68
22.3496,71
22.3868,62
22.4239,65
22.4611,76
22.4982,80
22.5354,63
22.5725,65
22.6097,67
22.6468,60
22.6840,70
22.7211,66
22.7583,89
22.7954,77
22.8326,66
22.8697,74
22.9069,70
22.9440,84
22.9812,67
23.0183,81
23.0555,59
23.0926,86
23.1298,79
23.1669,75
23.2041,80
23.2412,64
23.2784,86
23.3155,67
23.3527,60
23.3898,52
23.4270,58
23.4641,69
23.5013,69
23.5384,79
23.5756,71
23.6128,67
23.6499,63
23.6871,69
23.7242,81
23.7614,77
23.7985,88
23.8357,83
23.8728,89
23.9100,75
23.9471,81
23.9843,80
24.0214,56
24.0586,62
24.0957,75
24.1329,78
24.1700,77
24.2072,92
24.2443,102
24.2815,88
24.3186,94
24.3558,92
24.3929,71
24.4301,74
24.4672,67
24.5044,74
24.5415,78
24.5787,61
24.6158,73
24.6530,68
24.6901,78
24.7273,58
24.7644,83
24.8016,70
24.8387,67
24.8759,92
24.9130,93
24.9502,67
24.9873,71
25.0245,72
25.0616,68
25.0988,74
25.1360,73
25.1731,67
25.2103,73
25.2474,60
25.2846,72
25.3217,60
25.3589,66
25.3960,82
25.4332,70
25.4703,72
25.5075,60
25.5446,60
25.5818,72
25.6189,82
25.6561,74
25.6932,64
25.7304,59
25.7675,73
25.8047,73
25.8418,70
25.8790,79
25.9161,53
25.9533,81
25.9904,60
26.0276,67
26.0647,63
26.1019,53
26.1390,74
26.1762,67
26.2133,69
26.2505,73
26.2876,64
26.3248,70
26.3619,73
26.3991,72
26.4362,55
26.4734,69
26.5105,60
26.5477,44
26.5848,71
26.6220,67
26.6591,73
26.6963,60
26.7335,56
26.7706,62
26.8078,63
26.8449,90
26.8821,57
26.9192,80
26.9564,73
26.9935,81
27.0307,64
27.0678,60
27.1050,72
27.1421,75
27.1793,93
27.2164,88
27.2536,70
27.2907,69
27.3279,70
27.3650,81
27.4022,53
27.4393,66
27.4765,57
27.5136,74
27.5508,54
27.5879,58
27.6251,68
27.6622,74
27.6994,75
27.7365,64
27.7737,61
27.8108,67
27.8480,66
27.8851,65
27.9223,54
27.9594,51
27.9966,61
28.0337,72
28.0709,64
28.1080,71
28.1452,54
28.1823,72
28.2195,65
28.2567,64
28.2938,71
28.3310,63
28.3681,67
28.4053,67
28.4424,77
28.4796,71
28.5167,52
28.5539,72
28.5910,71
28.6282,64
28.6653,64
28.7025,55
28.7396,56
28.7768,51
28.8139,53
28.8511,78
28.8882,57
28.9254,64
28.9625,48
28.9997,55
29.0368,65
29.0740,59
29.1111,63
29.1483,74
29.1854,50
29.2226,66
29.2597,50
29.2969,52
29.3340,63
29.3712,54
29.4083,44
29.4455,52
29.4826,46
29.5198,56
29.5569,50
29.5941,66
29.6312,68
29.6684,68
29.7055,54
29.7427,52
29.7799,68
29.8170,65
29.8542,63
29.8913,66
29.9285,54
29.9656,60
30.0028,46
30.0399,53
30.0771,48
30.1142,61
30.1514,41
30.1885,63
30.2257,55
30.2628,61
30.3000,70
30.3371,79
30.3743,142
30.4114,84
30.4486,108
30.4857,65
30.5229,71
30.5600,54
30.5972,66
30.6343,57
30.6715,52
30.7086,55
30.7458,45
30.7829,49
30.8201,55
30.8572,60
30.8944,52
30.9315,49
30.9687,55
31.0058,66
31.0430,48
31.0801,44
31.1173,51
31.1544,46
31.1916,60
31.2287,53
31.2659,36
31.3030,45
31.3402,56
31.3774,58
31.4145,43
31.4517,50
31.4888,57
31.5260,44
31.5631,36
31.6003,45
31.6374,53
31.6746,53
31.7117,48
31.7489,55
31.7860,58
31.8232,54
31.8603,54
31.8975,45
31.9346,34
31.9718,44
32.0089,52
32.0461,53
32.0832,41
32.1204,55
32.1575,45
32.1947,43
32.2318,49
32.2690,41
32.3061,55
32.3433,60
32.3804,54
32.4176,46
32.4547,67
32.4919,48
32.5290,48
32.5662,56
32.6033,62
32.6405,43
32.6776,42
32.7148,43
32.7519,57
32.7891,55
32.8262,48
32.8634,34
32.9006,36
32.9377,40
32.9749,54
33.0120,45
33.0492,32
33.0863,38
33.1235,36
33.1606,44
33.1978,41
33.2349,38
33.2721,47
33.3092,38
33.3464,46
33.3835,38
33.4207,35
33.4578,50
33.4950,40
33.5321,41
33.5693,42
33.6064,34
33.6436,46
33.6807,39
33.7179,37
33.7550,50
33.7922,41
33.8293,34
33.8665,40
33.9036,38
33.9408,44
33.9779,45
34.0151,36
34.0522,35
34.0894,38
34.1265,35
34.1637,33
34.2008,34
34.2380,43
34.2751,38
34.3123,40
34.3494,44
34.3866,59
34.4238,40
34.4609,47
34.4981,49
34.5352,39
34.5724,45
34.6095,52
34.6467,45
34.6838,51
34.7210,54
34.7581,48
34.7953,55
34.8324,51
34.8696,43
34.9067,42
34.9439,48
34.9810,45
35.0182,35
35.0553,45
35.0925,37
35.1296,40
35.1668,35
35.2039,34
35.2411,33
35.2782,45
35.3154,41
35.3525,37
35.3897,31
35.4268,47
35.4640,39
35.5011,33
35.5383,30
35.5754,40
35.6126,46
35.6497,40
35.6869,39
35.7240,30
35.7612,34
35.7983,45
35.8355,45
35.8726,27
35.9098,37
35.9469,33
35.9841,35
36.0213,37
36.0584,35
36.0956,33
36.1327,34
36.1699,45
36.2070,33
36.2442,25
36.2813,32
36.3185,35
36.3556,32
36.3928,16
36.4299,37
36.4671,36
36.5042,38
36.5414,37
36.5785,30
36.6157,35
36.6528,37
36.6900,40
36.7271,33
36.7643,41
36.8014,24
36.8386,23
36.8757,30
36.9129,41
36.9500,27
36.9872,34
37.0243,37
37.0615,34
37.0986,29
37.1358,32
37.1729,32
37.2101,31
37.2472,34
37.2844,31
37.3215,38
37.3587,29
37.3958,38
37.4330,62
37.4701,42
37.5073,41
37.5445,60
37.5816,40
37.6188,32
37.6559,42
37.6931,32
37.7302,36
37.7674,38
37.8045,42
37.8417,48
37.8788,38
37.9160,33
37.9531,30
37.9903,27
38.0274,30
38.0646,32
38.1017,32
38.1389,32
38.1760,27
38.2132,35
38.2503,28
38.2875,25
38.3246,38
38.3618,24
38.3989,33
38.4361,28
38.4732,32
38.5104,21
38.5475,31
38.5847,33
38.6218,24
38.6590,34
38.6961,39
38.7333,34
38.7704,31
38.8076,30
38.8447,36
38.8819,29
38.9190,36
38.9562,29
38.9933,34
39.0305,37
39.0677,35
39.1048,27
39.1420,24
39.1791,27
39.2163,25
39.2534,26
39.2906,40
39.3277,29
39.3649,36
39.4020,33
39.4392,33
39.4763,25
39.5135,32
39.5506,21
39.5878,34
39.6249,27
39.6621,38
39.6992,29
39.7364,26
39.7735,29
39.8107,27
39.8478,22
39.8850,20
39.9221,21
39.9593,27
39.9964,34
40.0336,19
40.0707,26
40.1079,32
40.1450,31
40.1822,25
40.2193,25
40.2565,25
40.2936,29
40.3308,31
40.3679,22
40.4051,35
40.4422,39
40.4794,26
40.5165,22
40.5537,33
40.5908,25
40.6280,27
40.6652,32
40.7023,27
40.7395,26
40.7766,30
40.8138,32
40.8509,27
40.8881,22
40.9252,29
40.9624,26
40.9995,23
41.0367,19
41.0738,22
41.1110,25
41.1481,28
41.1853,24
41.2224,30
41.2596,34
41.2967,27
41.3339,20
41.3710,37
41.4082,30
41.4453,24
41.4825,29
41.5196,26
41.5568,38
41.5939,19
41.6311,28
41.6682,23
41.7054,16
41.7425,35
41.7797,28
41.8168,33
41.8540,25
41.8911,22
41.9283,28
41.9654,22
42.0026,20
42.0397,28
42.0769,25
42.1140,27
42.1512,26
42.1884,33
42.2255,29
42.2627,29
42.2998,25
42.3370,24
42.3741,24
42.4113,28
42.4484,26
42.4856,19
42.5227,22
42.5599,35
42.5970,21
42.6342,34
42.6713,23
42.7085,25
42.7456,30
42.7828,20
42.8199,19
42.8571,25
42.8942,27
42.9314,26
42.9685,45
43.0057,24
43.0428,32
43.0800,21
43.1171,27
43.1543,24
43.1914,32
43.2286,37
43.2657,31
43.3029,37
43.3400,33
43.3772,35
43.4143,26
43.4515,36
43.4886,37
43.5258,31
43.5629,37
43.6001,41
43.6372,34
43.6744,34
43.7116,27
43.7487,29
43.7859,34
43.8230,27
43.8602,26
43.8973,25
43.9345,21
43.9716,25
44.0088,26
44.0459,23
44.0831,29
44.1202,25
44.1574,21
44.1945,34
44.2317,26
44.2688,31
44.3060,27
44.3431,26
44.3803,22
44.4174,25
44.4546,36
44.4917,26
44.5289,30
44.5660,20
44.6032,24
44.6403,28
44.6775,29
44.7146,36
44.7518,35
44.7889,30
44.8261,22
44.8632,22
44.9004,30
44.9375,30
44.9747,32
45.0118,16
45.0490,30
45.0861,19
45.1233,27
45.1604,18
45.1976,27
45.2347,23
45.2719,28
45.3091,28
45.3462,18
45.3834,26
45.4205,26
45.4577,19
45.4948,28
45.5320,26
45.5691,12
45.6063,23
45.6434,18
45.6806,27
45.7177,27
45.7549,37
45.7920,28
45.8292,28
45.8663,23
45.9035,27
45.9406,22
45.9778,27
46.0149,21
46.0521,21
46.0892,21
46.1264,19
46.1635,10
46.2007,19
46.2378,30
46.2750,15
46.3121,20
46.3493,22
46.3864,21
46.4236,27
46.4607,19
46.4979,17
46.5350,24
46.5722,18
46.6093,29
46.6465,30
46.6836,17
46.7208,24
46.7579,21
46.7951,29
46.8323,24
46.8694,30
46.9066,25
46.9437,23
46.9809,23
47.0180,21
47.0552,24
47.0923,20
47.1295,21
47.1666,19
47.2038,25
47.2409,27
47.2781,25
47.3152,21
47.3524,22
47.3895,23
47.4267,24
47.4638,26
47.5010,29
47.5381,29
47.5753,19
47.6124,23
47.6496,24
47.6867,21
47.7239,28
47.7610,23
47.7982,30
47.8353,23
47.8725,33
47.9096,21
47.9468,25
47.9839,26
48.0211,29
48.0582,21
48.0954,26
48.1325,17
48.1697,17
48.2068,29
48.2440,19
48.2811,19
48.3183,23
48.3555,17
48.3926,37
48.4298,25
48.4669,29
48.5041,19
48.5412,21
48.5784,27
48.6155,18
48.6527,27
48.6898,18
48.7270,19
48.7641,21
48.8013,22
48.8384,19
48.8756,25
48.9127,31
48.9499,43
48.9870,37
49.0242,30
49.0613,31
49.0985,33
49.1356,20
49.1728,22
49.2099,21
49.2471,24
49.2842,24
49.3214,32
49.3585,32
49.3957,22
49.4328,27
49.4700,20
49.5071,26
49.5443,18
49.5814,19
49.6186,21
49.6557,22
49.6929,17
49.7300,14
49.7672,32
49.8043,22
49.8415,21
49.8786,37
49.9158,22
49.9530,20
49.9901,18
50.0273,28
50.0644,22
50.1016,21
50.1387,27
50.1759,26
50.2130,25
50.2502,19
50.2873,27
50.3245,27
50.3616,31
50.3988,26
50.4359,20
50.4731,16
50.5102,18
50.5474,24
50.5845,18
50.6217,27
50.6588,17
50.6960,18
50.7331,19
50.7703,21
50.8074,23
50.8446,19
50.8817,18
50.9189,18
50.9560,21
50.9932,26
51.0303,23
51.0675,31
51.1046,21
51.1418,22
51.1789,24
51.2161,20
51.2532,28
51.2904,22
51.3275,18
51.3647,29
51.4018,29
51.4390,21
51.4762,34
51.5133,29
51.5505,20
51.5876,25
51.6248,26
51.6619,28
51.6991,20
51.7362,21
51.7734,23
51.8105,23
51.8477,32
51.8848,19
51.9220,9
51.9591,22
51.9963,18
52.0334,26
52.0706,14
52.1077,20
52.1449,10
52.1820,17
52.2192,14
52.2563,28
52.2935,26
52.3306,21
52.3678,24
52.4049,20
52.4421,18
52.4792,20
52.5164,17
52.5535,29
52.5907,20
52.6278,21
52.6650,21
52.7021,17
52.7393,20
52.7764,17
52.8136,20
52.8507,18
52.8879,28
52.9250,21
52.9622,27
52.9994,20
53.0365,24
53.0737,24
53.1108,30
53.1480,20
53.1851,17
53.2223,29
53.2594,25
53.2966,26
53.3337,26
53.3709,20
53.4080,31
53.4452,16
53.4823,30
53.5195,22
53.5566,19
53.5938,22
53.6309,17
53.6681,20
53.7052,21
53.7424,20
53.7795,20
53.8167,19
53.8538,21
53.8910,24
53.9281,21
53.9653,35
54.0024,31
54.0396,25
54.0767,27
54.1139,18
54.1510,24
54.1882,18
54.2253,27
54.2625,19
54.2996,15
54.3368,26
54.3739,24
54.4111,27
54.4482,21
54.4854,20
54.5225,26
54.5597,26
54.5969,21
54.6340,20
54.6712,18
54.7083,16
54.7455,23
54.7826,26
54.8198,16
54.8569,12
54.8941,19
54.9312,19
54.9684,16
55.0055,20
55.0427,16
55.0798,22
55.1170,19
55.1541,27
55.1913,26
55.2284,18
55.2656,14
55.3027,18
55.3399,20
55.3770,17
55.4142,18
55.4513,18
55.4885,21
55.5256,25
55.5628,28
55.5999,19
55.6371,24
55.6742,32
55.7114,15
55.7485,26
55.7857,19
55.8228,17
55.8600,14
55.8971,18
55.9343,24
55.9714,24
56.0086,24
56.0457,13
56.0829,22
56.1201,20
56.1572,17
56.1944,39
56.2315,28
56.2687,23
56.3058,27
56.3430,21
56.3801,26
56.4173,28
56.4544,26
56.4916,20
56.5287,23
56.5659,18
56.6030,24
56.6402,19
56.6773,23
56.7145,27
56.7516,17
56.7888,22
56.8259,21
56.8631,22
56.9002,27
56.9374,23
56.9745,20
57.0117,17
57.0488,16
57.0860,16
57.1231,24
57.1603,14
57.1974,21
57.2346,18
57.2717,22
57.3089,16
57.3460,24
57.3832,15
57.4203,20
57.4575,23
57.4946,31
57.5318,12
57.5689,18
57.6061,16
57.6433,27
57.6804,21
57.7176,33
57.7547,25
57.7919,25
57.8290,24
57.8662,16
57.9033,8
57.9405,29
57.9776,11
58.0148,16
58.0519,13
58.0891,17
58.1262,20
58.1634,19
58.2005,15
58.2377,17
58.2748,18
58.3120,14
58.3491,22
58.3863,17
58.4234,22
58.4606,17
58.4977,21
58.5349,18
58.5720,22
58.6092,20
58.6463,15
58.6835,14
58.7206,16
58.7578,21
58.7949,30
58.8321,11
58.8692,23
58.9064,30
58.9435,21
58.9807,24
59.0178,13
59.0550,18
59.0921,20
59.1293,18
59.1664,18
59.2036,25
59.2408,25
59.2779,22
59.3151,25
59.3522,19
59.3894,13
59.4265,28
59.4637,21
59.5008,23
59.5380,21
59.5751,19
59.6123,18
59.6494,27
59.6866,25
59.7237,14
59.7609,15
59.7980,20
59.8352,19
59.8723,19
59.9095,24
59.9466,14
59.9838,18
60.0024,18