File: notebooks/data/xrd_data/ML_20220718_43_SJD_4_LaB6-1min.csv
;,2THETA,
5.0000,105
5.0372,78
5.0743,99
5.1115,84
5.1486,90
5.1858,100
5.2229,100
5.2601,83
5.2972,84
5.3344,96
5.3715,96
5.4087,92
5.4458,92
5.4830,69
5.5201,75
5.5573,83
5.5944,86
5.6316,76
5.6687,75
5.7059,63
5.7430,99
5.7802,71
5.8173,59
5.8545,76
5.8916,68
5.9288,66
5.9659,79
6.0031,70
6.0402,69
6.0774,63
6.1145,81
6.1517,69
6.1888,68
6.2260,65
6.2631,70
6.3003,67
6.3374,75
6.3746,59
6.4117,73
6.4489,61
6.4860,58
6.5232,61
6.5604,61
6.5975,77
6.6347,62
6.6718,72
6.7090,60
6.7461,63
6.7833,63
6.8204,70
6.8576,55
6.8947,64
6.9319,64
6.9690,67
7.0062,62
7.0433,66
7.0805,60
7.1176,60
7.1548,63
7.1919,64
7.2291,62
7.2662,56
7.3034,61
7.3405,61
7.3777,48
7.4148,58
7.4520,74
7.4891,68
7.5263,47
7.5634,60
7.6006,59
7.6377,62
7.6749,63
7.7120,53
7.7492,66
7.7863,65
7.8235,78
7.8606,73
7.8978,66
7.9349,85
7.9721,83
8.0092,73
8.0464,74
8.0835,74
8.1207,68
8.1579,74
8.1950,63
8.2322,53
8.2693,72
8.3065,62
8.3436,66
8.3808,73
8.4179,77
8.4551,73
8.4922,84
8.5294,79
8.5665,75
8.6037,75
8.6408,70
8.6780,74
8.7151,70
8.7523,69
8.7894,64
8.8266,70
8.8637,95
8.9009,73
8.9380,70
8.9752,74
9.0123,75
9.0495,66
9.0866,82
9.1238,79
9.1609,64
9.1981,79
9.2352,79
9.2724,83
9.3095,96
9.3467,73
9.3838,83
9.4210,74
9.4581,72
9.4953,79
9.5324,85
9.5696,89
9.6067,97
9.6439,83
9.6811,85
9.7182,80
9.7554,77
9.7925,77
9.8297,67
9.8668,83
9.9040,82
9.9411,103
9.9783,82
10.0154,85
10.0526,94
10.0897,93
10.1269,103
10.1640,93
10.2012,79
10.2383,103
10.2755,87
10.3126,90
10.3498,72
10.3869,94
10.4241,77
10.4612,70
10.4984,76
10.5355,76
10.5727,108
10.6098,80
10.6470,95
10.6841,89
10.7213,97
10.7584,101
10.7956,83
10.8327,103
10.8699,80
10.9070,97
10.9442,85
10.9813,98
11.0185,73
11.0556,91
11.0928,84
11.1299,86
11.1671,105
11.2043,98
11.2414,81
11.2786,85
11.3157,66
11.3529,84
11.3900,88
11.4272,72
11.4643,83
11.5015,93
11.5386,93
11.5758,81
11.6129,88
11.6501,90
11.6872,83
11.7244,88
11.7615,89
11.7987,88
11.8358,70
11.8730,83
11.9101,90
11.9473,82
11.9844,88
12.0216,74
12.0587,75
12.0959,82
12.1330,91
12.1702,81
12.2073,89
12.2445,73
12.2816,68
12.3188,67
12.3559,73
12.3931,94
12.4302,73
12.4674,70
12.5045,69
12.5417,76
12.5788,85
12.6160,97
12.6531,100
12.6903,72
12.7274,84
12.7646,75
12.8018,83
12.8389,73
12.8761,72
12.9132,96
12.9504,66
12.9875,77
13.0247,77
13.0618,58
13.0990,102
13.1361,65
13.1733,63
13.2104,64
13.2476,69
13.2847,61
13.3219,69
13.3590,70
13.3962,69
13.4333,85
13.4705,62
13.5076,60
13.5448,72
13.5819,61
13.6191,63
13.6562,73
13.6934,74
13.7305,79
13.7677,71
13.8048,62
13.8420,65
13.8791,69
13.9163,71
13.9534,85
13.9906,75
14.0277,77
14.0649,71
14.1020,63
14.1392,78
14.1763,59
14.2135,71
14.2506,67
14.2878,81
14.3250,71
14.3621,60
14.3993,63
14.4364,64
14.4736,70
14.5107,55
14.5479,66
14.5850,56
14.6222,46
14.6593,67
14.6965,68
14.7336,64
14.7708,75
14.8079,57
14.8451,78
14.8822,65
14.9194,57
14.9565,77
14.9937,71
15.0308,58
15.0680,68
15.1051,56
15.1423,51
15.1794,64
15.2166,67
15.2537,79
15.2909,67
15.3280,60
15.3652,66
15.4023,49
15.4395,58
15.4766,66
15.5138,55
15.5509,52
15.5881,54
15.6252,56
15.6624,71
15.6995,57
15.7367,64
15.7738,52
15.8110,50
15.8482,59
15.8853,56
15.9225,67
15.9596,56
15.9968,57
16.0339,57
16.0711,78
16.1082,58
16.1454,59
16.1825,54
16.2197,64
16.2568,68
16.2940,60
16.3311,51
16.3683,52
16.4054,48
16.4426,73
16.4797,56
16.5169,59
16.5540,70
16.5912,55
16.6283,67
16.6655,53
16.7026,62
16.7398,59
16.7769,61
16.8141,71
16.8512,52
16.8884,64
16.9255,58
16.9627,62
16.9998,65
17.0370,56
17.0741,54
17.1113,60
17.1484,57
17.1856,62
17.2227,66
17.2599,52
17.2970,56
17.3342,56
17.3713,57
17.4085,63
17.4457,56
17.4828,49
17.5200,62
17.5571,53
17.5943,61
17.6314,70
17.6686,63
17.7057,55
17.7429,56
17.7800,64
17.8172,63
17.8543,71
17.8915,71
17.9286,61
17.9658,58
18.0029,56
18.0401,63
18.0772,61
18.1144,51
18.1515,57
18.1887,56
18.2258,66
18.2630,60
18.3001,64
18.3373,66
18.3744,70
18.4116,60
18.4487,54
18.4859,57
18.5230,51
18.5602,72
18.5973,64
18.6345,62
18.6716,57
18.7088,59
18.7459,71
18.7831,65
18.8202,70
18.8574,63
18.8945,57
18.9317,64
18.9689,65
19.0060,69
19.0432,58
19.0803,55
19.1175,53
19.1546,62
19.1918,57
19.2289,57
19.2661,64
19.3032,62
19.3404,62
19.3775,68
19.4147,55
19.4518,62
19.4890,49
19.5261,72
19.5633,74
19.6004,59
19.6376,62
19.6747,74
19.7119,69
19.7490,74
19.7862,67
19.8233,59
19.8605,66
19.8976,61
19.9348,58
19.9719,66
20.0091,70
20.0462,62
20.0834,59
20.1205,57
20.1577,89
20.1948,72
20.2320,68
20.2691,76
20.3063,91
20.3434,72
20.3806,60
20.4177,79
20.4549,76
20.4921,62
20.5292,64
20.5664,54
20.6035,62
20.6407,71
20.6778,61
20.7150,66
20.7521,67
20.7893,79
20.8264,51
20.8636,67
20.9007,77
20.9379,83
20.9750,71
21.0122,67
21.0493,79
21.0865,68
21.1236,66
21.1608,87
21.1979,105
21.2351,105
21.2722,123
21.3094,121
21.3465,187
21.3837,147
21.4208,119
21.4580,73
21.4951,80
21.5323,76
21.5694,72
21.6066,70
21.6437,70
21.6809,64
21.7180,75
21.7552,83
21.7923,74
21.8295,71
21.8666,74
21.9038,73
21.9409,69
21.9781,75
22.0152,87
22.0524,66
22.0896,61
22.1267,72
22.1639,69
22.2010,79
22.2382,63
22.2753,73
22.3125,70
22.3496,75
22.3868,68
22.4239,67
22.4611,77
22.4982,89
22.5354,74
22.5725,81
22.6097,86
22.6468,66
22.6840,75
22.7211,72
22.7583,72
22.7954,63
22.8326,68
22.8697,55
22.9069,78
22.9440,68
22.9812,81
23.0183,77
23.0555,74
23.0926,70
23.1298,72
23.1669,56
23.2041,62
23.2412,64
23.2784,67
23.3155,67
23.3527,64
23.3898,75
23.4270,75
23.4641,88
23.5013,77
23.5384,74
23.5756,78
23.6128,73
23.6499,86
23.6871,80
23.7242,67
23.7614,77
23.7985,71
23.8357,72
23.8728,57
23.9100,72
23.9471,72
23.9843,73
24.0214,69
24.0586,73
24.0957,73
24.1329,77
24.1700,85
24.2072,67
24.2443,80
24.2815,78
24.3186,76
24.3558,88
24.3929,66
24.4301,73
24.4672,74
24.5044,78
24.5415,92
24.5787,83
24.6158,81
24.6530,83
24.6901,68
24.7273,64
24.7644,79
24.8016,92
24.8387,85
24.8759,67
24.9130,61
24.9502,61
24.9873,66
25.0245,84
25.0616,75
25.0988,84
25.1360,58
25.1731,54
25.2103,81
25.2474,83
25.2846,78
25.3217,53
25.3589,85
25.3960,79
25.4332,68
25.4703,81
25.5075,76
25.5446,70
25.5818,73
25.6189,71
25.6561,78
25.6932,61
25.7304,83
25.7675,70
25.8047,75
25.8418,62
25.8790,83
25.9161,65
25.9533,62
25.9904,70
26.0276,66
26.0647,76
26.1019,78
26.1390,74
26.1762,66
26.2133,69
26.2505,53
26.2876,70
26.3248,60
26.3619,73
26.3991,74
26.4362,75
26.4734,67
26.5105,68
26.5477,62
26.5848,65
26.6220,63
26.6591,64
26.6963,71
26.7335,74
26.7706,64
26.8078,77
26.8449,59
26.8821,60
26.9192,83
26.9564,68
26.9935,52
27.0307,75
27.0678,80
27.1050,86
27.1421,77
27.1793,74
27.2164,91
27.2536,93
27.2907,92
27.3279,76
27.3650,70
27.4022,72
27.4393,57
27.4765,61
27.5136,79
27.5508,85
27.5879,77
27.6251,70
27.6622,55
27.6994,68
27.7365,62
27.7737,62
27.8108,54
27.8480,58
27.8851,76
27.9223,76
27.9594,57
27.9966,56
28.0337,71
28.0709,66
28.1080,49
28.1452,56
28.1823,69
28.2195,72
28.2567,65
28.2938,52
28.3310,57
28.3681,62
28.4053,64
28.4424,65
28.4796,50
28.5167,69
28.5539,61
28.5910,54
28.6282,72
28.6653,56
28.7025,76
28.7396,64
28.7768,66
28.8139,53
28.8511,85
28.8882,63
28.9254,70
28.9625,59
28.9997,56
29.0368,57
29.0740,55
29.1111,54
29.1483,58
29.1854,65
29.2226,55
29.2597,58
29.2969,42
29.3340,56
29.3712,52
29.4083,60
29.4455,67
29.4826,66
29.5198,75
29.5569,64
29.5941,75
29.6312,53
29.6684,65
29.7055,45
29.7427,63
29.7799,58
29.8170,51
29.8542,59
29.8913,60
29.9285,47
29.9656,61
30.0028,56
30.0399,44
30.0771,57
30.1142,59
30.1514,53
30.1885,76
30.2257,68
30.2628,76
30.3000,62
30.3371,70
30.3743,120
30.4114,110
30.4486,84
30.4857,90
30.5229,63
30.5600,54
30.5972,55
30.6343,54
30.6715,49
30.7086,71
30.7458,49
30.7829,64
30.8201,58
30.8572,66
30.8944,50
30.9315,62
30.9687,45
31.0058,53
31.0430,47
31.0801,49
31.1173,54
31.1544,48
31.1916,57
31.2287,56
31.2659,52
31.3030,48
31.3402,49
31.3774,53
31.4145,55
31.4517,53
31.4888,44
31.5260,58
31.5631,46
31.6003,48
31.6374,43
31.6746,59
31.7117,49
31.7489,49
31.7860,44
31.8232,49
31.8603,41
31.8975,56
31.9346,46
31.9718,37
32.0089,46
32.0461,49
32.0832,40
32.1204,49
32.1575,42
32.1947,52
32.2318,46
32.2690,42
32.3061,43
32.3433,49
32.3804,50
32.4176,45
32.4547,51
32.4919,42
32.5290,62
32.5662,41
32.6033,51
32.6405,43
32.6776,50
32.7148,52
32.7519,51
32.7891,52
32.8262,37
32.8634,45
32.9006,59
32.9377,35
32.9749,38
33.0120,38
33.0492,46
33.0863,54
33.1235,42
33.1606,42
33.1978,43
33.2349,49
33.2721,44
33.3092,43
33.3464,46
33.3835,43
33.4207,49
33.4578,41
33.4950,36
33.5321,35
33.5693,53
33.6064,41
33.6436,49
33.6807,38
33.7179,50
33.7550,39
33.7922,46
33.8293,38
33.8665,44
33.9036,36
33.9408,41
33.9779,38
34.0151,31
34.0522,31
34.0894,42
34.1265,49
34.1637,37
34.2008,42
34.2380,41
34.2751,37
34.3123,58
34.3494,40
34.3866,50
34.4238,42
34.4609,35
34.4981,50
34.5352,56
34.5724,41
34.6095,49
34.6467,40
34.6838,46
34.7210,53
34.7581,67
34.7953,54
34.8324,44
34.8696,52
34.9067,55
34.9439,37
34.9810,36
35.0182,62
35.0553,41
35.0925,34
35.1296,42
35.1668,43
35.2039,36
35.2411,38
35.2782,34
35.3154,43
35.3525,41
35.3897,37
35.4268,36
35.4640,40
35.5011,38
35.5383,42
35.5754,42
35.6126,34
35.6497,41
35.6869,24
35.7240,27
35.7612,46
35.7983,28
35.8355,37
35.8726,34
35.9098,36
35.9469,24
35.9841,36
36.0213,34
36.0584,31
36.0956,33
36.1327,31
36.1699,26
36.2070,30
36.2442,27
36.2813,33
36.3185,37
36.3556,35
36.3928,41
36.4299,29
36.4671,32
36.5042,28
36.5414,35
36.5785,42
36.6157,30
36.6528,30
36.6900,39
36.7271,40
36.7643,35
36.8014,38
36.8386,33
36.8757,30
36.9129,33
36.9500,25
36.9872,34
37.0243,37
37.0615,34
37.0986,25
37.1358,43
37.1729,32
37.2101,33
37.2472,32
37.2844,38
37.3215,34
37.3587,25
37.3958,44
37.4330,48
37.4701,47
37.5073,43
37.5445,47
37.5816,31
37.6188,44
37.6559,25
37.6931,28
37.7302,37
37.7674,30
37.8045,32
37.8417,26
37.8788,34
37.9160,38
37.9531,28
37.9903,36
38.0274,21
38.0646,41
38.1017,36
38.1389,28
38.1760,43
38.2132,33
38.2503,27
38.2875,27
38.3246,30
38.3618,22
38.3989,30
38.4361,34
38.4732,34
38.5104,40
38.5475,37
38.5847,33
38.6218,25
38.6590,29
38.6961,30
38.7333,38
38.7704,25
38.8076,25
38.8447,32
38.8819,40
38.9190,35
38.9562,19
38.9933,32
39.0305,36
39.0677,23
39.1048,24
39.1420,27
39.1791,30
39.2163,37
39.2534,26
39.2906,24
39.3277,31
39.3649,24
39.4020,30
39.4392,34
39.4763,23
39.5135,21
39.5506,25
39.5878,38
39.6249,25
39.6621,31
39.6992,23
39.7364,25
39.7735,38
39.8107,26
39.8478,26
39.8850,33
39.9221,30
39.9593,33
39.9964,37
40.0336,25
40.0707,25
40.1079,28
40.1450,23
40.1822,21
40.2193,28
40.2565,32
40.2936,31
40.3308,18
40.3679,30
40.4051,26
40.4422,20
40.4794,22
40.5165,26
40.5537,27
40.5908,31
40.6280,18
40.6652,34
40.7023,27
40.7395,25
40.7766,26
40.8138,22
40.8509,26
40.8881,34
40.9252,23
40.9624,34
40.9995,28
41.0367,28
41.0738,28
41.1110,25
41.1481,29
41.1853,35
41.2224,25
41.2596,24
41.2967,35
41.3339,26
41.3710,29
41.4082,33
41.4453,25
41.4825,21
41.5196,27
41.5568,35
41.5939,21
41.6311,25
41.6682,30
41.7054,31
41.7425,26
41.7797,31
41.8168,22
41.8540,16
41.8911,36
41.9283,19
41.9654,26
42.0026,28
42.0397,23
42.0769,22
42.1140,34
42.1512,30
42.1884,29
42.2255,30
42.2627,29
42.2998,29
42.3370,24
42.3741,25
42.4113,21
42.4484,22
42.4856,28
42.5227,29
42.5599,20
42.5970,19
42.6342,24
42.6713,22
42.7085,23
42.7456,30
42.7828,24
42.8199,27
42.8571,20
42.8942,37
42.9314,32
42.9685,33
43.0057,39
43.0428,29
43.0800,24
43.1171,27
43.1543,26
43.1914,34
43.2286,26
43.2657,33
43.3029,30
43.3400,30
43.3772,26
43.4143,29
43.4515,41
43.4886,33
43.5258,49
43.5629,37
43.6001,37
43.6372,36
43.6744,25
43.7116,20
43.7487,24
43.7859,34
43.8230,38
43.8602,27
43.8973,37
43.9345,27
43.9716,25
44.0088,32
44.0459,29
44.0831,32
44.1202,26
44.1574,30
44.1945,34
44.2317,29
44.2688,30
44.3060,34
44.3431,33
44.3803,26
44.4174,26
44.4546,28
44.4917,25
44.5289,27
44.5660,27
44.6032,21
44.6403,33
44.6775,39
44.7146,22
44.7518,28
44.7889,28
44.8261,28
44.8632,27
44.9004,19
44.9375,29
44.9747,24
45.0118,33
45.0490,22
45.0861,25
45.1233,30
45.1604,24
45.1976,22
45.2347,21
45.2719,30
45.3091,24
45.3462,16
45.3834,34
45.4205,26
45.4577,21
45.4948,24
45.5320,17
45.5691,19
45.6063,17
45.6434,21
45.6806,22
45.7177,29
45.7549,19
45.7920,31
45.8292,25
45.8663,12
45.9035,23
45.9406,25
45.9778,20
46.0149,30
46.0521,23
46.0892,24
46.1264,27
46.1635,27
46.2007,20
46.2378,35
46.2750,34
46.3121,24
46.3493,25
46.3864,23
46.4236,22
46.4607,19
46.4979,26
46.5350,25
46.5722,21
46.6093,33
46.6465,20
46.6836,22
46.7208,23
46.7579,24
46.7951,21
46.8323,31
46.8694,31
46.9066,24
46.9437,25
46.9809,23
47.0180,25
47.0552,18
47.0923,25
47.1295,20
47.1666,19
47.2038,26
47.2409,21
47.2781,15
47.3152,35
47.3524,19
47.3895,14
47.4267,21
47.4638,20
47.5010,23
47.5381,30
47.5753,26
47.6124,20
47.6496,22
47.6867,24
47.7239,23
47.7610,28
47.7982,13
47.8353,20
47.8725,21
47.9096,30
47.9468,16
47.9839,30
48.0211,27
48.0582,24
48.0954,19
48.1325,29
48.1697,25
48.2068,22
48.2440,28
48.2811,23
48.3183,16
48.3555,40
48.3926,31
48.4298,25
48.4669,23
48.5041,32
48.5412,20
48.5784,18
48.6155,23
48.6527,26
48.6898,32
48.7270,22
48.7641,13
48.8013,19
48.8384,24
48.8756,27
48.9127,30
48.9499,41
48.9870,33
49.0242,32
49.0613,30
49.0985,46
49.1356,29
49.1728,33
49.2099,30
49.2471,26
49.2842,18
49.3214,22
49.3585,26
49.3957,22
49.4328,27
49.4700,20
49.5071,23
49.5443,28
49.5814,22
49.6186,18
49.6557,23
49.6929,20
49.7300,17
49.7672,27
49.8043,18
49.8415,24
49.8786,21
49.9158,20
49.9530,16
49.9901,20
50.0273,33
50.0644,16
50.1016,27
50.1387,31
50.1759,27
50.2130,13
50.2502,29
50.2873,19
50.3245,22
50.3616,22
50.3988,18
50.4359,19
50.4731,14
50.5102,21
50.5474,26
50.5845,20
50.6217,19
50.6588,21
50.6960,28
50.7331,21
50.7703,26
50.8074,16
50.8446,16
50.8817,21
50.9189,23
50.9560,17
50.9932,12
51.0303,20
51.0675,21
51.1046,17
51.1418,28
51.1789,26
51.2161,26
51.2532,20
51.2904,23
51.3275,25
51.3647,20
51.4018,26
51.4390,26
51.4762,27
51.5133,22
51.5505,21
51.5876,22
51.6248,24
51.6619,17
51.6991,26
51.7362,18
51.7734,28
51.8105,25
51.8477,25
51.8848,21
51.9220,21
51.9591,18
51.9963,31
52.0334,23
52.0706,28
52.1077,26
52.1449,23
52.1820,23
52.2192,24
52.2563,30
52.2935,27
52.3306,27
52.3678,19
52.4049,30
52.4421,14
52.4792,20
52.5164,21
52.5535,16
52.5907,16
52.6278,25
52.6650,21
52.7021,22
52.7393,24
52.7764,13
52.8136,10
52.8507,20
52.8879,22
52.9250,24
52.9622,12
52.9994,24
53.0365,21
53.0737,22
53.1108,24
53.1480,30
53.1851,27
53.2223,20
53.2594,24
53.2966,20
53.3337,21
53.3709,25
53.4080,18
53.4452,10
53.4823,9
53.5195,19
53.5566,17
53.5938,16
53.6309,23
53.6681,28
53.7052,25
53.7424,23
53.7795,27
53.8167,21
53.8538,28
53.8910,28
53.9281,28
53.9653,29
54.0024,31
54.0396,33
54.0767,19
54.1139,22
54.1510,19
54.1882,23
54.2253,26
54.2625,21
54.2996,20
54.3368,25
54.3739,20
54.4111,24
54.4482,16
54.4854,30
54.5225,27
54.5597,20
54.5969,20
54.6340,22
54.6712,19
54.7083,20
54.7455,22
54.7826,14
54.8198,22
54.8569,23
54.8941,18
54.9312,21
54.9684,27
55.0055,26
55.0427,21
55.0798,15
55.1170,26
55.1541,16
55.1913,17
55.2284,22
55.2656,24
55.3027,19
55.3399,22
55.3770,17
55.4142,27
55.4513,22
55.4885,26
55.5256,19
55.5628,22
55.5999,22
55.6371,22
55.6742,29
55.7114,17
55.7485,21
55.7857,18
55.8228,14
55.8600,22
55.8971,20
55.9343,32
55.9714,29
56.0086,18
56.0457,17
56.0829,25
56.1201,16
56.1572,28
56.1944,27
56.2315,24
56.2687,13
56.3058,26
56.3430,18
56.3801,19
56.4173,17
56.4544,24
56.4916,16
56.5287,27
56.5659,20
56.6030,25
56.6402,35
56.6773,19
56.7145,22
56.7516,25
56.7888,21
56.8259,21
56.8631,11
56.9002,13
56.9374,20
56.9745,17
57.0117,17
57.0488,26
57.0860,15
57.1231,18
57.1603,21
57.1974,20
57.2346,26
57.2717,14
57.3089,31
57.3460,19
57.3832,27
57.4203,15
57.4575,14
57.4946,18
57.5318,16
57.5689,23
57.6061,25
57.6433,20
57.6804,22
57.7176,14
57.7547,18
57.7919,25
57.8290,29
57.8662,19
57.9033,23
57.9405,21
57.9776,13
58.0148,20
58.0519,18
58.0891,23
58.1262,15
58.1634,17
58.2005,22
58.2377,27
58.2748,22
58.3120,15
58.3491,15
58.3863,22
58.4234,17
58.4606,19
58.4977,21
58.5349,27
58.5720,18
58.6092,16
58.6463,29
58.6835,23
58.7206,17
58.7578,22
58.7949,28
58.8321,13
58.8692,23
58.9064,14
58.9435,19
58.9807,26
59.0178,15
59.0550,16
59.0921,20
59.1293,13
59.1664,25
59.2036,22
59.2408,32
59.2779,21
59.3151,19
59.3522,15
59.3894,17
59.4265,17
59.4637,22
59.5008,27
59.5380,26
59.5751,26
59.6123,18
59.6494,20
59.6866,21
59.7237,22
59.7609,18
59.7980,17
59.8352,29
59.8723,17
59.9095,23
59.9466,19
59.9838,16
60.0024,16