File: notebooks/data/xrd_data/ML_20220718_51_SJD_4_LaB6-4min.uxd
; (content of file Y:\Sam\Apurva-07-20-2022\puck4\ML_20220718_51_SJD_4_LaB6-4min.raw)
_FILEVERSION = 3
_SAMPLE = ML_20220718_51_SJD_4_LaB6-4min
_+SAMPLE =
_SITE = USA
_USER = Administrator
_GONIOMETER_CODE = 20
; Goniometer : D8 theta/2theta, stage : Unknown
_ATTACHMENTS_CODE = 0
_GONIOMETER_RADIUS = 200.5
_FIXED_DIVSLIT = 0.6
_FIXED_SAMPLESLIT = 0
_SOLLER_SLITS = 2
_FIXED_DETSLIT = 9.55
_MONOCHROMATOR = 0
; Incident beam monochromator : None
_SOLLER_SLITS_2 = N
_THIN_FILM = N
_BETA_FILTER = Y
_FIXED_ANTISLIT = 5.89
_ANALYZER_CODE = 0
; Received beam analyzer : None
_DATEMEASURED = "26-Jul-2022 14:05:16"
_WL_UNIT = A
_WL1 = 1.5406
_WL2 = 1.54439
_WL3 = 1.39222
_WLRATIO = 0.5
_ANODE = Cu
_V4_INF_CREATOR = XRDWizard
_V4_INF_CREATOR_VERSION = V2.9.0.22
_V4_INF_WIZARD_VERSION = V2.9.0.22
_V4_INF_WIZARD_ADDINS = V2.9.0.22
_V4_INF_WIZARD_DOCTYPE = XRD
_V4_INF_OSUSER = McQueenLab
_V4_INF_USER = Administrator
_V4_INF_SITE = USA
_V4_INF_SAMPLEID = ML_20220718_51_SJD_4_LaB6-4min

; Data for range 1
_DRIVE = COUPLED
_STEPTIME = 11.28
_STEPSIZE = 0.0185756
_STEPMODE = C
_START = 5
_THETA = 2.5
_2THETA = 5
_KHI = 0
_PHI = 0
_X = 0
_Y = 0
_Z = 0
_DETECTOR = 5
; Detector type : Unknown
_DETECTORSLIT = unkn
_AUX1 = 0
_AUX2 = 0
_AUX3 = 0
_TIMESTARTED = 15
_TEMP_RATE = -1
_TEMP_DELAY = -1
_KV = 40
_MA = 40
_RANGE_WL = 1.5406
_3DPLANE = 0
_V4_ADDITIONALDETECTOR = 257
_V4_PSD2THETA = 3.3901
_V4_PSDCHANNEL1 = 0
_V4_PSDAPERTURE = 12.68
_V4_PSDTYPE = 5
_V4_PSDFIXED = 0
_V4_COUNTERS_MASK = 4096
_V4_DRIVES_MASK = 0
_V4_ENCODERS_MASK = 0
_2THETACOUNTS = 1
; 2THETA  PSD
   5.0000        278
   5.0372        242
   5.0743        248
   5.1115        250
   5.1486        247
   5.1858        245
   5.2229        246
   5.2601        244
   5.2972        223
   5.3344        226
   5.3715        237
   5.4087        234
   5.4458        220
   5.4830        240
   5.5201        239
   5.5573        223
   5.5944        228
   5.6316        220
   5.6687        200
   5.7059        234
   5.7430        234
   5.7802        228
   5.8173        212
   5.8545        206
   5.8916        215
   5.9288        212
   5.9659        218
   6.0031        177
   6.0402        197
   6.0774        188
   6.1145        192
   6.1517        200
   6.1888        194
   6.2260        205
   6.2631        220
   6.3003        179
   6.3374        181
   6.3746        189
   6.4117        161
   6.4489        171
   6.4860        212
   6.5232        167
   6.5604        183
   6.5975        164
   6.6347        162
   6.6718        160
   6.7090        195
   6.7461        174
   6.7833        171
   6.8204        156
   6.8576        168
   6.8947        170
   6.9319        179
   6.9690        151
   7.0062        192
   7.0433        150
   7.0805        158
   7.1176        181
   7.1548        162
   7.1919        191
   7.2291        152
   7.2662        175
   7.3034        144
   7.3405        165
   7.3777        156
   7.4148        172
   7.4520        153
   7.4891        166
   7.5263        167
   7.5634        181
   7.6006        174
   7.6377        177
   7.6749        171
   7.7120        190
   7.7492        169
   7.7863        159
   7.8235        181
   7.8606        199
   7.8978        186
   7.9349        182
   7.9721        173
   8.0092        188
   8.0464        177
   8.0835        176
   8.1207        182
   8.1579        204
   8.1950        205
   8.2322        202
   8.2693        171
   8.3065        180
   8.3436        164
   8.3808        168
   8.4179        202
   8.4551        202
   8.4922        208
   8.5294        207
   8.5665        195
   8.6037        177
   8.6408        199
   8.6780        197
   8.7151        217
   8.7523        193
   8.7894        228
   8.8266        196
   8.8637        206
   8.9009        201
   8.9380        215
   8.9752        196
   9.0123        219
   9.0495        198
   9.0866        231
   9.1238        232
   9.1609        217
   9.1981        211
   9.2352        200
   9.2724        218
   9.3095        224
   9.3467        211
   9.3838        232
   9.4210        231
   9.4581        213
   9.4953        219
   9.5324        202
   9.5696        234
   9.6067        247
   9.6439        227
   9.6811        204
   9.7182        241
   9.7554        204
   9.7925        236
   9.8297        225
   9.8668        247
   9.9040        235
   9.9411        245
   9.9783        232
  10.0154        268
  10.0526        245
  10.0897        265
  10.1269        251
  10.1640        231
  10.2012        227
  10.2383        272
  10.2755        266
  10.3126        227
  10.3498        235
  10.3869        231
  10.4241        215
  10.4612        222
  10.4984        269
  10.5355        226
  10.5727        225
  10.6098        263
  10.6470        250
  10.6841        221
  10.7213        235
  10.7584        252
  10.7956        239
  10.8327        243
  10.8699        249
  10.9070        210
  10.9442        214
  10.9813        252
  11.0185        263
  11.0556        241
  11.0928        242
  11.1299        206
  11.1671        235
  11.2043        225
  11.2414        252
  11.2786        254
  11.3157        225
  11.3529        236
  11.3900        235
  11.4272        226
  11.4643        267
  11.5015        225
  11.5386        245
  11.5758        241
  11.6129        230
  11.6501        243
  11.6872        238
  11.7244        237
  11.7615        229
  11.7987        231
  11.8358        203
  11.8730        242
  11.9101        223
  11.9473        224
  11.9844        211
  12.0216        222
  12.0587        233
  12.0959        236
  12.1330        193
  12.1702        191
  12.2073        208
  12.2445        250
  12.2816        219
  12.3188        218
  12.3559        228
  12.3931        235
  12.4302        211
  12.4674        243
  12.5045        215
  12.5417        212
  12.5788        207
  12.6160        198
  12.6531        215
  12.6903        210
  12.7274        221
  12.7646        226
  12.8018        201
  12.8389        207
  12.8761        239
  12.9132        203
  12.9504        198
  12.9875        239
  13.0247        203
  13.0618        190
  13.0990        205
  13.1361        192
  13.1733        210
  13.2104        228
  13.2476        208
  13.2847        191
  13.3219        212
  13.3590        228
  13.3962        205
  13.4333        172
  13.4705        200
  13.5076        174
  13.5448        180
  13.5819        188
  13.6191        190
  13.6562        201
  13.6934        187
  13.7305        203
  13.7677        188
  13.8048        199
  13.8420        177
  13.8791        192
  13.9163        180
  13.9534        205
  13.9906        182
  14.0277        170
  14.0649        206
  14.1020        183
  14.1392        165
  14.1763        186
  14.2135        189
  14.2506        178
  14.2878        206
  14.3250        183
  14.3621        174
  14.3993        174
  14.4364        169
  14.4736        161
  14.5107        168
  14.5479        161
  14.5850        178
  14.6222        185
  14.6593        178
  14.6965        174
  14.7336        192
  14.7708        159
  14.8079        164
  14.8451        179
  14.8822        175
  14.9194        169
  14.9565        165
  14.9937        169
  15.0308        178
  15.0680        162
  15.1051        161
  15.1423        169
  15.1794        157
  15.2166        170
  15.2537        163
  15.2909        174
  15.3280        164
  15.3652        162
  15.4023        170
  15.4395        174
  15.4766        174
  15.5138        146
  15.5509        184
  15.5881        160
  15.6252        183
  15.6624        149
  15.6995        176
  15.7367        166
  15.7738        169
  15.8110        167
  15.8482        159
  15.8853        182
  15.9225        169
  15.9596        151
  15.9968        164
  16.0339        148
  16.0711        177
  16.1082        164
  16.1454        157
  16.1825        170
  16.2197        149
  16.2568        158
  16.2940        185
  16.3311        164
  16.3683        164
  16.4054        156
  16.4426        154
  16.4797        167
  16.5169        150
  16.5540        174
  16.5912        183
  16.6283        160
  16.6655        168
  16.7026        159
  16.7398        165
  16.7769        168
  16.8141        186
  16.8512        174
  16.8884        166
  16.9255        155
  16.9627        153
  16.9998        151
  17.0370        143
  17.0741        163
  17.1113        162
  17.1484        157
  17.1856        151
  17.2227        163
  17.2599        182
  17.2970        178
  17.3342        144
  17.3713        161
  17.4085        167
  17.4457        158
  17.4828        186
  17.5200        156
  17.5571        156
  17.5943        146
  17.6314        153
  17.6686        149
  17.7057        164
  17.7429        167
  17.7800        156
  17.8172        163
  17.8543        158
  17.8915        168
  17.9286        182
  17.9658        168
  18.0029        194
  18.0401        164
  18.0772        149
  18.1144        158
  18.1515        187
  18.1887        151
  18.2258        164
  18.2630        202
  18.3001        162
  18.3373        157
  18.3744        150
  18.4116        163
  18.4487        177
  18.4859        189
  18.5230        164
  18.5602        149
  18.5973        141
  18.6345        166
  18.6716        165
  18.7088        182
  18.7459        176
  18.7831        156
  18.8202        163
  18.8574        164
  18.8945        169
  18.9317        170
  18.9689        176
  19.0060        170
  19.0432        185
  19.0803        194
  19.1175        172
  19.1546        202
  19.1918        156
  19.2289        159
  19.2661        159
  19.3032        165
  19.3404        165
  19.3775        154
  19.4147        163
  19.4518        151
  19.4890        166
  19.5261        178
  19.5633        179
  19.6004        175
  19.6376        186
  19.6747        167
  19.7119        189
  19.7490        162
  19.7862        188
  19.8233        166
  19.8605        166
  19.8976        164
  19.9348        166
  19.9719        198
  20.0091        183
  20.0462        158
  20.0834        189
  20.1205        179
  20.1577        188
  20.1948        178
  20.2320        175
  20.2691        169
  20.3063        201
  20.3434        172
  20.3806        183
  20.4177        155
  20.4549        163
  20.4921        214
  20.5292        209
  20.5664        199
  20.6035        192
  20.6407        167
  20.6778        188
  20.7150        184
  20.7521        192
  20.7893        181
  20.8264        180
  20.8636        194
  20.9007        176
  20.9379        200
  20.9750        185
  21.0122        197
  21.0493        201
  21.0865        199
  21.1236        210
  21.1608        207
  21.1979        275
  21.2351        334
  21.2722        278
  21.3094        295
  21.3465        495
  21.3837        463
  21.4208        341
  21.4580        232
  21.4951        217
  21.5323        182
  21.5694        210
  21.6066        201
  21.6437        202
  21.6809        201
  21.7180        165
  21.7552        203
  21.7923        191
  21.8295        194
  21.8666        202
  21.9038        178
  21.9409        177
  21.9781        199
  22.0152        183
  22.0524        199
  22.0896        213
  22.1267        194
  22.1639        175
  22.2010        183
  22.2382        188
  22.2753        205
  22.3125        193
  22.3496        182
  22.3868        195
  22.4239        195
  22.4611        204
  22.4982        195
  22.5354        201
  22.5725        186
  22.6097        201
  22.6468        204
  22.6840        185
  22.7211        190
  22.7583        186
  22.7954        177
  22.8326        211
  22.8697        187
  22.9069        207
  22.9440        177
  22.9812        190
  23.0183        198
  23.0555        209
  23.0926        202
  23.1298        213
  23.1669        209
  23.2041        192
  23.2412        171
  23.2784        190
  23.3155        188
  23.3527        202
  23.3898        176
  23.4270        211
  23.4641        200
  23.5013        184
  23.5384        199
  23.5756        174
  23.6128        212
  23.6499        193
  23.6871        180
  23.7242        208
  23.7614        215
  23.7985        233
  23.8357        201
  23.8728        191
  23.9100        204
  23.9471        198
  23.9843        201
  24.0214        213
  24.0586        203
  24.0957        195
  24.1329        213
  24.1700        196
  24.2072        205
  24.2443        231
  24.2815        238
  24.3186        231
  24.3558        230
  24.3929        193
  24.4301        203
  24.4672        209
  24.5044        179
  24.5415        207
  24.5787        181
  24.6158        201
  24.6530        214
  24.6901        212
  24.7273        209
  24.7644        164
  24.8016        222
  24.8387        210
  24.8759        204
  24.9130        189
  24.9502        212
  24.9873        191
  25.0245        189
  25.0616        209
  25.0988        219
  25.1360        186
  25.1731        206
  25.2103        192
  25.2474        199
  25.2846        192
  25.3217        189
  25.3589        207
  25.3960        177
  25.4332        183
  25.4703        200
  25.5075        218
  25.5446        211
  25.5818        186
  25.6189        186
  25.6561        185
  25.6932        179
  25.7304        201
  25.7675        182
  25.8047        190
  25.8418        199
  25.8790        206
  25.9161        202
  25.9533        196
  25.9904        182
  26.0276        212
  26.0647        194
  26.1019        189
  26.1390        184
  26.1762        182
  26.2133        198
  26.2505        177
  26.2876        199
  26.3248        192
  26.3619        198
  26.3991        191
  26.4362        181
  26.4734        179
  26.5105        196
  26.5477        190
  26.5848        172
  26.6220        188
  26.6591        206
  26.6963        187
  26.7335        174
  26.7706        222
  26.8078        195
  26.8449        175
  26.8821        197
  26.9192        202
  26.9564        171
  26.9935        175
  27.0307        198
  27.0678        180
  27.1050        200
  27.1421        205
  27.1793        224
  27.2164        257
  27.2536        195
  27.2907        219
  27.3279        196
  27.3650        182
  27.4022        191
  27.4393        197
  27.4765        170
  27.5136        160
  27.5508        164
  27.5879        169
  27.6251        175
  27.6622        180
  27.6994        168
  27.7365        163
  27.7737        163
  27.8108        180
  27.8480        181
  27.8851        172
  27.9223        164
  27.9594        181
  27.9966        191
  28.0337        184
  28.0709        195
  28.1080        164
  28.1452        159
  28.1823        186
  28.2195        174
  28.2567        188
  28.2938        178
  28.3310        188
  28.3681        174
  28.4053        169
  28.4424        153
  28.4796        157
  28.5167        165
  28.5539        184
  28.5910        178
  28.6282        181
  28.6653        156
  28.7025        169
  28.7396        153
  28.7768        181
  28.8139        155
  28.8511        148
  28.8882        158
  28.9254        174
  28.9625        181
  28.9997        179
  29.0368        147
  29.0740        167
  29.1111        154
  29.1483        155
  29.1854        138
  29.2226        151
  29.2597        165
  29.2969        156
  29.3340        164
  29.3712        160
  29.4083        168
  29.4455        179
  29.4826        153
  29.5198        174
  29.5569        145
  29.5941        154
  29.6312        150
  29.6684        172
  29.7055        161
  29.7427        144
  29.7799        152
  29.8170        163
  29.8542        158
  29.8913        151
  29.9285        163
  29.9656        145
  30.0028        139
  30.0399        169
  30.0771        136
  30.1142        145
  30.1514        166
  30.1885        160
  30.2257        141
  30.2628        169
  30.3000        189
  30.3371        200
  30.3743        300
  30.4114        258
  30.4486        231
  30.4857        227
  30.5229        152
  30.5600        153
  30.5972        134
  30.6343        134
  30.6715        152
  30.7086        158
  30.7458        139
  30.7829        139
  30.8201        138
  30.8572        161
  30.8944        152
  30.9315        138
  30.9687        149
  31.0058        143
  31.0430        149
  31.0801        149
  31.1173        146
  31.1544        141
  31.1916        154
  31.2287        134
  31.2659        149
  31.3030        139
  31.3402        121
  31.3774        122
  31.4145        149
  31.4517        155
  31.4888        145
  31.5260        147
  31.5631        149
  31.6003        142
  31.6374        127
  31.6746        137
  31.7117        120
  31.7489        130
  31.7860        102
  31.8232        122
  31.8603        147
  31.8975        138
  31.9346        118
  31.9718        115
  32.0089        132
  32.0461        115
  32.0832        122
  32.1204        109
  32.1575        124
  32.1947        128
  32.2318        123
  32.2690        112
  32.3061        117
  32.3433        135
  32.3804        125
  32.4176        127
  32.4547        124
  32.4919        165
  32.5290        142
  32.5662        137
  32.6033        124
  32.6405        126
  32.6776        141
  32.7148        147
  32.7519        130
  32.7891        126
  32.8262        121
  32.8634        145
  32.9006        119
  32.9377        107
  32.9749        118
  33.0120        123
  33.0492        133
  33.0863        125
  33.1235        135
  33.1606        112
  33.1978        103
  33.2349        112
  33.2721        112
  33.3092        134
  33.3464        110
  33.3835        137
  33.4207         91
  33.4578        130
  33.4950        124
  33.5321        104
  33.5693        109
  33.6064        115
  33.6436        113
  33.6807        111
  33.7179        111
  33.7550        104
  33.7922        117
  33.8293        110
  33.8665        106
  33.9036        113
  33.9408        118
  33.9779        106
  34.0151        105
  34.0522        114
  34.0894        120
  34.1265        107
  34.1637        108
  34.2008        107
  34.2380        115
  34.2751        110
  34.3123        120
  34.3494        110
  34.3866        109
  34.4238        118
  34.4609        115
  34.4981        123
  34.5352        109
  34.5724        116
  34.6095        150
  34.6467        113
  34.6838        130
  34.7210        128
  34.7581        161
  34.7953        131
  34.8324        139
  34.8696        133
  34.9067        136
  34.9439        109
  34.9810        110
  35.0182        115
  35.0553        136
  35.0925        113
  35.1296        121
  35.1668        118
  35.2039        111
  35.2411         81
  35.2782        100
  35.3154        107
  35.3525        110
  35.3897         90
  35.4268        107
  35.4640        128
  35.5011         93
  35.5383         83
  35.5754         97
  35.6126         77
  35.6497         91
  35.6869         95
  35.7240         95
  35.7612         87
  35.7983         92
  35.8355         99
  35.8726         87
  35.9098         90
  35.9469         88
  35.9841         98
  36.0213         91
  36.0584        110
  36.0956        108
  36.1327         98
  36.1699        104
  36.2070        107
  36.2442        106
  36.2813         95
  36.3185         89
  36.3556         91
  36.3928         89
  36.4299        100
  36.4671         96
  36.5042        111
  36.5414         88
  36.5785        103
  36.6157         93
  36.6528         84
  36.6900         86
  36.7271         71
  36.7643         73
  36.8014         93
  36.8386         85
  36.8757         87
  36.9129        100
  36.9500        107
  36.9872         87
  37.0243         92
  37.0615         98
  37.0986         86
  37.1358         98
  37.1729         94
  37.2101         82
  37.2472         96
  37.2844         95
  37.3215         86
  37.3587         89
  37.3958        127
  37.4330        136
  37.4701        132
  37.5073        127
  37.5445        122
  37.5816         99
  37.6188         85
  37.6559        107
  37.6931         86
  37.7302         77
  37.7674         89
  37.8045         71
  37.8417         74
  37.8788         89
  37.9160         93
  37.9531         83
  37.9903         90
  38.0274         90
  38.0646         72
  38.1017         69
  38.1389         82
  38.1760         81
  38.2132         74
  38.2503         89
  38.2875         83
  38.3246         92
  38.3618         88
  38.3989         90
  38.4361         85
  38.4732         84
  38.5104         62
  38.5475         86
  38.5847         86
  38.6218         68
  38.6590         80
  38.6961         67
  38.7333         86
  38.7704         82
  38.8076         92
  38.8447         94
  38.8819         93
  38.9190         91
  38.9562         81
  38.9933         82
  39.0305         87
  39.0677         80
  39.1048         75
  39.1420         92
  39.1791        103
  39.2163        100
  39.2534         83
  39.2906         83
  39.3277         73
  39.3649         80
  39.4020         78
  39.4392         86
  39.4763         87
  39.5135         89
  39.5506         80
  39.5878         83
  39.6249         92
  39.6621         83
  39.6992         81
  39.7364         73
  39.7735         74
  39.8107         87
  39.8478         71
  39.8850         70
  39.9221         87
  39.9593         73
  39.9964         74
  40.0336         76
  40.0707         71
  40.1079         67
  40.1450         83
  40.1822         81
  40.2193         84
  40.2565         73
  40.2936         72
  40.3308         76
  40.3679         74
  40.4051         80
  40.4422         78
  40.4794         72
  40.5165         75
  40.5537         79
  40.5908         89
  40.6280         80
  40.6652         76
  40.7023         76
  40.7395         74
  40.7766         89
  40.8138         87
  40.8509         93
  40.8881         93
  40.9252         81
  40.9624         83
  40.9995         94
  41.0367         67
  41.0738         72
  41.1110         78
  41.1481         72
  41.1853         85
  41.2224         78
  41.2596         72
  41.2967         58
  41.3339         88
  41.3710         74
  41.4082         70
  41.4453         82
  41.4825         60
  41.5196         86
  41.5568         79
  41.5939         76
  41.6311         75
  41.6682         87
  41.7054         75
  41.7425         62
  41.7797         78
  41.8168         81
  41.8540         66
  41.8911         73
  41.9283         75
  41.9654         63
  42.0026         74
  42.0397         73
  42.0769         79
  42.1140         71
  42.1512         81
  42.1884         78
  42.2255         92
  42.2627         75
  42.2998         76
  42.3370         77
  42.3741         61
  42.4113         69
  42.4484         66
  42.4856         78
  42.5227         71
  42.5599         81
  42.5970         77
  42.6342         79
  42.6713         83
  42.7085         70
  42.7456         61
  42.7828         74
  42.8199         72
  42.8571         80
  42.8942         72
  42.9314         87
  42.9685         70
  43.0057         65
  43.0428         83
  43.0800         81
  43.1171         69
  43.1543         78
  43.1914         82
  43.2286         86
  43.2657         82
  43.3029        108
  43.3400         82
  43.3772         79
  43.4143         82
  43.4515         97
  43.4886        136
  43.5258         90
  43.5629        113
  43.6001        103
  43.6372         89
  43.6744         82
  43.7116         74
  43.7487         64
  43.7859         78
  43.8230         76
  43.8602         80
  43.8973         88
  43.9345         65
  43.9716         73
  44.0088         78
  44.0459         69
  44.0831         78
  44.1202         85
  44.1574         73
  44.1945         67
  44.2317         74
  44.2688         75
  44.3060         52
  44.3431         74
  44.3803         68
  44.4174         77
  44.4546         87
  44.4917         68
  44.5289         70
  44.5660         86
  44.6032         84
  44.6403         69
  44.6775         77
  44.7146         75
  44.7518         96
  44.7889         88
  44.8261         62
  44.8632         81
  44.9004         73
  44.9375         68
  44.9747         57
  45.0118         77
  45.0490         65
  45.0861         63
  45.1233         62
  45.1604         69
  45.1976         74
  45.2347         75
  45.2719         59
  45.3091         72
  45.3462         57
  45.3834         73
  45.4205         70
  45.4577         68
  45.4948         66
  45.5320         59
  45.5691         85
  45.6063         64
  45.6434         59
  45.6806         63
  45.7177         81
  45.7549         61
  45.7920         59
  45.8292         75
  45.8663         63
  45.9035         60
  45.9406         69
  45.9778         70
  46.0149         69
  46.0521         54
  46.0892         65
  46.1264         62
  46.1635         60
  46.2007         78
  46.2378         67
  46.2750         71
  46.3121         59
  46.3493         72
  46.3864         57
  46.4236         73
  46.4607         70
  46.4979         75
  46.5350         64
  46.5722         58
  46.6093         68
  46.6465         70
  46.6836         74
  46.7208         75
  46.7579         70
  46.7951         72
  46.8323         56
  46.8694         73
  46.9066         63
  46.9437         68
  46.9809         73
  47.0180         63
  47.0552         81
  47.0923         62
  47.1295         72
  47.1666         63
  47.2038         67
  47.2409         71
  47.2781         56
  47.3152         61
  47.3524         72
  47.3895         45
  47.4267         76
  47.4638         75
  47.5010         51
  47.5381         58
  47.5753         73
  47.6124         56
  47.6496         65
  47.6867         61
  47.7239         58
  47.7610         71
  47.7982         67
  47.8353         68
  47.8725         75
  47.9096         68
  47.9468         79
  47.9839         73
  48.0211         45
  48.0582         71
  48.0954         70
  48.1325         56
  48.1697         74
  48.2068         64
  48.2440         65
  48.2811         61
  48.3183         69
  48.3555         61
  48.3926         61
  48.4298         65
  48.4669         57
  48.5041         67
  48.5412         75
  48.5784         74
  48.6155         58
  48.6527         64
  48.6898         72
  48.7270         69
  48.7641         63
  48.8013         55
  48.8384         72
  48.8756         62
  48.9127         76
  48.9499        119
  48.9870        117
  49.0242         86
  49.0613         84
  49.0985         98
  49.1356         75
  49.1728         80
  49.2099         48
  49.2471         76
  49.2842         62
  49.3214         65
  49.3585         53
  49.3957         69
  49.4328         74
  49.4700         61
  49.5071         49
  49.5443         59
  49.5814         75
  49.6186         56
  49.6557         52
  49.6929         63
  49.7300         55
  49.7672         49
  49.8043         51
  49.8415         90
  49.8786         58
  49.9158         70
  49.9530         72
  49.9901         64
  50.0273         66
  50.0644         67
  50.1016         53
  50.1387         79
  50.1759         63
  50.2130         73
  50.2502         74
  50.2873         54
  50.3245         55
  50.3616         54
  50.3988         50
  50.4359         52
  50.4731         52
  50.5102         63
  50.5474         51
  50.5845         54
  50.6217         71
  50.6588         67
  50.6960         52
  50.7331         58
  50.7703         53
  50.8074         54
  50.8446         72
  50.8817         55
  50.9189         54
  50.9560         46
  50.9932         69
  51.0303         56
  51.0675         60
  51.1046         53
  51.1418         56
  51.1789         67
  51.2161         51
  51.2532         66
  51.2904         65
  51.3275         58
  51.3647         62
  51.4018         79
  51.4390         73
  51.4762         70
  51.5133         67
  51.5505         65
  51.5876         70
  51.6248         62
  51.6619         58
  51.6991         49
  51.7362         68
  51.7734         50
  51.8105         67
  51.8477         66
  51.8848         69
  51.9220         74
  51.9591         65
  51.9963         76
  52.0334         64
  52.0706         58
  52.1077         56
  52.1449         61
  52.1820         58
  52.2192         58
  52.2563         49
  52.2935         56
  52.3306         67
  52.3678         67
  52.4049         63
  52.4421         55
  52.4792         49
  52.5164         55
  52.5535         76
  52.5907         55
  52.6278         47
  52.6650         51
  52.7021         51
  52.7393         56
  52.7764         66
  52.8136         71
  52.8507         72
  52.8879         56
  52.9250         68
  52.9622         56
  52.9994         58
  53.0365         67
  53.0737         58
  53.1108         46
  53.1480         57
  53.1851         58
  53.2223         58
  53.2594         61
  53.2966         61
  53.3337         58
  53.3709         51
  53.4080         49
  53.4452         67
  53.4823         49
  53.5195         59
  53.5566         57
  53.5938         58
  53.6309         58
  53.6681         50
  53.7052         54
  53.7424         51
  53.7795         55
  53.8167         54
  53.8538         61
  53.8910         62
  53.9281         77
  53.9653         87
  54.0024         78
  54.0396         59
  54.0767         45
  54.1139         57
  54.1510         60
  54.1882         62
  54.2253         59
  54.2625         52
  54.2996         51
  54.3368         44
  54.3739         56
  54.4111         43
  54.4482         70
  54.4854         61
  54.5225         55
  54.5597         63
  54.5969         54
  54.6340         59
  54.6712         55
  54.7083         44
  54.7455         50
  54.7826         57
  54.8198         52
  54.8569         52
  54.8941         45
  54.9312         61
  54.9684         29
  55.0055         65
  55.0427         63
  55.0798         66
  55.1170         49
  55.1541         47
  55.1913         58
  55.2284         54
  55.2656         66
  55.3027         39
  55.3399         46
  55.3770         44
  55.4142         58
  55.4513         42
  55.4885         51
  55.5256         50
  55.5628         45
  55.5999         56
  55.6371         54
  55.6742         63
  55.7114         56
  55.7485         53
  55.7857         48
  55.8228         53
  55.8600         54
  55.8971         67
  55.9343         62
  55.9714         59
  56.0086         62
  56.0457         59
  56.0829         54
  56.1201         54
  56.1572         67
  56.1944         80
  56.2315         68
  56.2687         50
  56.3058         53
  56.3430         66
  56.3801         66
  56.4173         55
  56.4544         67
  56.4916         70
  56.5287         59
  56.5659         64
  56.6030         55
  56.6402         39
  56.6773         64
  56.7145         48
  56.7516         65
  56.7888         70
  56.8259         79
  56.8631         68
  56.9002         50
  56.9374         64
  56.9745         57
  57.0117         45
  57.0488         49
  57.0860         48
  57.1231         39
  57.1603         55
  57.1974         53
  57.2346         49
  57.2717         60
  57.3089         53
  57.3460         74
  57.3832         57
  57.4203         62
  57.4575         51
  57.4946         58
  57.5318         52
  57.5689         45
  57.6061         62
  57.6433         64
  57.6804         65
  57.7176         45
  57.7547         56
  57.7919         58
  57.8290         52
  57.8662         50
  57.9033         62
  57.9405         62
  57.9776         55
  58.0148         57
  58.0519         56
  58.0891         69
  58.1262         54
  58.1634         63
  58.2005         49
  58.2377         59
  58.2748         56
  58.3120         81
  58.3491         77
  58.3863         62
  58.4234         57
  58.4606         55
  58.4977         58
  58.5349         52
  58.5720         55
  58.6092         46
  58.6463         59
  58.6835         52
  58.7206         60
  58.7578         52
  58.7949         48
  58.8321         47
  58.8692         56
  58.9064         62
  58.9435         49
  58.9807         48
  59.0178         44
  59.0550         53
  59.0921         52
  59.1293         58
  59.1664         51
  59.2036         74
  59.2408         59
  59.2779         57
  59.3151         61
  59.3522         54
  59.3894         67
  59.4265         45
  59.4637         66
  59.5008         61
  59.5380         59
  59.5751         42
  59.6123         60
  59.6494         54
  59.6866         54
  59.7237         58
  59.7609         60
  59.7980         51
  59.8352         51
  59.8723         59
  59.9095         53
  59.9466         55
  59.9838         42
  60.0024         51