File: notebooks/data/xrd_data/ML_20220718_24_SJD_4_LaB6-2min.csv
;,2THETA,
5.0000,131
5.0372,110
5.0743,139
5.1115,124
5.1486,149
5.1858,127
5.2229,121
5.2601,109
5.2972,98
5.3344,111
5.3715,118
5.4087,127
5.4458,110
5.4830,117
5.5201,114
5.5573,123
5.5944,110
5.6316,139
5.6687,114
5.7059,112
5.7430,92
5.7802,110
5.8173,99
5.8545,87
5.8916,112
5.9288,107
5.9659,100
6.0031,109
6.0402,90
6.0774,105
6.1145,88
6.1517,94
6.1888,91
6.2260,99
6.2631,93
6.3003,110
6.3374,93
6.3746,97
6.4117,92
6.4489,76
6.4860,94
6.5232,90
6.5604,86
6.5975,88
6.6347,87
6.6718,91
6.7090,75
6.7461,92
6.7833,85
6.8204,80
6.8576,102
6.8947,91
6.9319,84
6.9690,74
7.0062,88
7.0433,71
7.0805,84
7.1176,82
7.1548,72
7.1919,70
7.2291,81
7.2662,66
7.3034,73
7.3405,59
7.3777,57
7.4148,92
7.4520,92
7.4891,69
7.5263,86
7.5634,72
7.6006,101
7.6377,86
7.6749,95
7.7120,90
7.7492,89
7.7863,90
7.8235,95
7.8606,70
7.8978,90
7.9349,98
7.9721,80
8.0092,70
8.0464,103
8.0835,99
8.1207,81
8.1579,89
8.1950,101
8.2322,97
8.2693,93
8.3065,112
8.3436,90
8.3808,99
8.4179,96
8.4551,100
8.4922,109
8.5294,101
8.5665,104
8.6037,109
8.6408,109
8.6780,95
8.7151,101
8.7523,104
8.7894,92
8.8266,93
8.8637,119
8.9009,99
8.9380,95
8.9752,105
9.0123,108
9.0495,115
9.0866,118
9.1238,112
9.1609,100
9.1981,105
9.2352,104
9.2724,107
9.3095,134
9.3467,102
9.3838,110
9.4210,107
9.4581,107
9.4953,109
9.5324,103
9.5696,104
9.6067,87
9.6439,97
9.6811,90
9.7182,105
9.7554,92
9.7925,111
9.8297,120
9.8668,117
9.9040,101
9.9411,121
9.9783,115
10.0154,121
10.0526,114
10.0897,120
10.1269,112
10.1640,120
10.2012,129
10.2383,115
10.2755,106
10.3126,131
10.3498,113
10.3869,139
10.4241,142
10.4612,126
10.4984,106
10.5355,101
10.5727,119
10.6098,123
10.6470,156
10.6841,110
10.7213,107
10.7584,130
10.7956,129
10.8327,114
10.8699,117
10.9070,117
10.9442,141
10.9813,124
11.0185,112
11.0556,120
11.0928,106
11.1299,117
11.1671,116
11.2043,119
11.2414,101
11.2786,119
11.3157,122
11.3529,114
11.3900,134
11.4272,106
11.4643,105
11.5015,114
11.5386,91
11.5758,112
11.6129,122
11.6501,123
11.6872,114
11.7244,119
11.7615,129
11.7987,102
11.8358,114
11.8730,118
11.9101,119
11.9473,112
11.9844,104
12.0216,88
12.0587,130
12.0959,117
12.1330,107
12.1702,132
12.2073,119
12.2445,104
12.2816,110
12.3188,114
12.3559,116
12.3931,98
12.4302,115
12.4674,121
12.5045,100
12.5417,96
12.5788,83
12.6160,116
12.6531,101
12.6903,108
12.7274,111
12.7646,113
12.8018,125
12.8389,101
12.8761,89
12.9132,88
12.9504,91
12.9875,100
13.0247,104
13.0618,116
13.0990,119
13.1361,110
13.1733,88
13.2104,111
13.2476,95
13.2847,103
13.3219,87
13.3590,99
13.3962,95
13.4333,114
13.4705,82
13.5076,123
13.5448,94
13.5819,91
13.6191,93
13.6562,102
13.6934,97
13.7305,94
13.7677,92
13.8048,118
13.8420,90
13.8791,111
13.9163,85
13.9534,105
13.9906,80
14.0277,92
14.0649,100
14.1020,100
14.1392,88
14.1763,102
14.2135,100
14.2506,86
14.2878,74
14.3250,84
14.3621,79
14.3993,80
14.4364,81
14.4736,88
14.5107,84
14.5479,87
14.5850,81
14.6222,71
14.6593,84
14.6965,91
14.7336,102
14.7708,75
14.8079,73
14.8451,75
14.8822,110
14.9194,87
14.9565,97
14.9937,91
15.0308,83
15.0680,78
15.1051,88
15.1423,79
15.1794,96
15.2166,78
15.2537,80
15.2909,93
15.3280,82
15.3652,87
15.4023,85
15.4395,88
15.4766,79
15.5138,70
15.5509,88
15.5881,83
15.6252,90
15.6624,82
15.6995,82
15.7367,77
15.7738,88
15.8110,83
15.8482,85
15.8853,69
15.9225,81
15.9596,83
15.9968,72
16.0339,83
16.0711,89
16.1082,66
16.1454,57
16.1825,93
16.2197,86
16.2568,87
16.2940,89
16.3311,86
16.3683,77
16.4054,77
16.4426,73
16.4797,73
16.5169,79
16.5540,80
16.5912,82
16.6283,85
16.6655,74
16.7026,80
16.7398,83
16.7769,68
16.8141,90
16.8512,74
16.8884,76
16.9255,76
16.9627,79
16.9998,75
17.0370,89
17.0741,77
17.1113,75
17.1484,74
17.1856,80
17.2227,76
17.2599,74
17.2970,84
17.3342,87
17.3713,82
17.4085,84
17.4457,87
17.4828,70
17.5200,61
17.5571,64
17.5943,81
17.6314,76
17.6686,79
17.7057,66
17.7429,86
17.7800,79
17.8172,75
17.8543,87
17.8915,76
17.9286,76
17.9658,69
18.0029,92
18.0401,91
18.0772,97
18.1144,90
18.1515,83
18.1887,85
18.2258,74
18.2630,83
18.3001,87
18.3373,85
18.3744,89
18.4116,87
18.4487,88
18.4859,74
18.5230,79
18.5602,68
18.5973,89
18.6345,84
18.6716,73
18.7088,98
18.7459,92
18.7831,78
18.8202,78
18.8574,58
18.8945,79
18.9317,79
18.9689,101
19.0060,95
19.0432,75
19.0803,80
19.1175,85
19.1546,80
19.1918,97
19.2289,88
19.2661,93
19.3032,80
19.3404,83
19.3775,79
19.4147,91
19.4518,97
19.4890,94
19.5261,80
19.5633,74
19.6004,86
19.6376,84
19.6747,99
19.7119,83
19.7490,103
19.7862,77
19.8233,92
19.8605,98
19.8976,108
19.9348,78
19.9719,84
20.0091,84
20.0462,96
20.0834,101
20.1205,82
20.1577,80
20.1948,87
20.2320,93
20.2691,69
20.3063,80
20.3434,97
20.3806,82
20.4177,103
20.4549,90
20.4921,90
20.5292,83
20.5664,99
20.6035,81
20.6407,78
20.6778,87
20.7150,71
20.7521,89
20.7893,97
20.8264,90
20.8636,105
20.9007,97
20.9379,97
20.9750,83
21.0122,92
21.0493,95
21.0865,91
21.1236,97
21.1608,102
21.1979,164
21.2351,165
21.2722,120
21.3094,173
21.3465,248
21.3837,215
21.4208,166
21.4580,130
21.4951,126
21.5323,99
21.5694,100
21.6066,111
21.6437,96
21.6809,107
21.7180,112
21.7552,96
21.7923,81
21.8295,104
21.8666,95
21.9038,97
21.9409,97
21.9781,105
22.0152,102
22.0524,102
22.0896,97
22.1267,101
22.1639,112
22.2010,96
22.2382,104
22.2753,95
22.3125,87
22.3496,113
22.3868,98
22.4239,90
22.4611,107
22.4982,81
22.5354,111
22.5725,94
22.6097,95
22.6468,92
22.6840,88
22.7211,102
22.7583,108
22.7954,92
22.8326,99
22.8697,102
22.9069,108
22.9440,83
22.9812,97
23.0183,112
23.0555,105
23.0926,94
23.1298,108
23.1669,98
23.2041,74
23.2412,100
23.2784,118
23.3155,101
23.3527,87
23.3898,95
23.4270,126
23.4641,96
23.5013,112
23.5384,107
23.5756,102
23.6128,109
23.6499,107
23.6871,99
23.7242,102
23.7614,100
23.7985,103
23.8357,116
23.8728,90
23.9100,105
23.9471,103
23.9843,101
24.0214,81
24.0586,103
24.0957,106
24.1329,88
24.1700,103
24.2072,121
24.2443,100
24.2815,115
24.3186,108
24.3558,108
24.3929,115
24.4301,111
24.4672,110
24.5044,116
24.5415,90
24.5787,115
24.6158,100
24.6530,91
24.6901,83
24.7273,80
24.7644,92
24.8016,89
24.8387,116
24.8759,114
24.9130,92
24.9502,81
24.9873,104
25.0245,101
25.0616,99
25.0988,91
25.1360,103
25.1731,97
25.2103,112
25.2474,90
25.2846,82
25.3217,91
25.3589,99
25.3960,91
25.4332,98
25.4703,103
25.5075,106
25.5446,92
25.5818,97
25.6189,91
25.6561,119
25.6932,103
25.7304,94
25.7675,105
25.8047,91
25.8418,93
25.8790,96
25.9161,94
25.9533,93
25.9904,103
26.0276,84
26.0647,86
26.1019,89
26.1390,106
26.1762,92
26.2133,78
26.2505,84
26.2876,93
26.3248,94
26.3619,93
26.3991,104
26.4362,94
26.4734,89
26.5105,90
26.5477,96
26.5848,97
26.6220,90
26.6591,89
26.6963,107
26.7335,90
26.7706,96
26.8078,99
26.8449,96
26.8821,84
26.9192,84
26.9564,115
26.9935,89
27.0307,86
27.0678,103
27.1050,84
27.1421,100
27.1793,120
27.2164,96
27.2536,134
27.2907,96
27.3279,88
27.3650,86
27.4022,100
27.4393,90
27.4765,112
27.5136,91
27.5508,91
27.5879,96
27.6251,102
27.6622,99
27.6994,97
27.7365,85
27.7737,84
27.8108,88
27.8480,86
27.8851,95
27.9223,100
27.9594,80
27.9966,80
28.0337,83
28.0709,119
28.1080,70
28.1452,94
28.1823,86
28.2195,86
28.2567,83
28.2938,84
28.3310,74
28.3681,86
28.4053,96
28.4424,80
28.4796,75
28.5167,73
28.5539,72
28.5910,83
28.6282,80
28.6653,84
28.7025,92
28.7396,79
28.7768,58
28.8139,88
28.8511,85
28.8882,86
28.9254,91
28.9625,73
28.9997,75
29.0368,89
29.0740,84
29.1111,81
29.1483,74
29.1854,69
29.2226,73
29.2597,83
29.2969,86
29.3340,79
29.3712,90
29.4083,76
29.4455,80
29.4826,92
29.5198,63
29.5569,78
29.5941,57
29.6312,80
29.6684,55
29.7055,92
29.7427,81
29.7799,78
29.8170,98
29.8542,74
29.8913,64
29.9285,76
29.9656,82
30.0028,82
30.0399,79
30.0771,67
30.1142,65
30.1514,76
30.1885,72
30.2257,77
30.2628,79
30.3000,96
30.3371,86
30.3743,153
30.4114,152
30.4486,112
30.4857,101
30.5229,84
30.5600,71
30.5972,70
30.6343,78
30.6715,75
30.7086,86
30.7458,86
30.7829,60
30.8201,81
30.8572,67
30.8944,76
30.9315,77
30.9687,85
31.0058,68
31.0430,61
31.0801,75
31.1173,82
31.1544,65
31.1916,74
31.2287,74
31.2659,55
31.3030,90
31.3402,65
31.3774,68
31.4145,71
31.4517,67
31.4888,67
31.5260,81
31.5631,56
31.6003,73
31.6374,64
31.6746,67
31.7117,80
31.7489,69
31.7860,75
31.8232,52
31.8603,74
31.8975,69
31.9346,72
31.9718,55
32.0089,74
32.0461,58
32.0832,69
32.1204,68
32.1575,58
32.1947,70
32.2318,56
32.2690,64
32.3061,61
32.3433,65
32.3804,77
32.4176,78
32.4547,69
32.4919,67
32.5290,73
32.5662,78
32.6033,65
32.6405,44
32.6776,46
32.7148,70
32.7519,67
32.7891,60
32.8262,70
32.8634,64
32.9006,61
32.9377,61
32.9749,58
33.0120,62
33.0492,73
33.0863,64
33.1235,52
33.1606,56
33.1978,59
33.2349,67
33.2721,54
33.3092,57
33.3464,68
33.3835,52
33.4207,58
33.4578,71
33.4950,66
33.5321,57
33.5693,64
33.6064,52
33.6436,58
33.6807,52
33.7179,56
33.7550,62
33.7922,52
33.8293,62
33.8665,60
33.9036,62
33.9408,56
33.9779,55
34.0151,61
34.0522,62
34.0894,59
34.1265,47
34.1637,57
34.2008,66
34.2380,52
34.2751,63
34.3123,54
34.3494,60
34.3866,55
34.4238,57
34.4609,46
34.4981,47
34.5352,44
34.5724,49
34.6095,58
34.6467,77
34.6838,67
34.7210,72
34.7581,72
34.7953,73
34.8324,79
34.8696,55
34.9067,61
34.9439,47
34.9810,60
35.0182,46
35.0553,35
35.0925,62
35.1296,64
35.1668,46
35.2039,56
35.2411,46
35.2782,51
35.3154,57
35.3525,55
35.3897,43
35.4268,45
35.4640,52
35.5011,49
35.5383,53
35.5754,49
35.6126,56
35.6497,57
35.6869,38
35.7240,54
35.7612,34
35.7983,51
35.8355,46
35.8726,50
35.9098,63
35.9469,50
35.9841,46
36.0213,51
36.0584,51
36.0956,54
36.1327,53
36.1699,46
36.2070,48
36.2442,50
36.2813,53
36.3185,55
36.3556,43
36.3928,38
36.4299,53
36.4671,52
36.5042,33
36.5414,38
36.5785,44
36.6157,43
36.6528,55
36.6900,50
36.7271,39
36.7643,50
36.8014,57
36.8386,47
36.8757,52
36.9129,45
36.9500,45
36.9872,45
37.0243,44
37.0615,40
37.0986,45
37.1358,40
37.1729,38
37.2101,43
37.2472,44
37.2844,67
37.3215,50
37.3587,48
37.3958,46
37.4330,83
37.4701,71
37.5073,56
37.5445,55
37.5816,42
37.6188,44
37.6559,38
37.6931,50
37.7302,51
37.7674,38
37.8045,45
37.8417,49
37.8788,44
37.9160,44
37.9531,43
37.9903,40
38.0274,44
38.0646,43
38.1017,38
38.1389,48
38.1760,43
38.2132,48
38.2503,41
38.2875,40
38.3246,42
38.3618,44
38.3989,42
38.4361,49
38.4732,47
38.5104,52
38.5475,42
38.5847,41
38.6218,38
38.6590,41
38.6961,43
38.7333,38
38.7704,54
38.8076,44
38.8447,43
38.8819,39
38.9190,43
38.9562,39
38.9933,47
39.0305,33
39.0677,35
39.1048,54
39.1420,52
39.1791,38
39.2163,38
39.2534,38
39.2906,34
39.3277,39
39.3649,41
39.4020,36
39.4392,32
39.4763,45
39.5135,42
39.5506,40
39.5878,48
39.6249,36
39.6621,33
39.6992,34
39.7364,46
39.7735,42
39.8107,40
39.8478,36
39.8850,31
39.9221,38
39.9593,43
39.9964,54
40.0336,43
40.0707,50
40.1079,44
40.1450,34
40.1822,37
40.2193,33
40.2565,41
40.2936,40
40.3308,37
40.3679,36
40.4051,41
40.4422,39
40.4794,38
40.5165,43
40.5537,33
40.5908,43
40.6280,48
40.6652,37
40.7023,34
40.7395,38
40.7766,34
40.8138,48
40.8509,39
40.8881,38
40.9252,51
40.9624,39
40.9995,31
41.0367,47
41.0738,41
41.1110,36
41.1481,31
41.1853,52
41.2224,28
41.2596,36
41.2967,39
41.3339,29
41.3710,27
41.4082,42
41.4453,43
41.4825,37
41.5196,42
41.5568,29
41.5939,42
41.6311,26
41.6682,36
41.7054,29
41.7425,41
41.7797,35
41.8168,38
41.8540,36
41.8911,47
41.9283,29
41.9654,36
42.0026,33
42.0397,30
42.0769,27
42.1140,44
42.1512,30
42.1884,32
42.2255,37
42.2627,44
42.2998,41
42.3370,31
42.3741,31
42.4113,34
42.4484,35
42.4856,31
42.5227,44
42.5599,35
42.5970,32
42.6342,17
42.6713,32
42.7085,38
42.7456,32
42.7828,45
42.8199,47
42.8571,36
42.8942,46
42.9314,41
42.9685,35
43.0057,26
43.0428,39
43.0800,39
43.1171,42
43.1543,53
43.1914,40
43.2286,37
43.2657,41
43.3029,33
43.3400,39
43.3772,42
43.4143,27
43.4515,46
43.4886,65
43.5258,55
43.5629,52
43.6001,49
43.6372,62
43.6744,40
43.7116,30
43.7487,33
43.7859,41
43.8230,26
43.8602,32
43.8973,47
43.9345,42
43.9716,37
44.0088,40
44.0459,25
44.0831,41
44.1202,43
44.1574,42
44.1945,30
44.2317,38
44.2688,41
44.3060,34
44.3431,44
44.3803,39
44.4174,42
44.4546,45
44.4917,44
44.5289,34
44.5660,42
44.6032,40
44.6403,36
44.6775,36
44.7146,35
44.7518,40
44.7889,36
44.8261,32
44.8632,32
44.9004,32
44.9375,43
44.9747,32
45.0118,42
45.0490,29
45.0861,26
45.1233,26
45.1604,39
45.1976,37
45.2347,29
45.2719,41
45.3091,29
45.3462,33
45.3834,39
45.4205,39
45.4577,37
45.4948,41
45.5320,33
45.5691,32
45.6063,33
45.6434,28
45.6806,23
45.7177,22
45.7549,37
45.7920,40
45.8292,28
45.8663,34
45.9035,42
45.9406,29
45.9778,34
46.0149,33
46.0521,35
46.0892,30
46.1264,34
46.1635,38
46.2007,36
46.2378,32
46.2750,33
46.3121,29
46.3493,37
46.3864,40
46.4236,37
46.4607,29
46.4979,26
46.5350,43
46.5722,20
46.6093,30
46.6465,38
46.6836,30
46.7208,37
46.7579,40
46.7951,31
46.8323,25
46.8694,29
46.9066,36
46.9437,25
46.9809,20
47.0180,30
47.0552,31
47.0923,30
47.1295,24
47.1666,31
47.2038,26
47.2409,26
47.2781,27
47.3152,23
47.3524,44
47.3895,29
47.4267,31
47.4638,26
47.5010,37
47.5381,32
47.5753,36
47.6124,30
47.6496,34
47.6867,26
47.7239,33
47.7610,24
47.7982,28
47.8353,25
47.8725,40
47.9096,33
47.9468,36
47.9839,35
48.0211,20
48.0582,31
48.0954,31
48.1325,30
48.1697,30
48.2068,30
48.2440,30
48.2811,38
48.3183,30
48.3555,29
48.3926,33
48.4298,32
48.4669,20
48.5041,24
48.5412,28
48.5784,42
48.6155,30
48.6527,31
48.6898,26
48.7270,28
48.7641,30
48.8013,23
48.8384,30
48.8756,23
48.9127,40
48.9499,58
48.9870,51
49.0242,32
49.0613,40
49.0985,36
49.1356,38
49.1728,51
49.2099,32
49.2471,31
49.2842,24
49.3214,29
49.3585,32
49.3957,42
49.4328,37
49.4700,26
49.5071,28
49.5443,38
49.5814,27
49.6186,27
49.6557,30
49.6929,37
49.7300,34
49.7672,31
49.8043,33
49.8415,32
49.8786,29
49.9158,19
49.9530,28
49.9901,33
50.0273,37
50.0644,36
50.1016,27
50.1387,24
50.1759,28
50.2130,30
50.2502,35
50.2873,27
50.3245,28
50.3616,21
50.3988,39
50.4359,30
50.4731,34
50.5102,29
50.5474,21
50.5845,25
50.6217,32
50.6588,30
50.6960,37
50.7331,34
50.7703,29
50.8074,34
50.8446,41
50.8817,26
50.9189,26
50.9560,35
50.9932,31
51.0303,28
51.0675,27
51.1046,35
51.1418,31
51.1789,32
51.2161,33
51.2532,30
51.2904,31
51.3275,33
51.3647,23
51.4018,34
51.4390,30
51.4762,30
51.5133,34
51.5505,26
51.5876,25
51.6248,41
51.6619,30
51.6991,39
51.7362,28
51.7734,24
51.8105,33
51.8477,42
51.8848,28
51.9220,25
51.9591,30
51.9963,28
52.0334,37
52.0706,38
52.1077,26
52.1449,26
52.1820,32
52.2192,20
52.2563,34
52.2935,32
52.3306,38
52.3678,30
52.4049,35
52.4421,34
52.4792,31
52.5164,24
52.5535,28
52.5907,30
52.6278,25
52.6650,24
52.7021,27
52.7393,27
52.7764,26
52.8136,26
52.8507,27
52.8879,24
52.9250,38
52.9622,27
52.9994,38
53.0365,29
53.0737,37
53.1108,33
53.1480,37
53.1851,23
53.2223,29
53.2594,28
53.2966,23
53.3337,33
53.3709,20
53.4080,28
53.4452,27
53.4823,28
53.5195,27
53.5566,32
53.5938,32
53.6309,23
53.6681,31
53.7052,23
53.7424,30
53.7795,38
53.8167,32
53.8538,28
53.8910,39
53.9281,25
53.9653,43
54.0024,45
54.0396,26
54.0767,42
54.1139,25
54.1510,34
54.1882,30
54.2253,26
54.2625,34
54.2996,32
54.3368,29
54.3739,35
54.4111,27
54.4482,35
54.4854,29
54.5225,21
54.5597,33
54.5969,34
54.6340,27
54.6712,25
54.7083,29
54.7455,27
54.7826,24
54.8198,39
54.8569,19
54.8941,21
54.9312,35
54.9684,19
55.0055,34
55.0427,25
55.0798,27
55.1170,31
55.1541,25
55.1913,26
55.2284,23
55.2656,27
55.3027,20
55.3399,17
55.3770,28
55.4142,34
55.4513,21
55.4885,29
55.5256,21
55.5628,29
55.5999,29
55.6371,25
55.6742,25
55.7114,20
55.7485,20
55.7857,21
55.8228,22
55.8600,32
55.8971,34
55.9343,28
55.9714,26
56.0086,29
56.0457,21
56.0829,29
56.1201,31
56.1572,29
56.1944,30
56.2315,35
56.2687,29
56.3058,37
56.3430,34
56.3801,34
56.4173,22
56.4544,25
56.4916,40
56.5287,36
56.5659,22
56.6030,33
56.6402,34
56.6773,39
56.7145,28
56.7516,30
56.7888,31
56.8259,21
56.8631,28
56.9002,23
56.9374,32
56.9745,29
57.0117,29
57.0488,20
57.0860,19
57.1231,28
57.1603,24
57.1974,30
57.2346,29
57.2717,34
57.3089,33
57.3460,34
57.3832,29
57.4203,26
57.4575,28
57.4946,28
57.5318,18
57.5689,23
57.6061,23
57.6433,29
57.6804,32
57.7176,26
57.7547,33
57.7919,23
57.8290,21
57.8662,31
57.9033,24
57.9405,29
57.9776,25
58.0148,19
58.0519,35
58.0891,30
58.1262,31
58.1634,26
58.2005,21
58.2377,35
58.2748,23
58.3120,32
58.3491,25
58.3863,22
58.4234,25
58.4606,28
58.4977,27
58.5349,24
58.5720,31
58.6092,39
58.6463,27
58.6835,26
58.7206,24
58.7578,32
58.7949,19
58.8321,18
58.8692,24
58.9064,23
58.9435,35
58.9807,27
59.0178,27
59.0550,23
59.0921,27
59.1293,26
59.1664,34
59.2036,29
59.2408,33
59.2779,23
59.3151,26
59.3522,27
59.3894,21
59.4265,30
59.4637,29
59.5008,21
59.5380,33
59.5751,30
59.6123,24
59.6494,30
59.6866,25
59.7237,21
59.7609,24
59.7980,26
59.8352,26
59.8723,24
59.9095,27
59.9466,18
59.9838,39
60.0024,23