File: notebooks/data/xrd_data/ML_20220718_38_SJD_4_LaB6-2min.csv
;,2THETA,
5.0000,124
5.0372,153
5.0743,127
5.1115,128
5.1486,111
5.1858,122
5.2229,121
5.2601,104
5.2972,137
5.3344,119
5.3715,110
5.4087,108
5.4458,137
5.4830,110
5.5201,102
5.5573,101
5.5944,99
5.6316,104
5.6687,110
5.7059,108
5.7430,104
5.7802,90
5.8173,107
5.8545,97
5.8916,90
5.9288,102
5.9659,97
6.0031,87
6.0402,95
6.0774,101
6.1145,79
6.1517,88
6.1888,88
6.2260,77
6.2631,83
6.3003,94
6.3374,88
6.3746,88
6.4117,91
6.4489,78
6.4860,92
6.5232,79
6.5604,82
6.5975,86
6.6347,112
6.6718,89
6.7090,81
6.7461,89
6.7833,74
6.8204,72
6.8576,77
6.8947,71
6.9319,88
6.9690,76
7.0062,78
7.0433,76
7.0805,94
7.1176,78
7.1548,70
7.1919,95
7.2291,75
7.2662,69
7.3034,87
7.3405,81
7.3777,78
7.4148,76
7.4520,73
7.4891,83
7.5263,100
7.5634,84
7.6006,84
7.6377,73
7.6749,91
7.7120,92
7.7492,100
7.7863,94
7.8235,97
7.8606,95
7.8978,82
7.9349,84
7.9721,88
8.0092,91
8.0464,96
8.0835,93
8.1207,98
8.1579,94
8.1950,111
8.2322,79
8.2693,98
8.3065,100
8.3436,108
8.3808,100
8.4179,106
8.4551,100
8.4922,115
8.5294,92
8.5665,89
8.6037,87
8.6408,103
8.6780,92
8.7151,91
8.7523,100
8.7894,99
8.8266,106
8.8637,102
8.9009,99
8.9380,101
8.9752,108
9.0123,98
9.0495,108
9.0866,100
9.1238,101
9.1609,100
9.1981,129
9.2352,107
9.2724,102
9.3095,109
9.3467,105
9.3838,98
9.4210,114
9.4581,99
9.4953,116
9.5324,106
9.5696,101
9.6067,91
9.6439,107
9.6811,106
9.7182,89
9.7554,136
9.7925,122
9.8297,115
9.8668,133
9.9040,114
9.9411,123
9.9783,115
10.0154,113
10.0526,84
10.0897,103
10.1269,124
10.1640,134
10.2012,112
10.2383,114
10.2755,105
10.3126,125
10.3498,104
10.3869,130
10.4241,111
10.4612,112
10.4984,126
10.5355,134
10.5727,108
10.6098,114
10.6470,96
10.6841,127
10.7213,135
10.7584,129
10.7956,134
10.8327,104
10.8699,109
10.9070,121
10.9442,114
10.9813,113
11.0185,121
11.0556,137
11.0928,122
11.1299,112
11.1671,117
11.2043,122
11.2414,113
11.2786,100
11.3157,106
11.3529,119
11.3900,124
11.4272,118
11.4643,125
11.5015,118
11.5386,114
11.5758,106
11.6129,99
11.6501,117
11.6872,128
11.7244,115
11.7615,108
11.7987,131
11.8358,112
11.8730,122
11.9101,103
11.9473,114
11.9844,115
12.0216,135
12.0587,112
12.0959,103
12.1330,121
12.1702,110
12.2073,107
12.2445,105
12.2816,111
12.3188,115
12.3559,106
12.3931,104
12.4302,95
12.4674,116
12.5045,101
12.5417,98
12.5788,80
12.6160,92
12.6531,116
12.6903,97
12.7274,108
12.7646,114
12.8018,90
12.8389,98
12.8761,98
12.9132,100
12.9504,91
12.9875,86
13.0247,96
13.0618,126
13.0990,88
13.1361,68
13.1733,95
13.2104,96
13.2476,82
13.2847,99
13.3219,92
13.3590,89
13.3962,96
13.4333,109
13.4705,103
13.5076,107
13.5448,97
13.5819,94
13.6191,87
13.6562,98
13.6934,83
13.7305,80
13.7677,100
13.8048,91
13.8420,108
13.8791,95
13.9163,106
13.9534,86
13.9906,67
14.0277,83
14.0649,83
14.1020,93
14.1392,85
14.1763,97
14.2135,81
14.2506,82
14.2878,80
14.3250,94
14.3621,84
14.3993,94
14.4364,72
14.4736,87
14.5107,92
14.5479,91
14.5850,93
14.6222,89
14.6593,77
14.6965,82
14.7336,91
14.7708,68
14.8079,87
14.8451,88
14.8822,70
14.9194,87
14.9565,79
14.9937,72
15.0308,59
15.0680,71
15.1051,80
15.1423,80
15.1794,90
15.2166,71
15.2537,78
15.2909,78
15.3280,86
15.3652,71
15.4023,76
15.4395,72
15.4766,91
15.5138,70
15.5509,77
15.5881,92
15.6252,80
15.6624,82
15.6995,80
15.7367,86
15.7738,97
15.8110,68
15.8482,82
15.8853,72
15.9225,72
15.9596,80
15.9968,59
16.0339,75
16.0711,86
16.1082,81
16.1454,72
16.1825,77
16.2197,57
16.2568,84
16.2940,82
16.3311,90
16.3683,94
16.4054,76
16.4426,100
16.4797,68
16.5169,72
16.5540,69
16.5912,80
16.6283,75
16.6655,65
16.7026,85
16.7398,77
16.7769,82
16.8141,74
16.8512,69
16.8884,96
16.9255,85
16.9627,75
16.9998,68
17.0370,80
17.0741,80
17.1113,76
17.1484,74
17.1856,83
17.2227,73
17.2599,87
17.2970,85
17.3342,65
17.3713,75
17.4085,83
17.4457,92
17.4828,80
17.5200,82
17.5571,78
17.5943,91
17.6314,72
17.6686,92
17.7057,73
17.7429,70
17.7800,74
17.8172,70
17.8543,78
17.8915,80
17.9286,77
17.9658,78
18.0029,88
18.0401,77
18.0772,89
18.1144,82
18.1515,88
18.1887,67
18.2258,80
18.2630,71
18.3001,93
18.3373,77
18.3744,85
18.4116,82
18.4487,83
18.4859,99
18.5230,79
18.5602,88
18.5973,90
18.6345,67
18.6716,86
18.7088,79
18.7459,84
18.7831,71
18.8202,94
18.8574,84
18.8945,79
18.9317,78
18.9689,98
19.0060,79
19.0432,82
19.0803,68
19.1175,86
19.1546,69
19.1918,80
19.2289,85
19.2661,84
19.3032,91
19.3404,87
19.3775,92
19.4147,86
19.4518,83
19.4890,71
19.5261,75
19.5633,93
19.6004,77
19.6376,79
19.6747,80
19.7119,83
19.7490,84
19.7862,88
19.8233,88
19.8605,84
19.8976,101
19.9348,87
19.9719,88
20.0091,73
20.0462,73
20.0834,91
20.1205,99
20.1577,77
20.1948,86
20.2320,82
20.2691,98
20.3063,96
20.3434,87
20.3806,104
20.4177,100
20.4549,98
20.4921,87
20.5292,88
20.5664,86
20.6035,80
20.6407,94
20.6778,88
20.7150,93
20.7521,88
20.7893,91
20.8264,86
20.8636,75
20.9007,73
20.9379,95
20.9750,101
21.0122,99
21.0493,85
21.0865,95
21.1236,99
21.1608,128
21.1979,146
21.2351,146
21.2722,138
21.3094,147
21.3465,261
21.3837,202
21.4208,157
21.4580,120
21.4951,105
21.5323,102
21.5694,99
21.6066,90
21.6437,103
21.6809,90
21.7180,105
21.7552,71
21.7923,105
21.8295,99
21.8666,95
21.9038,84
21.9409,92
21.9781,97
22.0152,94
22.0524,114
22.0896,109
22.1267,93
22.1639,102
22.2010,79
22.2382,103
22.2753,109
22.3125,97
22.3496,102
22.3868,84
22.4239,98
22.4611,99
22.4982,97
22.5354,103
22.5725,103
22.6097,113
22.6468,106
22.6840,87
22.7211,99
22.7583,114
22.7954,97
22.8326,97
22.8697,83
22.9069,108
22.9440,108
22.9812,85
23.0183,86
23.0555,104
23.0926,85
23.1298,97
23.1669,101
23.2041,103
23.2412,93
23.2784,100
23.3155,87
23.3527,100
23.3898,108
23.4270,96
23.4641,108
23.5013,93
23.5384,94
23.5756,80
23.6128,99
23.6499,91
23.6871,105
23.7242,100
23.7614,105
23.7985,86
23.8357,95
23.8728,99
23.9100,97
23.9471,102
23.9843,103
24.0214,94
24.0586,83
24.0957,99
24.1329,99
24.1700,89
24.2072,99
24.2443,105
24.2815,95
24.3186,111
24.3558,108
24.3929,92
24.4301,108
24.4672,102
24.5044,103
24.5415,95
24.5787,90
24.6158,117
24.6530,64
24.6901,92
24.7273,103
24.7644,93
24.8016,97
24.8387,110
24.8759,109
24.9130,114
24.9502,89
24.9873,97
25.0245,101
25.0616,99
25.0988,96
25.1360,91
25.1731,112
25.2103,86
25.2474,105
25.2846,82
25.3217,108
25.3589,92
25.3960,97
25.4332,96
25.4703,90
25.5075,86
25.5446,95
25.5818,95
25.6189,93
25.6561,104
25.6932,87
25.7304,91
25.7675,92
25.8047,90
25.8418,87
25.8790,92
25.9161,98
25.9533,82
25.9904,103
26.0276,92
26.0647,112
26.1019,91
26.1390,83
26.1762,79
26.2133,95
26.2505,95
26.2876,84
26.3248,93
26.3619,83
26.3991,86
26.4362,110
26.4734,96
26.5105,99
26.5477,89
26.5848,95
26.6220,75
26.6591,102
26.6963,81
26.7335,85
26.7706,92
26.8078,74
26.8449,94
26.8821,105
26.9192,80
26.9564,98
26.9935,88
27.0307,89
27.0678,75
27.1050,91
27.1421,105
27.1793,99
27.2164,132
27.2536,118
27.2907,103
27.3279,83
27.3650,94
27.4022,102
27.4393,91
27.4765,103
27.5136,83
27.5508,90
27.5879,86
27.6251,76
27.6622,69
27.6994,97
27.7365,85
27.7737,96
27.8108,85
27.8480,110
27.8851,62
27.9223,80
27.9594,96
27.9966,87
28.0337,72
28.0709,109
28.1080,70
28.1452,68
28.1823,82
28.2195,78
28.2567,81
28.2938,78
28.3310,78
28.3681,79
28.4053,80
28.4424,91
28.4796,91
28.5167,78
28.5539,87
28.5910,77
28.6282,82
28.6653,71
28.7025,95
28.7396,83
28.7768,76
28.8139,87
28.8511,91
28.8882,70
28.9254,70
28.9625,77
28.9997,85
29.0368,69
29.0740,73
29.1111,62
29.1483,80
29.1854,58
29.2226,71
29.2597,70
29.2969,74
29.3340,78
29.3712,94
29.4083,74
29.4455,77
29.4826,69
29.5198,83
29.5569,62
29.5941,78
29.6312,91
29.6684,75
29.7055,83
29.7427,80
29.7799,86
29.8170,84
29.8542,71
29.8913,75
29.9285,74
29.9656,87
30.0028,72
30.0399,79
30.0771,79
30.1142,72
30.1514,62
30.1885,77
30.2257,79
30.2628,77
30.3000,96
30.3371,105
30.3743,161
30.4114,125
30.4486,113
30.4857,106
30.5229,83
30.5600,79
30.5972,70
30.6343,65
30.6715,78
30.7086,66
30.7458,61
30.7829,68
30.8201,65
30.8572,79
30.8944,68
30.9315,76
30.9687,65
31.0058,66
31.0430,67
31.0801,87
31.1173,60
31.1544,61
31.1916,92
31.2287,73
31.2659,61
31.3030,75
31.3402,63
31.3774,72
31.4145,71
31.4517,58
31.4888,86
31.5260,70
31.5631,69
31.6003,65
31.6374,60
31.6746,65
31.7117,59
31.7489,74
31.7860,55
31.8232,67
31.8603,69
31.8975,69
31.9346,59
31.9718,62
32.0089,61
32.0461,60
32.0832,74
32.1204,63
32.1575,74
32.1947,68
32.2318,82
32.2690,85
32.3061,57
32.3433,64
32.3804,80
32.4176,72
32.4547,85
32.4919,80
32.5290,87
32.5662,80
32.6033,62
32.6405,64
32.6776,77
32.7148,75
32.7519,60
32.7891,57
32.8262,58
32.8634,66
32.9006,55
32.9377,77
32.9749,58
33.0120,55
33.0492,52
33.0863,61
33.1235,70
33.1606,66
33.1978,55
33.2349,71
33.2721,60
33.3092,58
33.3464,77
33.3835,57
33.4207,64
33.4578,56
33.4950,64
33.5321,53
33.5693,55
33.6064,55
33.6436,68
33.6807,50
33.7179,59
33.7550,54
33.7922,47
33.8293,50
33.8665,62
33.9036,73
33.9408,52
33.9779,52
34.0151,57
34.0522,61
34.0894,51
34.1265,60
34.1637,53
34.2008,56
34.2380,63
34.2751,55
34.3123,60
34.3494,61
34.3866,46
34.4238,65
34.4609,56
34.4981,50
34.5352,54
34.5724,54
34.6095,64
34.6467,40
34.6838,63
34.7210,68
34.7581,69
34.7953,84
34.8324,63
34.8696,68
34.9067,59
34.9439,58
34.9810,59
35.0182,50
35.0553,62
35.0925,47
35.1296,49
35.1668,47
35.2039,45
35.2411,44
35.2782,52
35.3154,55
35.3525,57
35.3897,49
35.4268,36
35.4640,56
35.5011,58
35.5383,48
35.5754,54
35.6126,46
35.6497,47
35.6869,51
35.7240,39
35.7612,49
35.7983,43
35.8355,48
35.8726,70
35.9098,46
35.9469,60
35.9841,46
36.0213,56
36.0584,45
36.0956,46
36.1327,54
36.1699,44
36.2070,49
36.2442,49
36.2813,32
36.3185,30
36.3556,36
36.3928,46
36.4299,35
36.4671,47
36.5042,49
36.5414,52
36.5785,48
36.6157,53
36.6528,52
36.6900,47
36.7271,50
36.7643,42
36.8014,46
36.8386,42
36.8757,34
36.9129,42
36.9500,32
36.9872,39
37.0243,43
37.0615,41
37.0986,34
37.1358,45
37.1729,38
37.2101,48
37.2472,34
37.2844,43
37.3215,50
37.3587,48
37.3958,46
37.4330,85
37.4701,57
37.5073,54
37.5445,42
37.5816,55
37.6188,41
37.6559,51
37.6931,43
37.7302,51
37.7674,42
37.8045,47
37.8417,42
37.8788,48
37.9160,44
37.9531,44
37.9903,51
38.0274,42
38.0646,43
38.1017,33
38.1389,37
38.1760,38
38.2132,30
38.2503,40
38.2875,43
38.3246,41
38.3618,33
38.3989,45
38.4361,31
38.4732,31
38.5104,26
38.5475,45
38.5847,51
38.6218,34
38.6590,49
38.6961,49
38.7333,40
38.7704,32
38.8076,57
38.8447,58
38.8819,40
38.9190,41
38.9562,43
38.9933,37
39.0305,39
39.0677,43
39.1048,38
39.1420,41
39.1791,45
39.2163,44
39.2534,39
39.2906,45
39.3277,36
39.3649,37
39.4020,39
39.4392,52
39.4763,51
39.5135,38
39.5506,33
39.5878,39
39.6249,34
39.6621,35
39.6992,32
39.7364,41
39.7735,36
39.8107,47
39.8478,44
39.8850,28
39.9221,33
39.9593,36
39.9964,40
40.0336,31
40.0707,38
40.1079,40
40.1450,37
40.1822,39
40.2193,42
40.2565,40
40.2936,35
40.3308,40
40.3679,29
40.4051,47
40.4422,49
40.4794,35
40.5165,36
40.5537,38
40.5908,26
40.6280,38
40.6652,24
40.7023,35
40.7395,40
40.7766,38
40.8138,42
40.8509,42
40.8881,32
40.9252,31
40.9624,41
40.9995,51
41.0367,42
41.0738,34
41.1110,34
41.1481,30
41.1853,30
41.2224,28
41.2596,42
41.2967,33
41.3339,43
41.3710,41
41.4082,34
41.4453,32
41.4825,44
41.5196,40
41.5568,31
41.5939,35
41.6311,33
41.6682,43
41.7054,47
41.7425,35
41.7797,31
41.8168,39
41.8540,28
41.8911,48
41.9283,32
41.9654,32
42.0026,35
42.0397,28
42.0769,34
42.1140,40
42.1512,41
42.1884,29
42.2255,41
42.2627,39
42.2998,34
42.3370,40
42.3741,28
42.4113,29
42.4484,37
42.4856,35
42.5227,38
42.5599,42
42.5970,37
42.6342,34
42.6713,38
42.7085,35
42.7456,33
42.7828,41
42.8199,39
42.8571,32
42.8942,39
42.9314,44
42.9685,40
43.0057,37
43.0428,43
43.0800,42
43.1171,42
43.1543,42
43.1914,35
43.2286,35
43.2657,34
43.3029,38
43.3400,43
43.3772,28
43.4143,41
43.4515,49
43.4886,65
43.5258,49
43.5629,34
43.6001,40
43.6372,47
43.6744,34
43.7116,33
43.7487,39
43.7859,34
43.8230,40
43.8602,35
43.8973,37
43.9345,39
43.9716,34
44.0088,38
44.0459,40
44.0831,33
44.1202,35
44.1574,30
44.1945,31
44.2317,42
44.2688,44
44.3060,38
44.3431,35
44.3803,35
44.4174,43
44.4546,30
44.4917,34
44.5289,39
44.5660,48
44.6032,36
44.6403,33
44.6775,43
44.7146,32
44.7518,24
44.7889,42
44.8261,37
44.8632,43
44.9004,33
44.9375,27
44.9747,51
45.0118,36
45.0490,35
45.0861,35
45.1233,36
45.1604,44
45.1976,33
45.2347,34
45.2719,24
45.3091,32
45.3462,31
45.3834,36
45.4205,28
45.4577,50
45.4948,42
45.5320,40
45.5691,34
45.6063,28
45.6434,29
45.6806,32
45.7177,30
45.7549,34
45.7920,35
45.8292,36
45.8663,31
45.9035,27
45.9406,36
45.9778,30
46.0149,30
46.0521,22
46.0892,21
46.1264,36
46.1635,41
46.2007,33
46.2378,34
46.2750,35
46.3121,32
46.3493,28
46.3864,31
46.4236,42
46.4607,35
46.4979,40
46.5350,43
46.5722,28
46.6093,26
46.6465,33
46.6836,28
46.7208,31
46.7579,38
46.7951,34
46.8323,23
46.8694,33
46.9066,29
46.9437,36
46.9809,36
47.0180,28
47.0552,24
47.0923,35
47.1295,43
47.1666,29
47.2038,34
47.2409,29
47.2781,28
47.3152,39
47.3524,28
47.3895,34
47.4267,34
47.4638,33
47.5010,32
47.5381,32
47.5753,42
47.6124,43
47.6496,30
47.6867,29
47.7239,35
47.7610,39
47.7982,36
47.8353,29
47.8725,30
47.9096,32
47.9468,29
47.9839,28
48.0211,32
48.0582,29
48.0954,29
48.1325,26
48.1697,30
48.2068,35
48.2440,29
48.2811,28
48.3183,27
48.3555,27
48.3926,40
48.4298,33
48.4669,36
48.5041,25
48.5412,28
48.5784,27
48.6155,31
48.6527,34
48.6898,26
48.7270,26
48.7641,33
48.8013,35
48.8384,27
48.8756,27
48.9127,36
48.9499,50
48.9870,48
49.0242,34
49.0613,45
49.0985,40
49.1356,39
49.1728,35
49.2099,29
49.2471,30
49.2842,44
49.3214,24
49.3585,24
49.3957,25
49.4328,17
49.4700,26
49.5071,22
49.5443,34
49.5814,24
49.6186,29
49.6557,30
49.6929,35
49.7300,24
49.7672,22
49.8043,29
49.8415,39
49.8786,28
49.9158,34
49.9530,29
49.9901,27
50.0273,26
50.0644,24
50.1016,39
50.1387,24
50.1759,25
50.2130,37
50.2502,41
50.2873,41
50.3245,28
50.3616,32
50.3988,29
50.4359,39
50.4731,26
50.5102,25
50.5474,29
50.5845,18
50.6217,28
50.6588,35
50.6960,33
50.7331,19
50.7703,28
50.8074,26
50.8446,32
50.8817,27
50.9189,25
50.9560,30
50.9932,27
51.0303,18
51.0675,23
51.1046,30
51.1418,30
51.1789,23
51.2161,30
51.2532,30
51.2904,30
51.3275,26
51.3647,41
51.4018,42
51.4390,24
51.4762,38
51.5133,39
51.5505,28
51.5876,20
51.6248,28
51.6619,35
51.6991,34
51.7362,33
51.7734,28
51.8105,30
51.8477,31
51.8848,32
51.9220,32
51.9591,36
51.9963,27
52.0334,30
52.0706,26
52.1077,34
52.1449,23
52.1820,20
52.2192,27
52.2563,36
52.2935,30
52.3306,37
52.3678,21
52.4049,30
52.4421,30
52.4792,26
52.5164,29
52.5535,30
52.5907,23
52.6278,33
52.6650,21
52.7021,24
52.7393,29
52.7764,40
52.8136,22
52.8507,38
52.8879,20
52.9250,34
52.9622,41
52.9994,29
53.0365,41
53.0737,22
53.1108,23
53.1480,26
53.1851,26
53.2223,31
53.2594,26
53.2966,20
53.3337,20
53.3709,26
53.4080,38
53.4452,32
53.4823,25
53.5195,41
53.5566,23
53.5938,27
53.6309,23
53.6681,38
53.7052,30
53.7424,31
53.7795,23
53.8167,25
53.8538,32
53.8910,27
53.9281,30
53.9653,36
54.0024,35
54.0396,40
54.0767,40
54.1139,34
54.1510,28
54.1882,29
54.2253,34
54.2625,39
54.2996,25
54.3368,30
54.3739,27
54.4111,30
54.4482,24
54.4854,30
54.5225,34
54.5597,21
54.5969,30
54.6340,32
54.6712,33
54.7083,28
54.7455,39
54.7826,20
54.8198,38
54.8569,37
54.8941,29
54.9312,29
54.9684,22
55.0055,25
55.0427,35
55.0798,32
55.1170,20
55.1541,30
55.1913,32
55.2284,36
55.2656,32
55.3027,28
55.3399,22
55.3770,20
55.4142,24
55.4513,28
55.4885,29
55.5256,32
55.5628,29
55.5999,27
55.6371,27
55.6742,38
55.7114,21
55.7485,23
55.7857,29
55.8228,36
55.8600,26
55.8971,24
55.9343,24
55.9714,30
56.0086,35
56.0457,30
56.0829,29
56.1201,28
56.1572,31
56.1944,34
56.2315,39
56.2687,27
56.3058,25
56.3430,39
56.3801,26
56.4173,27
56.4544,30
56.4916,34
56.5287,29
56.5659,14
56.6030,24
56.6402,26
56.6773,18
56.7145,28
56.7516,28
56.7888,27
56.8259,18
56.8631,24
56.9002,26
56.9374,23
56.9745,27
57.0117,27
57.0488,32
57.0860,30
57.1231,22
57.1603,26
57.1974,19
57.2346,25
57.2717,19
57.3089,30
57.3460,14
57.3832,21
57.4203,26
57.4575,23
57.4946,26
57.5318,28
57.5689,24
57.6061,29
57.6433,22
57.6804,25
57.7176,24
57.7547,37
57.7919,28
57.8290,24
57.8662,22
57.9033,26
57.9405,22
57.9776,25
58.0148,39
58.0519,32
58.0891,19
58.1262,25
58.1634,34
58.2005,25
58.2377,25
58.2748,25
58.3120,19
58.3491,27
58.3863,26
58.4234,18
58.4606,31
58.4977,25
58.5349,31
58.5720,23
58.6092,20
58.6463,24
58.6835,36
58.7206,21
58.7578,25
58.7949,35
58.8321,19
58.8692,24
58.9064,26
58.9435,20
58.9807,34
59.0178,19
59.0550,26
59.0921,27
59.1293,30
59.1664,29
59.2036,35
59.2408,22
59.2779,25
59.3151,27
59.3522,36
59.3894,31
59.4265,27
59.4637,34
59.5008,20
59.5380,23
59.5751,27
59.6123,10
59.6494,26
59.6866,31
59.7237,20
59.7609,27
59.7980,23
59.8352,24
59.8723,19
59.9095,25
59.9466,25
59.9838,23
60.0024,24