File: notebooks/data/xrd_data/ML_20220718_43_SJD_4_LaB6-4min.csv
;,2THETA,
5.0000,280
5.0372,259
5.0743,266
5.1115,280
5.1486,247
5.1858,249
5.2229,236
5.2601,248
5.2972,247
5.3344,253
5.3715,263
5.4087,238
5.4458,210
5.4830,223
5.5201,225
5.5573,232
5.5944,199
5.6316,229
5.6687,253
5.7059,203
5.7430,236
5.7802,221
5.8173,187
5.8545,200
5.8916,198
5.9288,210
5.9659,201
6.0031,164
6.0402,173
6.0774,173
6.1145,201
6.1517,156
6.1888,195
6.2260,194
6.2631,189
6.3003,183
6.3374,188
6.3746,172
6.4117,190
6.4489,172
6.4860,177
6.5232,181
6.5604,170
6.5975,160
6.6347,175
6.6718,153
6.7090,157
6.7461,170
6.7833,176
6.8204,159
6.8576,153
6.8947,177
6.9319,149
6.9690,168
7.0062,173
7.0433,149
7.0805,141
7.1176,138
7.1548,144
7.1919,169
7.2291,154
7.2662,165
7.3034,141
7.3405,138
7.3777,143
7.4148,166
7.4520,179
7.4891,143
7.5263,173
7.5634,149
7.6006,166
7.6377,166
7.6749,144
7.7120,185
7.7492,172
7.7863,183
7.8235,186
7.8606,202
7.8978,174
7.9349,186
7.9721,187
8.0092,174
8.0464,173
8.0835,200
8.1207,195
8.1579,173
8.1950,191
8.2322,163
8.2693,208
8.3065,188
8.3436,188
8.3808,225
8.4179,195
8.4551,217
8.4922,204
8.5294,178
8.5665,205
8.6037,189
8.6408,238
8.6780,230
8.7151,203
8.7523,212
8.7894,199
8.8266,232
8.8637,191
8.9009,217
8.9380,196
8.9752,220
9.0123,195
9.0495,221
9.0866,206
9.1238,226
9.1609,227
9.1981,213
9.2352,208
9.2724,241
9.3095,205
9.3467,234
9.3838,230
9.4210,220
9.4581,233
9.4953,235
9.5324,229
9.5696,242
9.6067,235
9.6439,233
9.6811,224
9.7182,237
9.7554,222
9.7925,267
9.8297,250
9.8668,226
9.9040,256
9.9411,251
9.9783,241
10.0154,259
10.0526,243
10.0897,246
10.1269,224
10.1640,264
10.2012,220
10.2383,232
10.2755,250
10.3126,244
10.3498,243
10.3869,211
10.4241,228
10.4612,235
10.4984,242
10.5355,229
10.5727,260
10.6098,241
10.6470,238
10.6841,261
10.7213,255
10.7584,221
10.7956,259
10.8327,256
10.8699,218
10.9070,201
10.9442,235
10.9813,235
11.0185,229
11.0556,233
11.0928,252
11.1299,239
11.1671,247
11.2043,235
11.2414,247
11.2786,274
11.3157,247
11.3529,218
11.3900,251
11.4272,232
11.4643,241
11.5015,223
11.5386,231
11.5758,232
11.6129,227
11.6501,222
11.6872,248
11.7244,240
11.7615,228
11.7987,252
11.8358,211
11.8730,211
11.9101,239
11.9473,247
11.9844,220
12.0216,233
12.0587,211
12.0959,256
12.1330,262
12.1702,239
12.2073,214
12.2445,224
12.2816,210
12.3188,243
12.3559,233
12.3931,192
12.4302,228
12.4674,223
12.5045,212
12.5417,220
12.5788,225
12.6160,209
12.6531,213
12.6903,209
12.7274,210
12.7646,220
12.8018,211
12.8389,207
12.8761,201
12.9132,185
12.9504,200
12.9875,205
13.0247,209
13.0618,215
13.0990,195
13.1361,196
13.1733,190
13.2104,199
13.2476,219
13.2847,221
13.3219,207
13.3590,194
13.3962,212
13.4333,185
13.4705,194
13.5076,205
13.5448,197
13.5819,179
13.6191,190
13.6562,182
13.6934,177
13.7305,173
13.7677,185
13.8048,200
13.8420,226
13.8791,199
13.9163,199
13.9534,171
13.9906,174
14.0277,185
14.0649,187
14.1020,178
14.1392,168
14.1763,169
14.2135,185
14.2506,178
14.2878,188
14.3250,159
14.3621,162
14.3993,205
14.4364,195
14.4736,151
14.5107,174
14.5479,174
14.5850,192
14.6222,174
14.6593,155
14.6965,184
14.7336,199
14.7708,172
14.8079,164
14.8451,173
14.8822,177
14.9194,187
14.9565,163
14.9937,166
15.0308,156
15.0680,163
15.1051,139
15.1423,167
15.1794,168
15.2166,147
15.2537,175
15.2909,154
15.3280,168
15.3652,174
15.4023,150
15.4395,181
15.4766,136
15.5138,182
15.5509,148
15.5881,142
15.6252,186
15.6624,174
15.6995,152
15.7367,121
15.7738,149
15.8110,144
15.8482,153
15.8853,177
15.9225,139
15.9596,166
15.9968,163
16.0339,174
16.0711,168
16.1082,165
16.1454,165
16.1825,158
16.2197,154
16.2568,153
16.2940,179
16.3311,166
16.3683,160
16.4054,156
16.4426,166
16.4797,151
16.5169,168
16.5540,162
16.5912,162
16.6283,167
16.6655,173
16.7026,168
16.7398,166
16.7769,169
16.8141,158
16.8512,140
16.8884,170
16.9255,172
16.9627,173
16.9998,140
17.0370,170
17.0741,149
17.1113,155
17.1484,145
17.1856,162
17.2227,148
17.2599,148
17.2970,170
17.3342,180
17.3713,157
17.4085,171
17.4457,166
17.4828,170
17.5200,178
17.5571,140
17.5943,162
17.6314,196
17.6686,166
17.7057,154
17.7429,183
17.7800,157
17.8172,154
17.8543,152
17.8915,154
17.9286,183
17.9658,154
18.0029,173
18.0401,158
18.0772,183
18.1144,184
18.1515,153
18.1887,155
18.2258,148
18.2630,168
18.3001,157
18.3373,170
18.3744,160
18.4116,168
18.4487,160
18.4859,161
18.5230,159
18.5602,188
18.5973,192
18.6345,171
18.6716,155
18.7088,172
18.7459,153
18.7831,167
18.8202,154
18.8574,147
18.8945,143
18.9317,172
18.9689,189
19.0060,156
19.0432,192
19.0803,174
19.1175,148
19.1546,161
19.1918,187
19.2289,169
19.2661,152
19.3032,182
19.3404,156
19.3775,176
19.4147,164
19.4518,162
19.4890,176
19.5261,156
19.5633,147
19.6004,169
19.6376,194
19.6747,182
19.7119,183
19.7490,156
19.7862,165
19.8233,182
19.8605,171
19.8976,178
19.9348,154
19.9719,180
20.0091,193
20.0462,168
20.0834,187
20.1205,177
20.1577,176
20.1948,182
20.2320,187
20.2691,189
20.3063,198
20.3434,204
20.3806,182
20.4177,163
20.4549,202
20.4921,208
20.5292,178
20.5664,190
20.6035,172
20.6407,193
20.6778,162
20.7150,189
20.7521,192
20.7893,203
20.8264,157
20.8636,211
20.9007,182
20.9379,198
20.9750,214
21.0122,179
21.0493,184
21.0865,194
21.1236,199
21.1608,230
21.1979,293
21.2351,328
21.2722,292
21.3094,334
21.3465,514
21.3837,406
21.4208,350
21.4580,230
21.4951,186
21.5323,173
21.5694,186
21.6066,187
21.6437,196
21.6809,183
21.7180,189
21.7552,186
21.7923,198
21.8295,190
21.8666,185
21.9038,202
21.9409,177
21.9781,193
22.0152,181
22.0524,216
22.0896,159
22.1267,191
22.1639,182
22.2010,203
22.2382,222
22.2753,193
22.3125,184
22.3496,221
22.3868,196
22.4239,221
22.4611,203
22.4982,191
22.5354,206
22.5725,192
22.6097,218
22.6468,206
22.6840,224
22.7211,189
22.7583,194
22.7954,208
22.8326,174
22.8697,223
22.9069,177
22.9440,177
22.9812,191
23.0183,197
23.0555,237
23.0926,176
23.1298,176
23.1669,214
23.2041,195
23.2412,194
23.2784,193
23.3155,219
23.3527,211
23.3898,222
23.4270,208
23.4641,185
23.5013,195
23.5384,171
23.5756,220
23.6128,180
23.6499,226
23.6871,215
23.7242,215
23.7614,218
23.7985,204
23.8357,192
23.8728,182
23.9100,201
23.9471,217
23.9843,209
24.0214,215
24.0586,194
24.0957,213
24.1329,182
24.1700,196
24.2072,199
24.2443,230
24.2815,230
24.3186,231
24.3558,248
24.3929,184
24.4301,202
24.4672,202
24.5044,215
24.5415,192
24.5787,167
24.6158,227
24.6530,187
24.6901,208
24.7273,208
24.7644,209
24.8016,184
24.8387,212
24.8759,213
24.9130,206
24.9502,204
24.9873,188
25.0245,220
25.0616,177
25.0988,205
25.1360,187
25.1731,192
25.2103,176
25.2474,186
25.2846,196
25.3217,192
25.3589,199
25.3960,184
25.4332,194
25.4703,200
25.5075,189
25.5446,187
25.5818,196
25.6189,211
25.6561,233
25.6932,213
25.7304,230
25.7675,193
25.8047,185
25.8418,167
25.8790,217
25.9161,179
25.9533,206
25.9904,201
26.0276,199
26.0647,174
26.1019,160
26.1390,183
26.1762,202
26.2133,192
26.2505,186
26.2876,207
26.3248,182
26.3619,197
26.3991,186
26.4362,193
26.4734,175
26.5105,193
26.5477,189
26.5848,183
26.6220,178
26.6591,199
26.6963,181
26.7335,185
26.7706,191
26.8078,198
26.8449,184
26.8821,178
26.9192,188
26.9564,185
26.9935,162
27.0307,184
27.0678,158
27.1050,177
27.1421,207
27.1793,210
27.2164,244
27.2536,225
27.2907,192
27.3279,181
27.3650,175
27.4022,171
27.4393,187
27.4765,160
27.5136,183
27.5508,183
27.5879,208
27.6251,164
27.6622,173
27.6994,177
27.7365,178
27.7737,175
27.8108,188
27.8480,183
27.8851,186
27.9223,159
27.9594,178
27.9966,169
28.0337,204
28.0709,202
28.1080,162
28.1452,172
28.1823,161
28.2195,186
28.2567,171
28.2938,154
28.3310,170
28.3681,167
28.4053,186
28.4424,162
28.4796,177
28.5167,158
28.5539,159
28.5910,164
28.6282,160
28.6653,162
28.7025,167
28.7396,159
28.7768,177
28.8139,160
28.8511,156
28.8882,176
28.9254,160
28.9625,139
28.9997,158
29.0368,164
29.0740,166
29.1111,165
29.1483,170
29.1854,159
29.2226,162
29.2597,156
29.2969,165
29.3340,154
29.3712,144
29.4083,180
29.4455,157
29.4826,162
29.5198,148
29.5569,157
29.5941,167
29.6312,147
29.6684,155
29.7055,141
29.7427,178
29.7799,148
29.8170,163
29.8542,161
29.8913,144
29.9285,135
29.9656,160
30.0028,134
30.0399,167
30.0771,166
30.1142,170
30.1514,161
30.1885,172
30.2257,182
30.2628,167
30.3000,181
30.3371,190
30.3743,321
30.4114,292
30.4486,225
30.4857,212
30.5229,180
30.5600,161
30.5972,146
30.6343,153
30.6715,190
30.7086,151
30.7458,140
30.7829,138
30.8201,155
30.8572,143
30.8944,136
30.9315,149
30.9687,155
31.0058,145
31.0430,120
31.0801,125
31.1173,140
31.1544,149
31.1916,142
31.2287,157
31.2659,139
31.3030,171
31.3402,133
31.3774,132
31.4145,140
31.4517,149
31.4888,139
31.5260,125
31.5631,160
31.6003,135
31.6374,150
31.6746,146
31.7117,127
31.7489,131
31.7860,138
31.8232,148
31.8603,134
31.8975,145
31.9346,145
31.9718,135
32.0089,136
32.0461,136
32.0832,118
32.1204,122
32.1575,134
32.1947,115
32.2318,159
32.2690,149
32.3061,128
32.3433,136
32.3804,123
32.4176,149
32.4547,163
32.4919,165
32.5290,148
32.5662,150
32.6033,126
32.6405,162
32.6776,128
32.7148,128
32.7519,114
32.7891,122
32.8262,124
32.8634,139
32.9006,119
32.9377,130
32.9749,123
33.0120,102
33.0492,105
33.0863,121
33.1235,138
33.1606,105
33.1978,108
33.2349,152
33.2721,114
33.3092,114
33.3464,122
33.3835,119
33.4207,105
33.4578,120
33.4950,119
33.5321,110
33.5693,124
33.6064,118
33.6436,122
33.6807,118
33.7179,125
33.7550,109
33.7922,128
33.8293,118
33.8665,110
33.9036,122
33.9408,117
33.9779,115
34.0151,115
34.0522,96
34.0894,140
34.1265,108
34.1637,85
34.2008,129
34.2380,122
34.2751,109
34.3123,104
34.3494,115
34.3866,114
34.4238,99
34.4609,114
34.4981,115
34.5352,121
34.5724,116
34.6095,138
34.6467,144
34.6838,131
34.7210,151
34.7581,166
34.7953,146
34.8324,133
34.8696,139
34.9067,118
34.9439,127
34.9810,119
35.0182,107
35.0553,103
35.0925,115
35.1296,80
35.1668,101
35.2039,112
35.2411,105
35.2782,101
35.3154,113
35.3525,101
35.3897,103
35.4268,88
35.4640,97
35.5011,110
35.5383,113
35.5754,107
35.6126,109
35.6497,85
35.6869,93
35.7240,84
35.7612,91
35.7983,102
35.8355,93
35.8726,81
35.9098,78
35.9469,105
35.9841,80
36.0213,113
36.0584,95
36.0956,105
36.1327,92
36.1699,107
36.2070,96
36.2442,97
36.2813,93
36.3185,98
36.3556,80
36.3928,107
36.4299,113
36.4671,99
36.5042,85
36.5414,108
36.5785,91
36.6157,96
36.6528,81
36.6900,71
36.7271,105
36.7643,86
36.8014,85
36.8386,77
36.8757,85
36.9129,90
36.9500,87
36.9872,84
37.0243,102
37.0615,86
37.0986,93
37.1358,105
37.1729,93
37.2101,83
37.2472,96
37.2844,90
37.3215,91
37.3587,92
37.3958,109
37.4330,155
37.4701,107
37.5073,106
37.5445,117
37.5816,107
37.6188,77
37.6559,78
37.6931,87
37.7302,82
37.7674,74
37.8045,104
37.8417,83
37.8788,78
37.9160,78
37.9531,86
37.9903,90
38.0274,84
38.0646,74
38.1017,93
38.1389,82
38.1760,92
38.2132,91
38.2503,71
38.2875,90
38.3246,77
38.3618,96
38.3989,90
38.4361,80
38.4732,69
38.5104,89
38.5475,95
38.5847,86
38.6218,90
38.6590,76
38.6961,73
38.7333,93
38.7704,84
38.8076,73
38.8447,93
38.8819,70
38.9190,95
38.9562,80
38.9933,88
39.0305,91
39.0677,82
39.1048,80
39.1420,79
39.1791,75
39.2163,93
39.2534,89
39.2906,68
39.3277,67
39.3649,80
39.4020,75
39.4392,93
39.4763,76
39.5135,82
39.5506,69
39.5878,72
39.6249,75
39.6621,100
39.6992,82
39.7364,72
39.7735,81
39.8107,76
39.8478,80
39.8850,104
39.9221,68
39.9593,71
39.9964,62
40.0336,77
40.0707,91
40.1079,84
40.1450,71
40.1822,67
40.2193,67
40.2565,87
40.2936,67
40.3308,82
40.3679,80
40.4051,89
40.4422,80
40.4794,71
40.5165,74
40.5537,80
40.5908,80
40.6280,68
40.6652,82
40.7023,69
40.7395,66
40.7766,77
40.8138,50
40.8509,65
40.8881,70
40.9252,76
40.9624,75
40.9995,84
41.0367,83
41.0738,88
41.1110,74
41.1481,78
41.1853,77
41.2224,97
41.2596,71
41.2967,82
41.3339,78
41.3710,66
41.4082,80
41.4453,102
41.4825,57
41.5196,76
41.5568,82
41.5939,74
41.6311,78
41.6682,73
41.7054,78
41.7425,78
41.7797,81
41.8168,78
41.8540,71
41.8911,81
41.9283,61
41.9654,76
42.0026,75
42.0397,86
42.0769,80
42.1140,92
42.1512,86
42.1884,59
42.2255,74
42.2627,72
42.2998,71
42.3370,72
42.3741,75
42.4113,84
42.4484,59
42.4856,80
42.5227,66
42.5599,82
42.5970,73
42.6342,79
42.6713,72
42.7085,84
42.7456,83
42.7828,84
42.8199,66
42.8571,83
42.8942,59
42.9314,72
42.9685,71
43.0057,80
43.0428,84
43.0800,74
43.1171,73
43.1543,94
43.1914,89
43.2286,98
43.2657,103
43.3029,79
43.3400,99
43.3772,80
43.4143,85
43.4515,67
43.4886,118
43.5258,122
43.5629,91
43.6001,119
43.6372,101
43.6744,62
43.7116,77
43.7487,74
43.7859,69
43.8230,82
43.8602,76
43.8973,64
43.9345,77
43.9716,68
44.0088,78
44.0459,84
44.0831,58
44.1202,75
44.1574,62
44.1945,79
44.2317,96
44.2688,80
44.3060,69
44.3431,78
44.3803,72
44.4174,70
44.4546,93
44.4917,72
44.5289,51
44.5660,80
44.6032,79
44.6403,80
44.6775,71
44.7146,85
44.7518,83
44.7889,75
44.8261,71
44.8632,67
44.9004,66
44.9375,79
44.9747,68
45.0118,77
45.0490,76
45.0861,77
45.1233,69
45.1604,70
45.1976,63
45.2347,64
45.2719,70
45.3091,62
45.3462,69
45.3834,55
45.4205,58
45.4577,63
45.4948,75
45.5320,73
45.5691,73
45.6063,60
45.6434,79
45.6806,72
45.7177,70
45.7549,89
45.7920,71
45.8292,69
45.8663,72
45.9035,73
45.9406,73
45.9778,85
46.0149,59
46.0521,77
46.0892,71
46.1264,60
46.1635,66
46.2007,65
46.2378,64
46.2750,71
46.3121,72
46.3493,66
46.3864,78
46.4236,76
46.4607,56
46.4979,67
46.5350,63
46.5722,72
46.6093,70
46.6465,61
46.6836,65
46.7208,51
46.7579,70
46.7951,70
46.8323,56
46.8694,60
46.9066,68
46.9437,63
46.9809,63
47.0180,83
47.0552,70
47.0923,57
47.1295,75
47.1666,62
47.2038,65
47.2409,68
47.2781,57
47.3152,66
47.3524,58
47.3895,59
47.4267,61
47.4638,76
47.5010,52
47.5381,60
47.5753,73
47.6124,54
47.6496,64
47.6867,69
47.7239,69
47.7610,50
47.7982,60
47.8353,55
47.8725,66
47.9096,60
47.9468,73
47.9839,54
48.0211,65
48.0582,70
48.0954,59
48.1325,73
48.1697,59
48.2068,55
48.2440,56
48.2811,69
48.3183,63
48.3555,61
48.3926,58
48.4298,76
48.4669,55
48.5041,68
48.5412,55
48.5784,66
48.6155,56
48.6527,68
48.6898,50
48.7270,74
48.7641,68
48.8013,67
48.8384,78
48.8756,74
48.9127,63
48.9499,118
48.9870,115
49.0242,71
49.0613,80
49.0985,102
49.1356,83
49.1728,57
49.2099,60
49.2471,52
49.2842,62
49.3214,73
49.3585,41
49.3957,52
49.4328,66
49.4700,63
49.5071,61
49.5443,74
49.5814,54
49.6186,62
49.6557,67
49.6929,58
49.7300,67
49.7672,56
49.8043,61
49.8415,65
49.8786,54
49.9158,62
49.9530,63
49.9901,56
50.0273,73
50.0644,65
50.1016,71
50.1387,59
50.1759,62
50.2130,74
50.2502,62
50.2873,57
50.3245,64
50.3616,63
50.3988,67
50.4359,57
50.4731,55
50.5102,45
50.5474,56
50.5845,62
50.6217,57
50.6588,54
50.6960,65
50.7331,40
50.7703,52
50.8074,54
50.8446,47
50.8817,60
50.9189,55
50.9560,64
50.9932,65
51.0303,56
51.0675,58
51.1046,70
51.1418,65
51.1789,66
51.2161,68
51.2532,63
51.2904,49
51.3275,64
51.3647,79
51.4018,70
51.4390,74
51.4762,70
51.5133,59
51.5505,62
51.5876,75
51.6248,59
51.6619,69
51.6991,64
51.7362,65
51.7734,69
51.8105,72
51.8477,80
51.8848,50
51.9220,56
51.9591,46
51.9963,76
52.0334,56
52.0706,61
52.1077,54
52.1449,51
52.1820,56
52.2192,58
52.2563,54
52.2935,76
52.3306,61
52.3678,55
52.4049,62
52.4421,52
52.4792,66
52.5164,52
52.5535,54
52.5907,50
52.6278,40
52.6650,53
52.7021,62
52.7393,61
52.7764,63
52.8136,45
52.8507,71
52.8879,57
52.9250,67
52.9622,51
52.9994,68
53.0365,65
53.0737,49
53.1108,47
53.1480,68
53.1851,59
53.2223,55
53.2594,52
53.2966,46
53.3337,70
53.3709,50
53.4080,55
53.4452,71
53.4823,57
53.5195,62
53.5566,63
53.5938,59
53.6309,57
53.6681,82
53.7052,61
53.7424,64
53.7795,60
53.8167,54
53.8538,50
53.8910,64
53.9281,62
53.9653,81
54.0024,77
54.0396,64
54.0767,63
54.1139,66
54.1510,61
54.1882,59
54.2253,67
54.2625,53
54.2996,55
54.3368,67
54.3739,72
54.4111,63
54.4482,63
54.4854,64
54.5225,62
54.5597,73
54.5969,64
54.6340,64
54.6712,50
54.7083,58
54.7455,69
54.7826,61
54.8198,52
54.8569,52
54.8941,56
54.9312,64
54.9684,58
55.0055,54
55.0427,49
55.0798,56
55.1170,59
55.1541,57
55.1913,49
55.2284,58
55.2656,60
55.3027,64
55.3399,57
55.3770,53
55.4142,52
55.4513,73
55.4885,58
55.5256,50
55.5628,44
55.5999,49
55.6371,52
55.6742,59
55.7114,64
55.7485,56
55.7857,59
55.8228,66
55.8600,56
55.8971,51
55.9343,56
55.9714,60
56.0086,56
56.0457,56
56.0829,67
56.1201,79
56.1572,59
56.1944,61
56.2315,68
56.2687,59
56.3058,60
56.3430,62
56.3801,61
56.4173,84
56.4544,62
56.4916,55
56.5287,69
56.5659,52
56.6030,49
56.6402,67
56.6773,57
56.7145,60
56.7516,60
56.7888,48
56.8259,52
56.8631,44
56.9002,62
56.9374,60
56.9745,42
57.0117,57
57.0488,59
57.0860,56
57.1231,55
57.1603,56
57.1974,67
57.2346,54
57.2717,59
57.3089,54
57.3460,53
57.3832,59
57.4203,53
57.4575,61
57.4946,53
57.5318,44
57.5689,49
57.6061,62
57.6433,50
57.6804,71
57.7176,71
57.7547,50
57.7919,61
57.8290,56
57.8662,56
57.9033,64
57.9405,61
57.9776,42
58.0148,62
58.0519,52
58.0891,59
58.1262,57
58.1634,55
58.2005,44
58.2377,50
58.2748,66
58.3120,50
58.3491,55
58.3863,43
58.4234,67
58.4606,57
58.4977,51
58.5349,53
58.5720,71
58.6092,54
58.6463,49
58.6835,51
58.7206,53
58.7578,52
58.7949,57
58.8321,52
58.8692,52
58.9064,54
58.9435,47
58.9807,47
59.0178,59
59.0550,57
59.0921,54
59.1293,48
59.1664,67
59.2036,61
59.2408,57
59.2779,60
59.3151,51
59.3522,42
59.3894,56
59.4265,69
59.4637,43
59.5008,50
59.5380,49
59.5751,52
59.6123,67
59.6494,64
59.6866,58
59.7237,57
59.7609,51
59.7980,54
59.8352,71
59.8723,62
59.9095,58
59.9466,71
59.9838,46
60.0024,44