File: notebooks/data/xrd_data/ML_20220721_17_SJD_4_LaB6-4min.uxd
; (content of file Y:\Sam\Apurva-07-20-2022\puck1\ML_20220721_17_SJD_0_LaB6-4min.raw)
_FILEVERSION = 3
_SAMPLE = ML_20220721_17_SJD_0_LaB6-4min
_+SAMPLE =
_SITE = USA
_USER = Administrator
_GONIOMETER_CODE = 20
; Goniometer : D8 theta/2theta, stage : Unknown
_ATTACHMENTS_CODE = 0
_GONIOMETER_RADIUS = 200.5
_FIXED_DIVSLIT = 0.6
_FIXED_SAMPLESLIT = 0
_SOLLER_SLITS = 2
_FIXED_DETSLIT = 9.55
_MONOCHROMATOR = 0
; Incident beam monochromator : None
_SOLLER_SLITS_2 = N
_THIN_FILM = N
_BETA_FILTER = Y
_FIXED_ANTISLIT = 5.89
_ANALYZER_CODE = 0
; Received beam analyzer : None
_DATEMEASURED = "25-Jul-2022 15:08:46"
_WL_UNIT = A
_WL1 = 1.5406
_WL2 = 1.54439
_WL3 = 1.39222
_WLRATIO = 0.5
_ANODE = Cu
_V4_INF_CREATOR = XRDWizard
_V4_INF_CREATOR_VERSION = V2.9.0.22
_V4_INF_WIZARD_VERSION = V2.9.0.22
_V4_INF_WIZARD_ADDINS = V2.9.0.22
_V4_INF_WIZARD_DOCTYPE = XRD
_V4_INF_OSUSER = McQueenLab
_V4_INF_USER = Administrator
_V4_INF_SITE = USA
_V4_INF_SAMPLEID = ML_20220721_17_SJD_0_LaB6-4min

; Data for range 1
_DRIVE = COUPLED
_STEPTIME = 11.28
_STEPSIZE = 0.0185756
_STEPMODE = C
_START = 5
_THETA = 2.5
_2THETA = 5
_KHI = 0
_PHI = 0
_X = 0
_Y = 0
_Z = 0
_DETECTOR = 5
; Detector type : Unknown
_DETECTORSLIT = unkn
_AUX1 = 0
_AUX2 = 0
_AUX3 = 0
_TIMESTARTED = 15
_TEMP_RATE = -1
_TEMP_DELAY = -1
_KV = 40
_MA = 40
_RANGE_WL = 1.5406
_3DPLANE = 0
_V4_ADDITIONALDETECTOR = 257
_V4_PSD2THETA = 3.3673
_V4_PSDCHANNEL1 = 0
_V4_PSDAPERTURE = 12.68
_V4_PSDTYPE = 5
_V4_PSDFIXED = 0
_V4_COUNTERS_MASK = 4096
_V4_DRIVES_MASK = 0
_V4_ENCODERS_MASK = 0
_2THETACOUNTS = 1
; 2THETA  PSD
   5.0000        284
   5.0372        250
   5.0743        242
   5.1115        251
   5.1486        277
   5.1858        263
   5.2229        243
   5.2601        250
   5.2972        261
   5.3344        233
   5.3715        226
   5.4087        254
   5.4458        211
   5.4830        217
   5.5201        244
   5.5573        216
   5.5944        219
   5.6316        207
   5.6687        228
   5.7059        215
   5.7430        225
   5.7802        226
   5.8173        213
   5.8545        196
   5.8916        185
   5.9288        199
   5.9659        224
   6.0031        219
   6.0402        166
   6.0774        215
   6.1145        182
   6.1517        201
   6.1888        175
   6.2260        191
   6.2631        188
   6.3003        203
   6.3374        208
   6.3746        187
   6.4117        193
   6.4489        155
   6.4860        196
   6.5232        166
   6.5604        172
   6.5975        186
   6.6347        189
   6.6718        171
   6.7090        185
   6.7461        178
   6.7833        192
   6.8204        146
   6.8576        155
   6.8947        163
   6.9319        168
   6.9690        166
   7.0062        168
   7.0433        156
   7.0805        164
   7.1176        151
   7.1548        166
   7.1919        170
   7.2291        173
   7.2662        153
   7.3034        159
   7.3405        146
   7.3777        174
   7.4148        170
   7.4520        168
   7.4891        144
   7.5263        148
   7.5634        161
   7.6006        178
   7.6377        178
   7.6749        199
   7.7120        167
   7.7492        192
   7.7863        182
   7.8235        193
   7.8606        184
   7.8978        171
   7.9349        177
   7.9721        179
   8.0092        186
   8.0464        219
   8.0835        212
   8.1207        185
   8.1579        197
   8.1950        176
   8.2322        197
   8.2693        204
   8.3065        212
   8.3436        185
   8.3808        194
   8.4179        203
   8.4551        189
   8.4922        188
   8.5294        174
   8.5665        204
   8.6037        215
   8.6408        224
   8.6780        176
   8.7151        194
   8.7523        181
   8.7894        215
   8.8266        217
   8.8637        187
   8.9009        215
   8.9380        201
   8.9752        191
   9.0123        227
   9.0495        203
   9.0866        208
   9.1238        220
   9.1609        214
   9.1981        221
   9.2352        215
   9.2724        226
   9.3095        230
   9.3467        234
   9.3838        224
   9.4210        243
   9.4581        206
   9.4953        226
   9.5324        192
   9.5696        210
   9.6067        230
   9.6439        230
   9.6811        236
   9.7182        219
   9.7554        226
   9.7925        222
   9.8297        218
   9.8668        223
   9.9040        226
   9.9411        258
   9.9783        238
  10.0154        247
  10.0526        255
  10.0897        247
  10.1269        251
  10.1640        270
  10.2012        233
  10.2383        237
  10.2755        234
  10.3126        231
  10.3498        259
  10.3869        232
  10.4241        285
  10.4612        233
  10.4984        257
  10.5355        247
  10.5727        260
  10.6098        242
  10.6470        244
  10.6841        274
  10.7213        240
  10.7584        247
  10.7956        243
  10.8327        266
  10.8699        230
  10.9070        251
  10.9442        236
  10.9813        225
  11.0185        255
  11.0556        242
  11.0928        229
  11.1299        238
  11.1671        237
  11.2043        234
  11.2414        243
  11.2786        265
  11.3157        221
  11.3529        245
  11.3900        255
  11.4272        234
  11.4643        227
  11.5015        230
  11.5386        241
  11.5758        234
  11.6129        250
  11.6501        238
  11.6872        217
  11.7244        220
  11.7615        250
  11.7987        231
  11.8358        246
  11.8730        208
  11.9101        215
  11.9473        246
  11.9844        221
  12.0216        231
  12.0587        212
  12.0959        217
  12.1330        241
  12.1702        219
  12.2073        221
  12.2445        213
  12.2816        212
  12.3188        201
  12.3559        221
  12.3931        198
  12.4302        227
  12.4674        246
  12.5045        217
  12.5417        244
  12.5788        220
  12.6160        184
  12.6531        215
  12.6903        218
  12.7274        211
  12.7646        227
  12.8018        212
  12.8389        221
  12.8761        211
  12.9132        199
  12.9504        199
  12.9875        195
  13.0247        186
  13.0618        214
  13.0990        204
  13.1361        209
  13.1733        199
  13.2104        196
  13.2476        210
  13.2847        198
  13.3219        189
  13.3590        207
  13.3962        204
  13.4333        210
  13.4705        209
  13.5076        241
  13.5448        194
  13.5819        188
  13.6191        188
  13.6562        207
  13.6934        159
  13.7305        169
  13.7677        198
  13.8048        189
  13.8420        193
  13.8791        200
  13.9163        192
  13.9534        164
  13.9906        198
  14.0277        166
  14.0649        186
  14.1020        183
  14.1392        181
  14.1763        164
  14.2135        173
  14.2506        194
  14.2878        205
  14.3250        189
  14.3621        177
  14.3993        173
  14.4364        176
  14.4736        163
  14.5107        162
  14.5479        175
  14.5850        154
  14.6222        182
  14.6593        175
  14.6965        176
  14.7336        199
  14.7708        169
  14.8079        152
  14.8451        176
  14.8822        154
  14.9194        171
  14.9565        178
  14.9937        185
  15.0308        174
  15.0680        152
  15.1051        144
  15.1423        169
  15.1794        155
  15.2166        164
  15.2537        151
  15.2909        174
  15.3280        156
  15.3652        169
  15.4023        148
  15.4395        163
  15.4766        181
  15.5138        188
  15.5509        173
  15.5881        180
  15.6252        159
  15.6624        189
  15.6995        160
  15.7367        171
  15.7738        164
  15.8110        159
  15.8482        173
  15.8853        166
  15.9225        164
  15.9596        164
  15.9968        176
  16.0339        172
  16.0711        136
  16.1082        160
  16.1454        146
  16.1825        150
  16.2197        165
  16.2568        183
  16.2940        187
  16.3311        165
  16.3683        170
  16.4054        175
  16.4426        169
  16.4797        156
  16.5169        148
  16.5540        183
  16.5912        173
  16.6283        153
  16.6655        147
  16.7026        168
  16.7398        179
  16.7769        155
  16.8141        152
  16.8512        164
  16.8884        147
  16.9255        140
  16.9627        135
  16.9998        174
  17.0370        186
  17.0741        151
  17.1113        170
  17.1484        174
  17.1856        179
  17.2227        145
  17.2599        173
  17.2970        148
  17.3342        157
  17.3713        169
  17.4085        162
  17.4457        150
  17.4828        167
  17.5200        162
  17.5571        167
  17.5943        177
  17.6314        182
  17.6686        191
  17.7057        159
  17.7429        153
  17.7800        175
  17.8172        173
  17.8543        156
  17.8915        183
  17.9286        148
  17.9658        167
  18.0029        176
  18.0401        153
  18.0772        169
  18.1144        154
  18.1515        174
  18.1887        153
  18.2258        170
  18.2630        173
  18.3001        191
  18.3373        205
  18.3744        162
  18.4116        168
  18.4487        139
  18.4859        170
  18.5230        188
  18.5602        178
  18.5973        153
  18.6345        172
  18.6716        171
  18.7088        163
  18.7459        189
  18.7831        151
  18.8202        183
  18.8574        161
  18.8945        178
  18.9317        192
  18.9689        192
  19.0060        177
  19.0432        148
  19.0803        183
  19.1175        154
  19.1546        174
  19.1918        161
  19.2289        186
  19.2661        167
  19.3032        173
  19.3404        170
  19.3775        176
  19.4147        180
  19.4518        172
  19.4890        172
  19.5261        172
  19.5633        168
  19.6004        180
  19.6376        149
  19.6747        188
  19.7119        180
  19.7490        193
  19.7862        197
  19.8233        172
  19.8605        163
  19.8976        199
  19.9348        179
  19.9719        173
  20.0091        170
  20.0462        172
  20.0834        195
  20.1205        165
  20.1577        188
  20.1948        186
  20.2320        164
  20.2691        171
  20.3063        173
  20.3434        173
  20.3806        179
  20.4177        183
  20.4549        199
  20.4921        187
  20.5292        170
  20.5664        182
  20.6035        198
  20.6407        215
  20.6778        182
  20.7150        172
  20.7521        188
  20.7893        185
  20.8264        202
  20.8636        201
  20.9007        194
  20.9379        203
  20.9750        210
  21.0122        215
  21.0493        176
  21.0865        204
  21.1236        206
  21.1608        257
  21.1979        288
  21.2351        313
  21.2722        296
  21.3094        335
  21.3465        508
  21.3837        397
  21.4208        330
  21.4580        233
  21.4951        208
  21.5323        205
  21.5694        198
  21.6066        224
  21.6437        182
  21.6809        184
  21.7180        192
  21.7552        182
  21.7923        178
  21.8295        201
  21.8666        214
  21.9038        198
  21.9409        187
  21.9781        197
  22.0152        205
  22.0524        196
  22.0896        201
  22.1267        212
  22.1639        191
  22.2010        199
  22.2382        204
  22.2753        213
  22.3125        212
  22.3496        197
  22.3868        198
  22.4239        192
  22.4611        205
  22.4982        202
  22.5354        196
  22.5725        206
  22.6097        199
  22.6468        190
  22.6840        209
  22.7211        190
  22.7583        199
  22.7954        184
  22.8326        187
  22.8697        209
  22.9069        190
  22.9440        219
  22.9812        200
  23.0183        231
  23.0555        191
  23.0926        190
  23.1298        200
  23.1669        172
  23.2041        215
  23.2412        199
  23.2784        181
  23.3155        198
  23.3527        202
  23.3898        206
  23.4270        207
  23.4641        196
  23.5013        208
  23.5384        193
  23.5756        228
  23.6128        211
  23.6499        198
  23.6871        186
  23.7242        211
  23.7614        195
  23.7985        203
  23.8357        192
  23.8728        241
  23.9100        197
  23.9471        195
  23.9843        217
  24.0214        222
  24.0586        198
  24.0957        191
  24.1329        204
  24.1700        208
  24.2072        202
  24.2443        208
  24.2815        238
  24.3186        252
  24.3558        228
  24.3929        228
  24.4301        199
  24.4672        211
  24.5044        203
  24.5415        220
  24.5787        186
  24.6158        197
  24.6530        231
  24.6901        198
  24.7273        193
  24.7644        215
  24.8016        207
  24.8387        187
  24.8759        213
  24.9130        195
  24.9502        218
  24.9873        173
  25.0245        219
  25.0616        203
  25.0988        210
  25.1360        200
  25.1731        203
  25.2103        208
  25.2474        198
  25.2846        206
  25.3217        187
  25.3589        197
  25.3960        197
  25.4332        188
  25.4703        195
  25.5075        202
  25.5446        204
  25.5818        203
  25.6189        186
  25.6561        194
  25.6932        205
  25.7304        172
  25.7675        207
  25.8047        204
  25.8418        208
  25.8790        210
  25.9161        204
  25.9533        183
  25.9904        204
  26.0276        190
  26.0647        199
  26.1019        189
  26.1390        205
  26.1762        210
  26.2133        160
  26.2505        192
  26.2876        207
  26.3248        208
  26.3619        212
  26.3991        184
  26.4362        179
  26.4734        168
  26.5105        171
  26.5477        167
  26.5848        183
  26.6220        196
  26.6591        198
  26.6963        189
  26.7335        198
  26.7706        178
  26.8078        169
  26.8449        206
  26.8821        204
  26.9192        193
  26.9564        172
  26.9935        174
  27.0307        182
  27.0678        161
  27.1050        180
  27.1421        183
  27.1793        233
  27.2164        257
  27.2536        202
  27.2907        234
  27.3279        213
  27.3650        186
  27.4022        206
  27.4393        158
  27.4765        194
  27.5136        172
  27.5508        200
  27.5879        180
  27.6251        205
  27.6622        180
  27.6994        188
  27.7365        180
  27.7737        167
  27.8108        187
  27.8480        168
  27.8851        171
  27.9223        180
  27.9594        185
  27.9966        165
  28.0337        182
  28.0709        172
  28.1080        184
  28.1452        206
  28.1823        165
  28.2195        170
  28.2567        156
  28.2938        181
  28.3310        171
  28.3681        174
  28.4053        172
  28.4424        155
  28.4796        160
  28.5167        180
  28.5539        179
  28.5910        167
  28.6282        165
  28.6653        180
  28.7025        171
  28.7396        160
  28.7768        164
  28.8139        163
  28.8511        171
  28.8882        164
  28.9254        165
  28.9625        175
  28.9997        173
  29.0368        151
  29.0740        169
  29.1111        152
  29.1483        197
  29.1854        161
  29.2226        161
  29.2597        157
  29.2969        192
  29.3340        180
  29.3712        181
  29.4083        143
  29.4455        150
  29.4826        164
  29.5198        155
  29.5569        149
  29.5941        169
  29.6312        153
  29.6684        159
  29.7055        173
  29.7427        174
  29.7799        152
  29.8170        159
  29.8542        159
  29.8913        148
  29.9285        146
  29.9656        160
  30.0028        168
  30.0399        142
  30.0771        133
  30.1142        160
  30.1514        148
  30.1885        162
  30.2257        164
  30.2628        176
  30.3000        198
  30.3371        213
  30.3743        312
  30.4114        264
  30.4486        269
  30.4857        211
  30.5229        159
  30.5600        168
  30.5972        156
  30.6343        181
  30.6715        157
  30.7086        179
  30.7458        182
  30.7829        148
  30.8201        153
  30.8572        163
  30.8944        155
  30.9315        141
  30.9687        140
  31.0058        145
  31.0430        131
  31.0801        141
  31.1173        148
  31.1544        135
  31.1916        144
  31.2287        139
  31.2659        127
  31.3030        166
  31.3402        155
  31.3774        146
  31.4145        148
  31.4517        147
  31.4888        163
  31.5260        133
  31.5631        131
  31.6003        139
  31.6374        135
  31.6746        136
  31.7117        125
  31.7489        143
  31.7860        133
  31.8232        131
  31.8603        112
  31.8975        123
  31.9346        142
  31.9718        133
  32.0089        130
  32.0461        144
  32.0832        121
  32.1204        140
  32.1575        141
  32.1947        121
  32.2318        143
  32.2690        131
  32.3061        126
  32.3433        138
  32.3804        111
  32.4176        149
  32.4547        139
  32.4919        163
  32.5290        140
  32.5662        131
  32.6033        123
  32.6405        129
  32.6776        143
  32.7148        130
  32.7519        113
  32.7891        111
  32.8262        111
  32.8634        123
  32.9006        132
  32.9377        143
  32.9749        136
  33.0120        125
  33.0492        116
  33.0863        123
  33.1235        129
  33.1606        116
  33.1978        140
  33.2349        101
  33.2721        121
  33.3092        129
  33.3464        122
  33.3835        108
  33.4207        137
  33.4578        111
  33.4950        125
  33.5321        137
  33.5693        101
  33.6064        121
  33.6436        120
  33.6807        110
  33.7179        102
  33.7550        122
  33.7922        123
  33.8293        128
  33.8665        135
  33.9036        129
  33.9408        108
  33.9779        135
  34.0151        116
  34.0522        116
  34.0894        114
  34.1265        107
  34.1637        131
  34.2008        123
  34.2380        118
  34.2751        115
  34.3123        119
  34.3494        113
  34.3866        120
  34.4238        110
  34.4609        144
  34.4981        129
  34.5352        109
  34.5724        125
  34.6095        127
  34.6467        152
  34.6838        155
  34.7210        143
  34.7581        166
  34.7953        154
  34.8324        156
  34.8696        124
  34.9067        144
  34.9439        118
  34.9810        115
  35.0182        114
  35.0553        110
  35.0925        113
  35.1296        111
  35.1668        108
  35.2039        105
  35.2411         95
  35.2782        100
  35.3154        107
  35.3525        112
  35.3897        129
  35.4268        109
  35.4640         94
  35.5011        100
  35.5383        116
  35.5754        106
  35.6126        101
  35.6497        117
  35.6869         98
  35.7240        110
  35.7612         95
  35.7983         91
  35.8355        100
  35.8726        118
  35.9098        106
  35.9469        101
  35.9841         96
  36.0213         98
  36.0584         99
  36.0956        109
  36.1327        118
  36.1699         99
  36.2070         97
  36.2442        103
  36.2813         74
  36.3185        102
  36.3556        101
  36.3928        106
  36.4299        108
  36.4671        105
  36.5042         97
  36.5414         86
  36.5785         93
  36.6157         81
  36.6528         85
  36.6900         90
  36.7271         86
  36.7643         88
  36.8014         77
  36.8386         95
  36.8757         86
  36.9129         88
  36.9500         83
  36.9872         81
  37.0243        106
  37.0615         79
  37.0986         85
  37.1358         99
  37.1729         90
  37.2101        100
  37.2472         93
  37.2844         99
  37.3215         97
  37.3587         96
  37.3958        108
  37.4330        126
  37.4701        114
  37.5073        106
  37.5445        141
  37.5816        116
  37.6188         96
  37.6559         88
  37.6931        102
  37.7302         84
  37.7674         89
  37.8045        100
  37.8417         88
  37.8788         76
  37.9160         73
  37.9531         81
  37.9903         90
  38.0274         95
  38.0646         91
  38.1017         85
  38.1389         80
  38.1760         82
  38.2132         73
  38.2503         76
  38.2875         61
  38.3246         93
  38.3618         85
  38.3989         93
  38.4361         73
  38.4732        113
  38.5104         70
  38.5475         91
  38.5847        104
  38.6218         94
  38.6590         92
  38.6961         91
  38.7333         89
  38.7704         88
  38.8076         82
  38.8447         84
  38.8819         96
  38.9190         88
  38.9562         76
  38.9933         88
  39.0305         89
  39.0677         84
  39.1048         76
  39.1420         78
  39.1791         69
  39.2163         91
  39.2534         87
  39.2906         95
  39.3277         78
  39.3649         73
  39.4020         67
  39.4392         75
  39.4763         84
  39.5135         75
  39.5506         88
  39.5878         84
  39.6249         85
  39.6621         68
  39.6992         83
  39.7364         93
  39.7735         84
  39.8107         85
  39.8478         79
  39.8850         77
  39.9221         71
  39.9593         89
  39.9964         88
  40.0336         76
  40.0707         76
  40.1079         68
  40.1450         79
  40.1822         88
  40.2193         84
  40.2565         71
  40.2936         88
  40.3308         87
  40.3679         66
  40.4051         64
  40.4422         59
  40.4794         74
  40.5165         78
  40.5537         72
  40.5908         82
  40.6280         87
  40.6652         81
  40.7023         82
  40.7395         77
  40.7766         85
  40.8138         76
  40.8509         98
  40.8881         86
  40.9252         81
  40.9624         77
  40.9995         77
  41.0367         92
  41.0738         76
  41.1110         80
  41.1481         72
  41.1853         79
  41.2224         71
  41.2596         86
  41.2967         72
  41.3339         73
  41.3710         79
  41.4082         74
  41.4453         81
  41.4825         67
  41.5196         74
  41.5568         83
  41.5939         63
  41.6311         77
  41.6682         81
  41.7054         78
  41.7425         91
  41.7797         97
  41.8168         63
  41.8540         80
  41.8911         67
  41.9283         73
  41.9654         73
  42.0026         66
  42.0397         87
  42.0769         73
  42.1140         86
  42.1512         96
  42.1884         82
  42.2255         73
  42.2627         70
  42.2998         79
  42.3370         80
  42.3741         70
  42.4113         79
  42.4484         73
  42.4856         67
  42.5227         73
  42.5599         92
  42.5970         73
  42.6342         67
  42.6713         75
  42.7085         90
  42.7456         74
  42.7828         74
  42.8199         68
  42.8571         79
  42.8942         74
  42.9314         89
  42.9685         66
  43.0057         84
  43.0428         63
  43.0800         81
  43.1171         88
  43.1543         63
  43.1914         75
  43.2286         99
  43.2657        109
  43.3029         78
  43.3400         88
  43.3772         88
  43.4143         69
  43.4515         91
  43.4886        124
  43.5258        120
  43.5629         81
  43.6001        100
  43.6372         99
  43.6744         92
  43.7116         80
  43.7487         83
  43.7859         82
  43.8230         75
  43.8602         76
  43.8973         79
  43.9345         84
  43.9716         74
  44.0088         83
  44.0459         71
  44.0831         81
  44.1202         74
  44.1574         72
  44.1945         78
  44.2317         72
  44.2688         70
  44.3060         84
  44.3431         72
  44.3803         87
  44.4174         96
  44.4546         72
  44.4917         82
  44.5289         90
  44.5660         73
  44.6032         77
  44.6403         77
  44.6775         83
  44.7146         74
  44.7518         83
  44.7889         81
  44.8261         82
  44.8632         89
  44.9004         71
  44.9375         72
  44.9747         84
  45.0118         74
  45.0490         67
  45.0861         58
  45.1233         65
  45.1604         76
  45.1976         70
  45.2347         72
  45.2719         67
  45.3091         79
  45.3462         64
  45.3834         71
  45.4205         63
  45.4577         67
  45.4948         72
  45.5320         60
  45.5691         66
  45.6063         79
  45.6434         62
  45.6806         74
  45.7177         55
  45.7549         70
  45.7920         69
  45.8292         60
  45.8663         58
  45.9035         80
  45.9406         75
  45.9778         63
  46.0149         65
  46.0521         65
  46.0892         74
  46.1264         58
  46.1635         68
  46.2007         66
  46.2378         66
  46.2750         71
  46.3121         62
  46.3493         68
  46.3864         74
  46.4236         53
  46.4607         68
  46.4979         60
  46.5350         60
  46.5722         67
  46.6093         72
  46.6465         59
  46.6836         54
  46.7208         53
  46.7579         75
  46.7951         68
  46.8323         61
  46.8694         66
  46.9066         71
  46.9437         70
  46.9809         48
  47.0180         86
  47.0552         63
  47.0923         56
  47.1295         69
  47.1666         60
  47.2038         78
  47.2409         56
  47.2781         58
  47.3152         76
  47.3524         60
  47.3895         65
  47.4267         63
  47.4638         63
  47.5010         59
  47.5381         51
  47.5753         64
  47.6124         64
  47.6496         66
  47.6867         60
  47.7239         79
  47.7610         64
  47.7982         74
  47.8353         68
  47.8725         65
  47.9096         55
  47.9468         63
  47.9839         68
  48.0211         61
  48.0582         54
  48.0954         49
  48.1325         62
  48.1697         51
  48.2068         70
  48.2440         69
  48.2811         57
  48.3183         67
  48.3555         43
  48.3926         72
  48.4298         67
  48.4669         61
  48.5041         57
  48.5412         74
  48.5784         59
  48.6155         66
  48.6527         79
  48.6898         55
  48.7270         69
  48.7641         67
  48.8013         69
  48.8384         67
  48.8756         87
  48.9127         96
  48.9499        125
  48.9870        121
  49.0242         88
  49.0613         88
  49.0985         85
  49.1356         74
  49.1728         74
  49.2099         68
  49.2471         73
  49.2842         71
  49.3214         62
  49.3585         58
  49.3957         62
  49.4328         56
  49.4700         66
  49.5071         60
  49.5443         71
  49.5814         73
  49.6186         60
  49.6557         44
  49.6929         62
  49.7300         59
  49.7672         67
  49.8043         68
  49.8415         55
  49.8786         43
  49.9158         52
  49.9530         63
  49.9901         51
  50.0273         57
  50.0644         56
  50.1016         70
  50.1387         45
  50.1759         74
  50.2130         67
  50.2502         67
  50.2873         58
  50.3245         57
  50.3616         65
  50.3988         80
  50.4359         54
  50.4731         74
  50.5102         52
  50.5474         53
  50.5845         63
  50.6217         64
  50.6588         67
  50.6960         52
  50.7331         83
  50.7703         58
  50.8074         63
  50.8446         57
  50.8817         57
  50.9189         54
  50.9560         66
  50.9932         66
  51.0303         55
  51.0675         65
  51.1046         64
  51.1418         57
  51.1789         65
  51.2161         57
  51.2532         58
  51.2904         72
  51.3275         58
  51.3647         66
  51.4018         56
  51.4390         72
  51.4762         57
  51.5133         80
  51.5505         52
  51.5876         67
  51.6248         62
  51.6619         69
  51.6991         67
  51.7362         54
  51.7734         71
  51.8105         63
  51.8477         76
  51.8848         60
  51.9220         72
  51.9591         61
  51.9963         61
  52.0334         56
  52.0706         57
  52.1077         67
  52.1449         56
  52.1820         59
  52.2192         53
  52.2563         60
  52.2935         59
  52.3306         63
  52.3678         74
  52.4049         63
  52.4421         44
  52.4792         62
  52.5164         45
  52.5535         60
  52.5907         61
  52.6278         72
  52.6650         56
  52.7021         61
  52.7393         50
  52.7764         67
  52.8136         63
  52.8507         69
  52.8879         74
  52.9250         67
  52.9622         42
  52.9994         71
  53.0365         60
  53.0737         52
  53.1108         59
  53.1480         49
  53.1851         65
  53.2223         65
  53.2594         63
  53.2966         60
  53.3337         60
  53.3709         40
  53.4080         66
  53.4452         66
  53.4823         58
  53.5195         66
  53.5566         49
  53.5938         57
  53.6309         66
  53.6681         53
  53.7052         61
  53.7424         44
  53.7795         53
  53.8167         48
  53.8538         63
  53.8910         66
  53.9281         46
  53.9653         83
  54.0024         87
  54.0396         63
  54.0767         59
  54.1139         74
  54.1510         65
  54.1882         60
  54.2253         59
  54.2625         58
  54.2996         48
  54.3368         57
  54.3739         51
  54.4111         53
  54.4482         55
  54.4854         46
  54.5225         49
  54.5597         62
  54.5969         60
  54.6340         59
  54.6712         40
  54.7083         52
  54.7455         60
  54.7826         57
  54.8198         57
  54.8569         67
  54.8941         53
  54.9312         68
  54.9684         55
  55.0055         54
  55.0427         56
  55.0798         40
  55.1170         50
  55.1541         55
  55.1913         53
  55.2284         63
  55.2656         48
  55.3027         63
  55.3399         58
  55.3770         62
  55.4142         62
  55.4513         62
  55.4885         62
  55.5256         56
  55.5628         56
  55.5999         59
  55.6371         45
  55.6742         54
  55.7114         50
  55.7485         50
  55.7857         51
  55.8228         65
  55.8600         57
  55.8971         70
  55.9343         62
  55.9714         52
  56.0086         64
  56.0457         53
  56.0829         51
  56.1201         55
  56.1572         68
  56.1944         84
  56.2315         55
  56.2687         50
  56.3058         66
  56.3430         60
  56.3801         64
  56.4173         65
  56.4544         74
  56.4916         72
  56.5287         75
  56.5659         60
  56.6030         60
  56.6402         55
  56.6773         60
  56.7145         52
  56.7516         57
  56.7888         61
  56.8259         49
  56.8631         61
  56.9002         58
  56.9374         45
  56.9745         60
  57.0117         59
  57.0488         45
  57.0860         56
  57.1231         44
  57.1603         54
  57.1974         56
  57.2346         61
  57.2717         64
  57.3089         60
  57.3460         51
  57.3832         44
  57.4203         52
  57.4575         64
  57.4946         54
  57.5318         38
  57.5689         56
  57.6061         65
  57.6433         46
  57.6804         56
  57.7176         69
  57.7547         51
  57.7919         65
  57.8290         60
  57.8662         58
  57.9033         63
  57.9405         63
  57.9776         58
  58.0148         62
  58.0519         67
  58.0891         46
  58.1262         64
  58.1634         57
  58.2005         57
  58.2377         46
  58.2748         72
  58.3120         61
  58.3491         51
  58.3863         48
  58.4234         54
  58.4606         52
  58.4977         53
  58.5349         55
  58.5720         58
  58.6092         57
  58.6463         68
  58.6835         46
  58.7206         47
  58.7578         44
  58.7949         40
  58.8321         44
  58.8692         61
  58.9064         52
  58.9435         61
  58.9807         46
  59.0178         65
  59.0550         56
  59.0921         72
  59.1293         72
  59.1664         55
  59.2036         66
  59.2408         62
  59.2779         52
  59.3151         51
  59.3522         63
  59.3894         55
  59.4265         72
  59.4637         54
  59.5008         55
  59.5380         63
  59.5751         56
  59.6123         50
  59.6494         58
  59.6866         53
  59.7237         56
  59.7609         61
  59.7980         61
  59.8352         46
  59.8723         53
  59.9095         60
  59.9466         58
  59.9838         68
  60.0024         53