File: notebooks/data/xrd_data/ML_20220718_27_SJD_4_LaB6-2min.csv
;,2THETA,
5.0000,133
5.0372,128
5.0743,134
5.1115,114
5.1486,127
5.1858,122
5.2229,122
5.2601,127
5.2972,124
5.3344,109
5.3715,108
5.4087,112
5.4458,117
5.4830,109
5.5201,119
5.5573,107
5.5944,122
5.6316,105
5.6687,103
5.7059,116
5.7430,120
5.7802,92
5.8173,98
5.8545,128
5.8916,95
5.9288,120
5.9659,87
6.0031,96
6.0402,113
6.0774,108
6.1145,89
6.1517,99
6.1888,106
6.2260,94
6.2631,93
6.3003,88
6.3374,90
6.3746,88
6.4117,94
6.4489,103
6.4860,84
6.5232,81
6.5604,90
6.5975,86
6.6347,79
6.6718,88
6.7090,93
6.7461,89
6.7833,88
6.8204,69
6.8576,84
6.8947,71
6.9319,91
6.9690,85
7.0062,83
7.0433,85
7.0805,77
7.1176,91
7.1548,78
7.1919,64
7.2291,75
7.2662,79
7.3034,69
7.3405,79
7.3777,82
7.4148,89
7.4520,89
7.4891,81
7.5263,90
7.5634,85
7.6006,107
7.6377,86
7.6749,94
7.7120,82
7.7492,73
7.7863,82
7.8235,91
7.8606,95
7.8978,105
7.9349,116
7.9721,99
8.0092,88
8.0464,83
8.0835,101
8.1207,110
8.1579,107
8.1950,87
8.2322,106
8.2693,84
8.3065,100
8.3436,102
8.3808,92
8.4179,103
8.4551,102
8.4922,110
8.5294,98
8.5665,92
8.6037,89
8.6408,90
8.6780,109
8.7151,95
8.7523,116
8.7894,72
8.8266,91
8.8637,94
8.9009,112
8.9380,99
8.9752,108
9.0123,97
9.0495,111
9.0866,103
9.1238,122
9.1609,102
9.1981,119
9.2352,113
9.2724,109
9.3095,100
9.3467,103
9.3838,127
9.4210,117
9.4581,119
9.4953,110
9.5324,105
9.5696,124
9.6067,92
9.6439,119
9.6811,102
9.7182,108
9.7554,122
9.7925,116
9.8297,121
9.8668,114
9.9040,134
9.9411,121
9.9783,120
10.0154,133
10.0526,116
10.0897,135
10.1269,115
10.1640,116
10.2012,119
10.2383,121
10.2755,118
10.3126,113
10.3498,111
10.3869,129
10.4241,117
10.4612,134
10.4984,128
10.5355,110
10.5727,119
10.6098,120
10.6470,112
10.6841,122
10.7213,126
10.7584,96
10.7956,112
10.8327,106
10.8699,112
10.9070,104
10.9442,134
10.9813,101
11.0185,150
11.0556,100
11.0928,133
11.1299,121
11.1671,114
11.2043,114
11.2414,143
11.2786,123
11.3157,113
11.3529,110
11.3900,122
11.4272,122
11.4643,112
11.5015,100
11.5386,99
11.5758,118
11.6129,124
11.6501,133
11.6872,123
11.7244,107
11.7615,106
11.7987,121
11.8358,105
11.8730,120
11.9101,106
11.9473,114
11.9844,122
12.0216,109
12.0587,100
12.0959,119
12.1330,113
12.1702,116
12.2073,107
12.2445,98
12.2816,105
12.3188,117
12.3559,113
12.3931,112
12.4302,104
12.4674,114
12.5045,116
12.5417,82
12.5788,82
12.6160,107
12.6531,97
12.6903,110
12.7274,81
12.7646,96
12.8018,113
12.8389,102
12.8761,91
12.9132,89
12.9504,116
12.9875,108
13.0247,96
13.0618,75
13.0990,90
13.1361,106
13.1733,97
13.2104,118
13.2476,87
13.2847,103
13.3219,104
13.3590,94
13.3962,121
13.4333,107
13.4705,97
13.5076,91
13.5448,96
13.5819,92
13.6191,95
13.6562,103
13.6934,89
13.7305,102
13.7677,96
13.8048,95
13.8420,78
13.8791,82
13.9163,100
13.9534,86
13.9906,98
14.0277,93
14.0649,80
14.1020,93
14.1392,80
14.1763,98
14.2135,100
14.2506,80
14.2878,91
14.3250,86
14.3621,72
14.3993,101
14.4364,70
14.4736,86
14.5107,104
14.5479,83
14.5850,78
14.6222,90
14.6593,81
14.6965,81
14.7336,74
14.7708,86
14.8079,89
14.8451,83
14.8822,84
14.9194,98
14.9565,84
14.9937,74
15.0308,78
15.0680,77
15.1051,78
15.1423,65
15.1794,76
15.2166,75
15.2537,95
15.2909,84
15.3280,79
15.3652,81
15.4023,83
15.4395,80
15.4766,90
15.5138,71
15.5509,74
15.5881,80
15.6252,78
15.6624,84
15.6995,70
15.7367,82
15.7738,69
15.8110,86
15.8482,93
15.8853,91
15.9225,71
15.9596,85
15.9968,93
16.0339,77
16.0711,74
16.1082,89
16.1454,65
16.1825,85
16.2197,77
16.2568,73
16.2940,80
16.3311,83
16.3683,89
16.4054,78
16.4426,74
16.4797,81
16.5169,80
16.5540,78
16.5912,72
16.6283,87
16.6655,75
16.7026,92
16.7398,86
16.7769,72
16.8141,77
16.8512,77
16.8884,78
16.9255,68
16.9627,73
16.9998,82
17.0370,79
17.0741,91
17.1113,72
17.1484,81
17.1856,77
17.2227,82
17.2599,78
17.2970,94
17.3342,81
17.3713,84
17.4085,60
17.4457,88
17.4828,84
17.5200,81
17.5571,82
17.5943,85
17.6314,78
17.6686,89
17.7057,71
17.7429,83
17.7800,72
17.8172,83
17.8543,80
17.8915,77
17.9286,86
17.9658,93
18.0029,95
18.0401,94
18.0772,80
18.1144,75
18.1515,91
18.1887,70
18.2258,88
18.2630,82
18.3001,84
18.3373,89
18.3744,86
18.4116,88
18.4487,88
18.4859,80
18.5230,90
18.5602,86
18.5973,80
18.6345,82
18.6716,91
18.7088,73
18.7459,88
18.7831,79
18.8202,79
18.8574,95
18.8945,83
18.9317,80
18.9689,91
19.0060,80
19.0432,84
19.0803,91
19.1175,81
19.1546,92
19.1918,84
19.2289,84
19.2661,102
19.3032,82
19.3404,90
19.3775,79
19.4147,71
19.4518,90
19.4890,91
19.5261,98
19.5633,88
19.6004,88
19.6376,86
19.6747,99
19.7119,83
19.7490,82
19.7862,100
19.8233,78
19.8605,86
19.8976,87
19.9348,68
19.9719,77
20.0091,80
20.0462,91
20.0834,94
20.1205,92
20.1577,73
20.1948,84
20.2320,96
20.2691,84
20.3063,78
20.3434,92
20.3806,94
20.4177,99
20.4549,75
20.4921,84
20.5292,83
20.5664,94
20.6035,103
20.6407,69
20.6778,100
20.7150,82
20.7521,83
20.7893,90
20.8264,91
20.8636,96
20.9007,108
20.9379,108
20.9750,100
21.0122,90
21.0493,81
21.0865,97
21.1236,101
21.1608,103
21.1979,161
21.2351,149
21.2722,145
21.3094,155
21.3465,277
21.3837,183
21.4208,163
21.4580,117
21.4951,97
21.5323,92
21.5694,93
21.6066,99
21.6437,102
21.6809,94
21.7180,87
21.7552,102
21.7923,90
21.8295,88
21.8666,98
21.9038,95
21.9409,108
21.9781,88
22.0152,101
22.0524,110
22.0896,97
22.1267,101
22.1639,91
22.2010,104
22.2382,94
22.2753,102
22.3125,89
22.3496,89
22.3868,89
22.4239,98
22.4611,73
22.4982,100
22.5354,107
22.5725,99
22.6097,85
22.6468,100
22.6840,109
22.7211,91
22.7583,107
22.7954,89
22.8326,97
22.8697,94
22.9069,119
22.9440,100
22.9812,94
23.0183,98
23.0555,86
23.0926,97
23.1298,104
23.1669,99
23.2041,97
23.2412,105
23.2784,96
23.3155,90
23.3527,100
23.3898,94
23.4270,85
23.4641,93
23.5013,111
23.5384,100
23.5756,105
23.6128,95
23.6499,95
23.6871,104
23.7242,106
23.7614,116
23.7985,72
23.8357,82
23.8728,114
23.9100,99
23.9471,102
23.9843,93
24.0214,113
24.0586,112
24.0957,101
24.1329,107
24.1700,113
24.2072,93
24.2443,104
24.2815,126
24.3186,114
24.3558,101
24.3929,109
24.4301,91
24.4672,82
24.5044,85
24.5415,103
24.5787,99
24.6158,102
24.6530,91
24.6901,103
24.7273,103
24.7644,89
24.8016,94
24.8387,110
24.8759,100
24.9130,101
24.9502,105
24.9873,98
25.0245,85
25.0616,104
25.0988,109
25.1360,98
25.1731,99
25.2103,93
25.2474,88
25.2846,90
25.3217,105
25.3589,106
25.3960,90
25.4332,104
25.4703,107
25.5075,89
25.5446,97
25.5818,100
25.6189,95
25.6561,111
25.6932,90
25.7304,93
25.7675,111
25.8047,92
25.8418,90
25.8790,81
25.9161,87
25.9533,84
25.9904,90
26.0276,107
26.0647,92
26.1019,93
26.1390,98
26.1762,89
26.2133,113
26.2505,80
26.2876,95
26.3248,105
26.3619,113
26.3991,97
26.4362,93
26.4734,102
26.5105,90
26.5477,91
26.5848,75
26.6220,87
26.6591,88
26.6963,108
26.7335,110
26.7706,79
26.8078,85
26.8449,82
26.8821,87
26.9192,88
26.9564,84
26.9935,98
27.0307,101
27.0678,99
27.1050,90
27.1421,103
27.1793,103
27.2164,129
27.2536,110
27.2907,107
27.3279,86
27.3650,87
27.4022,84
27.4393,82
27.4765,93
27.5136,80
27.5508,103
27.5879,90
27.6251,98
27.6622,103
27.6994,89
27.7365,96
27.7737,105
27.8108,82
27.8480,79
27.8851,101
27.9223,91
27.9594,93
27.9966,86
28.0337,92
28.0709,93
28.1080,75
28.1452,79
28.1823,76
28.2195,90
28.2567,97
28.2938,85
28.3310,87
28.3681,65
28.4053,81
28.4424,93
28.4796,68
28.5167,73
28.5539,94
28.5910,78
28.6282,92
28.6653,55
28.7025,74
28.7396,74
28.7768,89
28.8139,76
28.8511,82
28.8882,76
28.9254,90
28.9625,68
28.9997,79
29.0368,90
29.0740,58
29.1111,64
29.1483,67
29.1854,66
29.2226,77
29.2597,90
29.2969,73
29.3340,68
29.3712,76
29.4083,68
29.4455,79
29.4826,69
29.5198,82
29.5569,71
29.5941,81
29.6312,84
29.6684,78
29.7055,101
29.7427,81
29.7799,71
29.8170,73
29.8542,79
29.8913,71
29.9285,80
29.9656,82
30.0028,82
30.0399,87
30.0771,75
30.1142,66
30.1514,73
30.1885,75
30.2257,91
30.2628,89
30.3000,102
30.3371,100
30.3743,175
30.4114,131
30.4486,121
30.4857,103
30.5229,85
30.5600,64
30.5972,76
30.6343,77
30.6715,79
30.7086,83
30.7458,74
30.7829,75
30.8201,67
30.8572,51
30.8944,70
30.9315,89
30.9687,83
31.0058,73
31.0430,78
31.0801,69
31.1173,64
31.1544,56
31.1916,74
31.2287,71
31.2659,55
31.3030,64
31.3402,93
31.3774,68
31.4145,67
31.4517,78
31.4888,87
31.5260,69
31.5631,68
31.6003,66
31.6374,73
31.6746,72
31.7117,62
31.7489,57
31.7860,75
31.8232,76
31.8603,77
31.8975,70
31.9346,57
31.9718,77
32.0089,71
32.0461,74
32.0832,54
32.1204,68
32.1575,71
32.1947,70
32.2318,68
32.2690,76
32.3061,52
32.3433,76
32.3804,80
32.4176,84
32.4547,69
32.4919,78
32.5290,81
32.5662,74
32.6033,76
32.6405,69
32.6776,65
32.7148,54
32.7519,58
32.7891,55
32.8262,53
32.8634,75
32.9006,68
32.9377,65
32.9749,65
33.0120,51
33.0492,62
33.0863,61
33.1235,62
33.1606,54
33.1978,60
33.2349,59
33.2721,64
33.3092,60
33.3464,80
33.3835,56
33.4207,61
33.4578,45
33.4950,51
33.5321,50
33.5693,59
33.6064,50
33.6436,57
33.6807,70
33.7179,51
33.7550,57
33.7922,45
33.8293,55
33.8665,48
33.9036,62
33.9408,56
33.9779,52
34.0151,54
34.0522,62
34.0894,57
34.1265,54
34.1637,63
34.2008,54
34.2380,67
34.2751,66
34.3123,45
34.3494,47
34.3866,70
34.4238,54
34.4609,67
34.4981,59
34.5352,58
34.5724,69
34.6095,64
34.6467,59
34.6838,78
34.7210,78
34.7581,84
34.7953,76
34.8324,85
34.8696,61
34.9067,65
34.9439,54
34.9810,48
35.0182,56
35.0553,49
35.0925,67
35.1296,58
35.1668,64
35.2039,53
35.2411,42
35.2782,54
35.3154,56
35.3525,57
35.3897,64
35.4268,37
35.4640,39
35.5011,47
35.5383,61
35.5754,46
35.6126,42
35.6497,48
35.6869,41
35.7240,50
35.7612,50
35.7983,53
35.8355,55
35.8726,43
35.9098,46
35.9469,58
35.9841,57
36.0213,37
36.0584,41
36.0956,40
36.1327,46
36.1699,54
36.2070,38
36.2442,49
36.2813,33
36.3185,44
36.3556,50
36.3928,50
36.4299,48
36.4671,37
36.5042,60
36.5414,49
36.5785,59
36.6157,51
36.6528,58
36.6900,50
36.7271,37
36.7643,45
36.8014,42
36.8386,53
36.8757,45
36.9129,61
36.9500,51
36.9872,55
37.0243,42
37.0615,43
37.0986,43
37.1358,44
37.1729,37
37.2101,33
37.2472,45
37.2844,35
37.3215,41
37.3587,47
37.3958,65
37.4330,80
37.4701,58
37.5073,54
37.5445,66
37.5816,47
37.6188,53
37.6559,54
37.6931,52
37.7302,34
37.7674,49
37.8045,46
37.8417,36
37.8788,53
37.9160,26
37.9531,58
37.9903,52
38.0274,30
38.0646,37
38.1017,44
38.1389,34
38.1760,39
38.2132,33
38.2503,41
38.2875,46
38.3246,26
38.3618,33
38.3989,60
38.4361,41
38.4732,36
38.5104,39
38.5475,41
38.5847,51
38.6218,47
38.6590,34
38.6961,45
38.7333,63
38.7704,39
38.8076,49
38.8447,40
38.8819,58
38.9190,39
38.9562,44
38.9933,43
39.0305,41
39.0677,33
39.1048,45
39.1420,41
39.1791,51
39.2163,39
39.2534,44
39.2906,33
39.3277,46
39.3649,46
39.4020,47
39.4392,46
39.4763,43
39.5135,35
39.5506,32
39.5878,44
39.6249,28
39.6621,35
39.6992,40
39.7364,39
39.7735,41
39.8107,36
39.8478,31
39.8850,40
39.9221,38
39.9593,39
39.9964,32
40.0336,31
40.0707,47
40.1079,24
40.1450,35
40.1822,41
40.2193,53
40.2565,33
40.2936,39
40.3308,35
40.3679,29
40.4051,46
40.4422,33
40.4794,31
40.5165,36
40.5537,36
40.5908,44
40.6280,38
40.6652,38
40.7023,32
40.7395,39
40.7766,45
40.8138,21
40.8509,40
40.8881,30
40.9252,51
40.9624,33
40.9995,44
41.0367,39
41.0738,41
41.1110,36
41.1481,42
41.1853,41
41.2224,41
41.2596,48
41.2967,31
41.3339,48
41.3710,39
41.4082,40
41.4453,43
41.4825,30
41.5196,31
41.5568,31
41.5939,30
41.6311,45
41.6682,43
41.7054,44
41.7425,31
41.7797,52
41.8168,32
41.8540,36
41.8911,34
41.9283,41
41.9654,32
42.0026,42
42.0397,33
42.0769,25
42.1140,38
42.1512,45
42.1884,45
42.2255,25
42.2627,31
42.2998,34
42.3370,32
42.3741,35
42.4113,39
42.4484,33
42.4856,38
42.5227,34
42.5599,37
42.5970,36
42.6342,48
42.6713,47
42.7085,35
42.7456,36
42.7828,38
42.8199,34
42.8571,34
42.8942,39
42.9314,35
42.9685,36
43.0057,29
43.0428,35
43.0800,34
43.1171,50
43.1543,37
43.1914,43
43.2286,56
43.2657,45
43.3029,43
43.3400,39
43.3772,41
43.4143,50
43.4515,56
43.4886,62
43.5258,69
43.5629,38
43.6001,37
43.6372,50
43.6744,36
43.7116,41
43.7487,46
43.7859,34
43.8230,32
43.8602,31
43.8973,32
43.9345,29
43.9716,36
44.0088,33
44.0459,37
44.0831,41
44.1202,34
44.1574,24
44.1945,32
44.2317,35
44.2688,43
44.3060,33
44.3431,37
44.3803,37
44.4174,48
44.4546,38
44.4917,45
44.5289,45
44.5660,44
44.6032,39
44.6403,30
44.6775,35
44.7146,46
44.7518,34
44.7889,39
44.8261,45
44.8632,43
44.9004,37
44.9375,45
44.9747,39
45.0118,27
45.0490,42
45.0861,29
45.1233,44
45.1604,40
45.1976,26
45.2347,28
45.2719,33
45.3091,26
45.3462,37
45.3834,34
45.4205,33
45.4577,37
45.4948,32
45.5320,38
45.5691,38
45.6063,29
45.6434,42
45.6806,32
45.7177,29
45.7549,31
45.7920,30
45.8292,32
45.8663,36
45.9035,29
45.9406,26
45.9778,24
46.0149,33
46.0521,31
46.0892,35
46.1264,29
46.1635,28
46.2007,30
46.2378,23
46.2750,34
46.3121,29
46.3493,34
46.3864,27
46.4236,26
46.4607,25
46.4979,34
46.5350,24
46.5722,21
46.6093,20
46.6465,45
46.6836,29
46.7208,40
46.7579,31
46.7951,39
46.8323,26
46.8694,38
46.9066,30
46.9437,24
46.9809,33
47.0180,35
47.0552,42
47.0923,35
47.1295,30
47.1666,28
47.2038,19
47.2409,28
47.2781,36
47.3152,34
47.3524,31
47.3895,37
47.4267,23
47.4638,28
47.5010,32
47.5381,34
47.5753,35
47.6124,28
47.6496,45
47.6867,40
47.7239,35
47.7610,33
47.7982,22
47.8353,30
47.8725,24
47.9096,32
47.9468,38
47.9839,27
48.0211,41
48.0582,34
48.0954,28
48.1325,29
48.1697,38
48.2068,29
48.2440,30
48.2811,32
48.3183,22
48.3555,24
48.3926,33
48.4298,30
48.4669,27
48.5041,37
48.5412,19
48.5784,40
48.6155,38
48.6527,31
48.6898,37
48.7270,34
48.7641,32
48.8013,29
48.8384,25
48.8756,35
48.9127,32
48.9499,50
48.9870,63
49.0242,37
49.0613,35
49.0985,43
49.1356,38
49.1728,27
49.2099,36
49.2471,32
49.2842,29
49.3214,29
49.3585,29
49.3957,33
49.4328,35
49.4700,23
49.5071,30
49.5443,29
49.5814,23
49.6186,25
49.6557,33
49.6929,41
49.7300,30
49.7672,29
49.8043,33
49.8415,30
49.8786,32
49.9158,24
49.9530,31
49.9901,22
50.0273,32
50.0644,31
50.1016,33
50.1387,43
50.1759,36
50.2130,28
50.2502,30
50.2873,35
50.3245,29
50.3616,38
50.3988,29
50.4359,25
50.4731,36
50.5102,35
50.5474,25
50.5845,27
50.6217,28
50.6588,32
50.6960,35
50.7331,39
50.7703,32
50.8074,22
50.8446,26
50.8817,29
50.9189,16
50.9560,36
50.9932,24
51.0303,35
51.0675,32
51.1046,39
51.1418,26
51.1789,27
51.2161,23
51.2532,32
51.2904,25
51.3275,32
51.3647,40
51.4018,33
51.4390,28
51.4762,29
51.5133,32
51.5505,39
51.5876,35
51.6248,35
51.6619,19
51.6991,24
51.7362,31
51.7734,31
51.8105,39
51.8477,30
51.8848,32
51.9220,32
51.9591,31
51.9963,34
52.0334,25
52.0706,26
52.1077,26
52.1449,36
52.1820,31
52.2192,29
52.2563,42
52.2935,23
52.3306,25
52.3678,35
52.4049,41
52.4421,36
52.4792,29
52.5164,29
52.5535,30
52.5907,25
52.6278,31
52.6650,32
52.7021,36
52.7393,23
52.7764,34
52.8136,27
52.8507,20
52.8879,30
52.9250,32
52.9622,25
52.9994,41
53.0365,29
53.0737,32
53.1108,30
53.1480,23
53.1851,34
53.2223,40
53.2594,26
53.2966,31
53.3337,31
53.3709,29
53.4080,37
53.4452,29
53.4823,24
53.5195,30
53.5566,26
53.5938,23
53.6309,28
53.6681,34
53.7052,25
53.7424,31
53.7795,29
53.8167,27
53.8538,34
53.8910,32
53.9281,35
53.9653,44
54.0024,35
54.0396,28
54.0767,37
54.1139,34
54.1510,33
54.1882,20
54.2253,28
54.2625,26
54.2996,36
54.3368,30
54.3739,27
54.4111,29
54.4482,31
54.4854,29
54.5225,21
54.5597,27
54.5969,26
54.6340,31
54.6712,25
54.7083,29
54.7455,27
54.7826,25
54.8198,29
54.8569,24
54.8941,21
54.9312,24
54.9684,34
55.0055,40
55.0427,27
55.0798,33
55.1170,35
55.1541,25
55.1913,33
55.2284,21
55.2656,25
55.3027,38
55.3399,36
55.3770,14
55.4142,30
55.4513,30
55.4885,32
55.5256,26
55.5628,34
55.5999,29
55.6371,25
55.6742,33
55.7114,21
55.7485,34
55.7857,25
55.8228,32
55.8600,29
55.8971,29
55.9343,32
55.9714,31
56.0086,36
56.0457,28
56.0829,28
56.1201,22
56.1572,31
56.1944,28
56.2315,39
56.2687,30
56.3058,24
56.3430,27
56.3801,30
56.4173,32
56.4544,31
56.4916,37
56.5287,28
56.5659,21
56.6030,29
56.6402,25
56.6773,24
56.7145,28
56.7516,30
56.7888,25
56.8259,20
56.8631,36
56.9002,29
56.9374,29
56.9745,36
57.0117,28
57.0488,27
57.0860,20
57.1231,28
57.1603,21
57.1974,25
57.2346,36
57.2717,34
57.3089,31
57.3460,31
57.3832,29
57.4203,25
57.4575,32
57.4946,39
57.5318,25
57.5689,29
57.6061,36
57.6433,30
57.6804,30
57.7176,28
57.7547,30
57.7919,25
57.8290,27
57.8662,30
57.9033,24
57.9405,32
57.9776,25
58.0148,21
58.0519,30
58.0891,29
58.1262,32
58.1634,21
58.2005,16
58.2377,26
58.2748,26
58.3120,21
58.3491,30
58.3863,28
58.4234,23
58.4606,28
58.4977,34
58.5349,25
58.5720,22
58.6092,39
58.6463,29
58.6835,28
58.7206,25
58.7578,24
58.7949,36
58.8321,24
58.8692,24
58.9064,28
58.9435,22
58.9807,27
59.0178,28
59.0550,36
59.0921,36
59.1293,30
59.1664,22
59.2036,32
59.2408,18
59.2779,25
59.3151,38
59.3522,28
59.3894,26
59.4265,27
59.4637,31
59.5008,39
59.5380,33
59.5751,22
59.6123,32
59.6494,29
59.6866,37
59.7237,24
59.7609,19
59.7980,19
59.8352,40
59.8723,36
59.9095,18
59.9466,35
59.9838,29
60.0024,30