File: notebooks/data/xrd_data/ML_20220718_53_SJD_4_LaB6-2min.uxd
; (content of file Y:\Sam\Apurva-07-20-2022\puck4\ML_20220718_53_SJD_4_LaB6-2min.raw)
_FILEVERSION = 3
_SAMPLE = ML_20220718_53_SJD_4_LaB6-2min
_+SAMPLE =
_SITE = USA
_USER = Administrator
_GONIOMETER_CODE = 20
; Goniometer : D8 theta/2theta, stage : Unknown
_ATTACHMENTS_CODE = 0
_GONIOMETER_RADIUS = 200.5
_FIXED_DIVSLIT = 0.6
_FIXED_SAMPLESLIT = 0
_SOLLER_SLITS = 2
_FIXED_DETSLIT = 9.55
_MONOCHROMATOR = 0
; Incident beam monochromator : None
_SOLLER_SLITS_2 = N
_THIN_FILM = N
_BETA_FILTER = Y
_FIXED_ANTISLIT = 5.89
_ANALYZER_CODE = 0
; Received beam analyzer : None
_DATEMEASURED = "26-Jul-2022 12:34:49"
_WL_UNIT = A
_WL1 = 1.5406
_WL2 = 1.54439
_WL3 = 1.39222
_WLRATIO = 0.5
_ANODE = Cu
_V4_INF_CREATOR = XRDWizard
_V4_INF_CREATOR_VERSION = V2.9.0.22
_V4_INF_WIZARD_VERSION = V2.9.0.22
_V4_INF_WIZARD_ADDINS = V2.9.0.22
_V4_INF_WIZARD_DOCTYPE = XRD
_V4_INF_OSUSER = McQueenLab
_V4_INF_USER = Administrator
_V4_INF_SITE = USA
_V4_INF_SAMPLEID = ML_20220718_53_SJD_4_LaB6-2min

; Data for range 1
_DRIVE = COUPLED
_STEPTIME = 5.64
_STEPSIZE = 0.0185756
_STEPMODE = C
_START = 5
_THETA = 2.5
_2THETA = 5
_KHI = 0
_PHI = 0
_X = 0
_Y = 0
_Z = 0
_DETECTOR = 5
; Detector type : Unknown
_DETECTORSLIT = unkn
_AUX1 = 0
_AUX2 = 0
_AUX3 = 0
_TIMESTARTED = 15
_TEMP_RATE = -1
_TEMP_DELAY = -1
_KV = 40
_MA = 40
_RANGE_WL = 1.5406
_3DPLANE = 0
_V4_ADDITIONALDETECTOR = 257
_V4_PSD2THETA = 3.373
_V4_PSDCHANNEL1 = 0
_V4_PSDAPERTURE = 12.68
_V4_PSDTYPE = 5
_V4_PSDFIXED = 0
_V4_COUNTERS_MASK = 4096
_V4_DRIVES_MASK = 0
_V4_ENCODERS_MASK = 0
_2THETACOUNTS = 1
; 2THETA  PSD
   5.0000        116
   5.0372        131
   5.0743        110
   5.1115        118
   5.1486        125
   5.1858        142
   5.2229        130
   5.2601        119
   5.2972         99
   5.3344        116
   5.3715        128
   5.4087        127
   5.4458        134
   5.4830        109
   5.5201        113
   5.5573        103
   5.5944        102
   5.6316         95
   5.6687        100
   5.7059        122
   5.7430        100
   5.7802        100
   5.8173        101
   5.8545        104
   5.8916        101
   5.9288         94
   5.9659        101
   6.0031        121
   6.0402         75
   6.0774        100
   6.1145         94
   6.1517         85
   6.1888         90
   6.2260         78
   6.2631        109
   6.3003         94
   6.3374         83
   6.3746        100
   6.4117        100
   6.4489         98
   6.4860         80
   6.5232         82
   6.5604         83
   6.5975         70
   6.6347         84
   6.6718         62
   6.7090         88
   6.7461         89
   6.7833         74
   6.8204         78
   6.8576         94
   6.8947         95
   6.9319         71
   6.9690         67
   7.0062         77
   7.0433         77
   7.0805         95
   7.1176         81
   7.1548         79
   7.1919         84
   7.2291         76
   7.2662         64
   7.3034         87
   7.3405         83
   7.3777         75
   7.4148         72
   7.4520         93
   7.4891         88
   7.5263         72
   7.5634         95
   7.6006         80
   7.6377         89
   7.6749         80
   7.7120         81
   7.7492         81
   7.7863        105
   7.8235         91
   7.8606         85
   7.8978         90
   7.9349         97
   7.9721        107
   8.0092        114
   8.0464         97
   8.0835         92
   8.1207         96
   8.1579         94
   8.1950         95
   8.2322         92
   8.2693         99
   8.3065         97
   8.3436         87
   8.3808        114
   8.4179        100
   8.4551        110
   8.4922         93
   8.5294         90
   8.5665         98
   8.6037         94
   8.6408        101
   8.6780        109
   8.7151         88
   8.7523         88
   8.7894        112
   8.8266         99
   8.8637         95
   8.9009        103
   8.9380        108
   8.9752        109
   9.0123        122
   9.0495        108
   9.0866        101
   9.1238         99
   9.1609        107
   9.1981        126
   9.2352        110
   9.2724        117
   9.3095         94
   9.3467        118
   9.3838        123
   9.4210        106
   9.4581         99
   9.4953         86
   9.5324        124
   9.5696        126
   9.6067        104
   9.6439        113
   9.6811        131
   9.7182        140
   9.7554        111
   9.7925        109
   9.8297        117
   9.8668         97
   9.9040        112
   9.9411        122
   9.9783        109
  10.0154        120
  10.0526        119
  10.0897        113
  10.1269        119
  10.1640        143
  10.2012        128
  10.2383        113
  10.2755        129
  10.3126        119
  10.3498        112
  10.3869        122
  10.4241        119
  10.4612        132
  10.4984        129
  10.5355        115
  10.5727        107
  10.6098        107
  10.6470         99
  10.6841        107
  10.7213        118
  10.7584        114
  10.7956        114
  10.8327        107
  10.8699        114
  10.9070        118
  10.9442        122
  10.9813         98
  11.0185        138
  11.0556        111
  11.0928        117
  11.1299         88
  11.1671        114
  11.2043        141
  11.2414        121
  11.2786        117
  11.3157        138
  11.3529        137
  11.3900        123
  11.4272        116
  11.4643        115
  11.5015        102
  11.5386        120
  11.5758        117
  11.6129        106
  11.6501        110
  11.6872        117
  11.7244        114
  11.7615        102
  11.7987        111
  11.8358         95
  11.8730        107
  11.9101        109
  11.9473        106
  11.9844        119
  12.0216        111
  12.0587        106
  12.0959        112
  12.1330        112
  12.1702         98
  12.2073        114
  12.2445        115
  12.2816        116
  12.3188        119
  12.3559        107
  12.3931        105
  12.4302        104
  12.4674        111
  12.5045        112
  12.5417        118
  12.5788        112
  12.6160        107
  12.6531        104
  12.6903        112
  12.7274         88
  12.7646        104
  12.8018         92
  12.8389        101
  12.8761        121
  12.9132         92
  12.9504         99
  12.9875        101
  13.0247         89
  13.0618         98
  13.0990        100
  13.1361        114
  13.1733        102
  13.2104        102
  13.2476        102
  13.2847        126
  13.3219         85
  13.3590         95
  13.3962         91
  13.4333        100
  13.4705        106
  13.5076         96
  13.5448         96
  13.5819         97
  13.6191         96
  13.6562         97
  13.6934         88
  13.7305         98
  13.7677         96
  13.8048         94
  13.8420         73
  13.8791         88
  13.9163        100
  13.9534         90
  13.9906         88
  14.0277         85
  14.0649         95
  14.1020         89
  14.1392         99
  14.1763         85
  14.2135         89
  14.2506         91
  14.2878         79
  14.3250         97
  14.3621         65
  14.3993         86
  14.4364         86
  14.4736         83
  14.5107        100
  14.5479         97
  14.5850         75
  14.6222         88
  14.6593         81
  14.6965         84
  14.7336         68
  14.7708         66
  14.8079         72
  14.8451        100
  14.8822         61
  14.9194         91
  14.9565         93
  14.9937         75
  15.0308         78
  15.0680         85
  15.1051         77
  15.1423         78
  15.1794         97
  15.2166         89
  15.2537         96
  15.2909         84
  15.3280        113
  15.3652         89
  15.4023         85
  15.4395         91
  15.4766         93
  15.5138         72
  15.5509        100
  15.5881         94
  15.6252         71
  15.6624         72
  15.6995         81
  15.7367         83
  15.7738         81
  15.8110         82
  15.8482         81
  15.8853         76
  15.9225         76
  15.9596         67
  15.9968         63
  16.0339         77
  16.0711         94
  16.1082         69
  16.1454         77
  16.1825         83
  16.2197         73
  16.2568         73
  16.2940         82
  16.3311         69
  16.3683         66
  16.4054         84
  16.4426         82
  16.4797         77
  16.5169         64
  16.5540         90
  16.5912         77
  16.6283         86
  16.6655         76
  16.7026         90
  16.7398         82
  16.7769         95
  16.8141         62
  16.8512         94
  16.8884         91
  16.9255         84
  16.9627         72
  16.9998         75
  17.0370         79
  17.0741         75
  17.1113         64
  17.1484         98
  17.1856         71
  17.2227         84
  17.2599         98
  17.2970         68
  17.3342         81
  17.3713         68
  17.4085         89
  17.4457         81
  17.4828         65
  17.5200         74
  17.5571         77
  17.5943         75
  17.6314         75
  17.6686         75
  17.7057         91
  17.7429         81
  17.7800         73
  17.8172         92
  17.8543         76
  17.8915         88
  17.9286         86
  17.9658         77
  18.0029         85
  18.0401         71
  18.0772         80
  18.1144         90
  18.1515         71
  18.1887         82
  18.2258         68
  18.2630         85
  18.3001         70
  18.3373         76
  18.3744         77
  18.4116        101
  18.4487         81
  18.4859         65
  18.5230         79
  18.5602         79
  18.5973         72
  18.6345         96
  18.6716         69
  18.7088         85
  18.7459         89
  18.7831         85
  18.8202         83
  18.8574         74
  18.8945         79
  18.9317         83
  18.9689         77
  19.0060         91
  19.0432         73
  19.0803         74
  19.1175         95
  19.1546         91
  19.1918         87
  19.2289         87
  19.2661         81
  19.3032         99
  19.3404         93
  19.3775         81
  19.4147         94
  19.4518         87
  19.4890         76
  19.5261         74
  19.5633         75
  19.6004         82
  19.6376         72
  19.6747         84
  19.7119         83
  19.7490         85
  19.7862         79
  19.8233         89
  19.8605         94
  19.8976         86
  19.9348         96
  19.9719         87
  20.0091         89
  20.0462         90
  20.0834         87
  20.1205         82
  20.1577         86
  20.1948         85
  20.2320         95
  20.2691        107
  20.3063         92
  20.3434        102
  20.3806         88
  20.4177        108
  20.4549         89
  20.4921         91
  20.5292         78
  20.5664         75
  20.6035         93
  20.6407        109
  20.6778         88
  20.7150         84
  20.7521         96
  20.7893         88
  20.8264         91
  20.8636         81
  20.9007         90
  20.9379         77
  20.9750         95
  21.0122         93
  21.0493        105
  21.0865        102
  21.1236        117
  21.1608        118
  21.1979        146
  21.2351        159
  21.2722        139
  21.3094        166
  21.3465        239
  21.3837        223
  21.4208        187
  21.4580        124
  21.4951         93
  21.5323        102
  21.5694        103
  21.6066        100
  21.6437        102
  21.6809         97
  21.7180         91
  21.7552        106
  21.7923        104
  21.8295         90
  21.8666        105
  21.9038         93
  21.9409        113
  21.9781        103
  22.0152        103
  22.0524         99
  22.0896        104
  22.1267         94
  22.1639         84
  22.2010         93
  22.2382         80
  22.2753         94
  22.3125        105
  22.3496         87
  22.3868         96
  22.4239         96
  22.4611        116
  22.4982        102
  22.5354         94
  22.5725         88
  22.6097         85
  22.6468         91
  22.6840         88
  22.7211         91
  22.7583         99
  22.7954         87
  22.8326         93
  22.8697         92
  22.9069        108
  22.9440         96
  22.9812         95
  23.0183        103
  23.0555         90
  23.0926        114
  23.1298         93
  23.1669         96
  23.2041         91
  23.2412         99
  23.2784         98
  23.3155        101
  23.3527        105
  23.3898         98
  23.4270         91
  23.4641         96
  23.5013         98
  23.5384        124
  23.5756         91
  23.6128        101
  23.6499         90
  23.6871         96
  23.7242         99
  23.7614         79
  23.7985        103
  23.8357        119
  23.8728         79
  23.9100         99
  23.9471         98
  23.9843         99
  24.0214         98
  24.0586         90
  24.0957         96
  24.1329        121
  24.1700        108
  24.2072        123
  24.2443        121
  24.2815        103
  24.3186        102
  24.3558        122
  24.3929        107
  24.4301         97
  24.4672        109
  24.5044         93
  24.5415        120
  24.5787        108
  24.6158        103
  24.6530         87
  24.6901        103
  24.7273         95
  24.7644         88
  24.8016         97
  24.8387        102
  24.8759         99
  24.9130         92
  24.9502        105
  24.9873        105
  25.0245         93
  25.0616         96
  25.0988         90
  25.1360        100
  25.1731         93
  25.2103        101
  25.2474        103
  25.2846        113
  25.3217        107
  25.3589        105
  25.3960        103
  25.4332         76
  25.4703         94
  25.5075         86
  25.5446         95
  25.5818        108
  25.6189         98
  25.6561         95
  25.6932         77
  25.7304         93
  25.7675         91
  25.8047         87
  25.8418        101
  25.8790         96
  25.9161        101
  25.9533         92
  25.9904         81
  26.0276        104
  26.0647         87
  26.1019         98
  26.1390         94
  26.1762        105
  26.2133         83
  26.2505         91
  26.2876         84
  26.3248         89
  26.3619         81
  26.3991        118
  26.4362         98
  26.4734         87
  26.5105         76
  26.5477         98
  26.5848         98
  26.6220        118
  26.6591        104
  26.6963         79
  26.7335         86
  26.7706        100
  26.8078        108
  26.8449         88
  26.8821        106
  26.9192         93
  26.9564        102
  26.9935         77
  27.0307        102
  27.0678         86
  27.1050         87
  27.1421        102
  27.1793        116
  27.2164        113
  27.2536        106
  27.2907        111
  27.3279         97
  27.3650        102
  27.4022         78
  27.4393         84
  27.4765         78
  27.5136         95
  27.5508         71
  27.5879         76
  27.6251         82
  27.6622         82
  27.6994         82
  27.7365         83
  27.7737         89
  27.8108         96
  27.8480         71
  27.8851         94
  27.9223         92
  27.9594         88
  27.9966        107
  28.0337         96
  28.0709         87
  28.1080         90
  28.1452         85
  28.1823         91
  28.2195         98
  28.2567         75
  28.2938         73
  28.3310        112
  28.3681         88
  28.4053         78
  28.4424         69
  28.4796         83
  28.5167         83
  28.5539         82
  28.5910         76
  28.6282         94
  28.6653         92
  28.7025         65
  28.7396         80
  28.7768         77
  28.8139         86
  28.8511         75
  28.8882         73
  28.9254         87
  28.9625         85
  28.9997         62
  29.0368         80
  29.0740         79
  29.1111         95
  29.1483         89
  29.1854         78
  29.2226         96
  29.2597         77
  29.2969         74
  29.3340         67
  29.3712         70
  29.4083         77
  29.4455         84
  29.4826         85
  29.5198         73
  29.5569        110
  29.5941         69
  29.6312         90
  29.6684         71
  29.7055         83
  29.7427         87
  29.7799         88
  29.8170         75
  29.8542         93
  29.8913         59
  29.9285         86
  29.9656         71
  30.0028         85
  30.0399         83
  30.0771         86
  30.1142         93
  30.1514         81
  30.1885         74
  30.2257         92
  30.2628         93
  30.3000         90
  30.3371        111
  30.3743        135
  30.4114        126
  30.4486        105
  30.4857         91
  30.5229         79
  30.5600         80
  30.5972         71
  30.6343         75
  30.6715         73
  30.7086         73
  30.7458         57
  30.7829         84
  30.8201         69
  30.8572         81
  30.8944         62
  30.9315         72
  30.9687         63
  31.0058         70
  31.0430         71
  31.0801         65
  31.1173         58
  31.1544         69
  31.1916         67
  31.2287         58
  31.2659         68
  31.3030         76
  31.3402         69
  31.3774         58
  31.4145         59
  31.4517         76
  31.4888         72
  31.5260         73
  31.5631         56
  31.6003         60
  31.6374         66
  31.6746         74
  31.7117         62
  31.7489         64
  31.7860         73
  31.8232         76
  31.8603         54
  31.8975         73
  31.9346         70
  31.9718         73
  32.0089         71
  32.0461         68
  32.0832         49
  32.1204         70
  32.1575         64
  32.1947         63
  32.2318         73
  32.2690         55
  32.3061         54
  32.3433         73
  32.3804         58
  32.4176         75
  32.4547         84
  32.4919         74
  32.5290         76
  32.5662         64
  32.6033         63
  32.6405         55
  32.6776         65
  32.7148         73
  32.7519         61
  32.7891         55
  32.8262         55
  32.8634         56
  32.9006         59
  32.9377         64
  32.9749         74
  33.0120         56
  33.0492         49
  33.0863         55
  33.1235         70
  33.1606         72
  33.1978         60
  33.2349         70
  33.2721         59
  33.3092         61
  33.3464         60
  33.3835         55
  33.4207         64
  33.4578         55
  33.4950         68
  33.5321         50
  33.5693         68
  33.6064         62
  33.6436         54
  33.6807         55
  33.7179         53
  33.7550         75
  33.7922         57
  33.8293         46
  33.8665         58
  33.9036         53
  33.9408         53
  33.9779         63
  34.0151         66
  34.0522         46
  34.0894         54
  34.1265         62
  34.1637         55
  34.2008         57
  34.2380         54
  34.2751         51
  34.3123         65
  34.3494         53
  34.3866         53
  34.4238         53
  34.4609         67
  34.4981         53
  34.5352         43
  34.5724         65
  34.6095         68
  34.6467         61
  34.6838         55
  34.7210         72
  34.7581         68
  34.7953         67
  34.8324         54
  34.8696         58
  34.9067         47
  34.9439         52
  34.9810         61
  35.0182         61
  35.0553         46
  35.0925         66
  35.1296         51
  35.1668         43
  35.2039         48
  35.2411         42
  35.2782         63
  35.3154         54
  35.3525         52
  35.3897         46
  35.4268         37
  35.4640         48
  35.5011         47
  35.5383         47
  35.5754         37
  35.6126         73
  35.6497         53
  35.6869         50
  35.7240         50
  35.7612         48
  35.7983         45
  35.8355         49
  35.8726         30
  35.9098         56
  35.9469         34
  35.9841         43
  36.0213         48
  36.0584         50
  36.0956         38
  36.1327         61
  36.1699         44
  36.2070         45
  36.2442         49
  36.2813         49
  36.3185         51
  36.3556         49
  36.3928         38
  36.4299         44
  36.4671         43
  36.5042         58
  36.5414         43
  36.5785         43
  36.6157         56
  36.6528         48
  36.6900         37
  36.7271         48
  36.7643         43
  36.8014         48
  36.8386         54
  36.8757         48
  36.9129         43
  36.9500         56
  36.9872         50
  37.0243         52
  37.0615         42
  37.0986         65
  37.1358         55
  37.1729         47
  37.2101         39
  37.2472         45
  37.2844         50
  37.3215         47
  37.3587         36
  37.3958         47
  37.4330         83
  37.4701         60
  37.5073         51
  37.5445         52
  37.5816         47
  37.6188         52
  37.6559         43
  37.6931         45
  37.7302         46
  37.7674         42
  37.8045         51
  37.8417         45
  37.8788         36
  37.9160         51
  37.9531         39
  37.9903         46
  38.0274         26
  38.0646         51
  38.1017         38
  38.1389         35
  38.1760         39
  38.2132         45
  38.2503         46
  38.2875         46
  38.3246         48
  38.3618         45
  38.3989         36
  38.4361         49
  38.4732         34
  38.5104         41
  38.5475         32
  38.5847         30
  38.6218         38
  38.6590         49
  38.6961         39
  38.7333         37
  38.7704         35
  38.8076         38
  38.8447         39
  38.8819         51
  38.9190         49
  38.9562         35
  38.9933         49
  39.0305         48
  39.0677         32
  39.1048         43
  39.1420         38
  39.1791         37
  39.2163         44
  39.2534         43
  39.2906         44
  39.3277         38
  39.3649         38
  39.4020         47
  39.4392         49
  39.4763         40
  39.5135         38
  39.5506         36
  39.5878         35
  39.6249         43
  39.6621         42
  39.6992         44
  39.7364         33
  39.7735         31
  39.8107         48
  39.8478         37
  39.8850         43
  39.9221         47
  39.9593         33
  39.9964         29
  40.0336         38
  40.0707         37
  40.1079         36
  40.1450         37
  40.1822         35
  40.2193         47
  40.2565         40
  40.2936         35
  40.3308         40
  40.3679         41
  40.4051         37
  40.4422         42
  40.4794         35
  40.5165         30
  40.5537         42
  40.5908         34
  40.6280         46
  40.6652         43
  40.7023         42
  40.7395         44
  40.7766         39
  40.8138         31
  40.8509         38
  40.8881         34
  40.9252         44
  40.9624         33
  40.9995         48
  41.0367         32
  41.0738         48
  41.1110         46
  41.1481         36
  41.1853         42
  41.2224         42
  41.2596         28
  41.2967         37
  41.3339         47
  41.3710         35
  41.4082         27
  41.4453         29
  41.4825         26
  41.5196         31
  41.5568         43
  41.5939         34
  41.6311         37
  41.6682         34
  41.7054         34
  41.7425         31
  41.7797         37
  41.8168         47
  41.8540         43
  41.8911         35
  41.9283         53
  41.9654         40
  42.0026         44
  42.0397         28
  42.0769         24
  42.1140         46
  42.1512         34
  42.1884         39
  42.2255         38
  42.2627         31
  42.2998         32
  42.3370         42
  42.3741         45
  42.4113         36
  42.4484         42
  42.4856         37
  42.5227         39
  42.5599         40
  42.5970         31
  42.6342         22
  42.6713         40
  42.7085         30
  42.7456         31
  42.7828         31
  42.8199         41
  42.8571         39
  42.8942         31
  42.9314         33
  42.9685         40
  43.0057         30
  43.0428         38
  43.0800         35
  43.1171         42
  43.1543         34
  43.1914         50
  43.2286         40
  43.2657         50
  43.3029         41
  43.3400         44
  43.3772         48
  43.4143         40
  43.4515         39
  43.4886         60
  43.5258         65
  43.5629         47
  43.6001         51
  43.6372         44
  43.6744         38
  43.7116         22
  43.7487         40
  43.7859         40
  43.8230         41
  43.8602         32
  43.8973         42
  43.9345         40
  43.9716         35
  44.0088         40
  44.0459         36
  44.0831         39
  44.1202         34
  44.1574         29
  44.1945         35
  44.2317         32
  44.2688         25
  44.3060         36
  44.3431         38
  44.3803         44
  44.4174         37
  44.4546         43
  44.4917         37
  44.5289         35
  44.5660         33
  44.6032         36
  44.6403         40
  44.6775         26
  44.7146         34
  44.7518         45
  44.7889         34
  44.8261         29
  44.8632         34
  44.9004         42
  44.9375         36
  44.9747         35
  45.0118         33
  45.0490         32
  45.0861         35
  45.1233         24
  45.1604         25
  45.1976         35
  45.2347         49
  45.2719         47
  45.3091         24
  45.3462         25
  45.3834         42
  45.4205         28
  45.4577         29
  45.4948         29
  45.5320         32
  45.5691         31
  45.6063         25
  45.6434         30
  45.6806         35
  45.7177         30
  45.7549         35
  45.7920         33
  45.8292         39
  45.8663         39
  45.9035         29
  45.9406         38
  45.9778         30
  46.0149         34
  46.0521         30
  46.0892         34
  46.1264         22
  46.1635         32
  46.2007         35
  46.2378         29
  46.2750         37
  46.3121         35
  46.3493         33
  46.3864         34
  46.4236         30
  46.4607         34
  46.4979         32
  46.5350         42
  46.5722         31
  46.6093         39
  46.6465         39
  46.6836         24
  46.7208         31
  46.7579         34
  46.7951         34
  46.8323         31
  46.8694         30
  46.9066         28
  46.9437         32
  46.9809         32
  47.0180         33
  47.0552         20
  47.0923         39
  47.1295         34
  47.1666         35
  47.2038         35
  47.2409         26
  47.2781         28
  47.3152         30
  47.3524         24
  47.3895         38
  47.4267         29
  47.4638         32
  47.5010         37
  47.5381         37
  47.5753         30
  47.6124         39
  47.6496         36
  47.6867         33
  47.7239         31
  47.7610         34
  47.7982         34
  47.8353         35
  47.8725         15
  47.9096         30
  47.9468         19
  47.9839         33
  48.0211         35
  48.0582         38
  48.0954         30
  48.1325         26
  48.1697         34
  48.2068         30
  48.2440         42
  48.2811         35
  48.3183         32
  48.3555         32
  48.3926         23
  48.4298         25
  48.4669         35
  48.5041         23
  48.5412         25
  48.5784         28
  48.6155         27
  48.6527         28
  48.6898         32
  48.7270         32
  48.7641         25
  48.8013         24
  48.8384         33
  48.8756         29
  48.9127         43
  48.9499         56
  48.9870         44
  49.0242         35
  49.0613         41
  49.0985         50
  49.1356         39
  49.1728         33
  49.2099         28
  49.2471         27
  49.2842         41
  49.3214         31
  49.3585         28
  49.3957         32
  49.4328         21
  49.4700         34
  49.5071         37
  49.5443         29
  49.5814         38
  49.6186         36
  49.6557         32
  49.6929         31
  49.7300         27
  49.7672         26
  49.8043         33
  49.8415         37
  49.8786         31
  49.9158         21
  49.9530         25
  49.9901         22
  50.0273         31
  50.0644         37
  50.1016         32
  50.1387         25
  50.1759         27
  50.2130         27
  50.2502         34
  50.2873         31
  50.3245         29
  50.3616         30
  50.3988         30
  50.4359         33
  50.4731         22
  50.5102         28
  50.5474         22
  50.5845         31
  50.6217         30
  50.6588         29
  50.6960         21
  50.7331         21
  50.7703         23
  50.8074         27
  50.8446         19
  50.8817         27
  50.9189         21
  50.9560         25
  50.9932         39
  51.0303         34
  51.0675         28
  51.1046         36
  51.1418         27
  51.1789         22
  51.2161         32
  51.2532         30
  51.2904         26
  51.3275         30
  51.3647         34
  51.4018         38
  51.4390         32
  51.4762         33
  51.5133         28
  51.5505         26
  51.5876         25
  51.6248         39
  51.6619         27
  51.6991         28
  51.7362         26
  51.7734         21
  51.8105         34
  51.8477         34
  51.8848         35
  51.9220         27
  51.9591         40
  51.9963         40
  52.0334         43
  52.0706         28
  52.1077         29
  52.1449         30
  52.1820         35
  52.2192         32
  52.2563         22
  52.2935         28
  52.3306         47
  52.3678         35
  52.4049         29
  52.4421         21
  52.4792         37
  52.5164         22
  52.5535         32
  52.5907         24
  52.6278         30
  52.6650         23
  52.7021         25
  52.7393         31
  52.7764         31
  52.8136         31
  52.8507         25
  52.8879         26
  52.9250         40
  52.9622         35
  52.9994         30
  53.0365         33
  53.0737         28
  53.1108         32
  53.1480         31
  53.1851         26
  53.2223         24
  53.2594         19
  53.2966         33
  53.3337         20
  53.3709         30
  53.4080         28
  53.4452         24
  53.4823         27
  53.5195         32
  53.5566         30
  53.5938         29
  53.6309         23
  53.6681         23
  53.7052         21
  53.7424         28
  53.7795         22
  53.8167         27
  53.8538         40
  53.8910         36
  53.9281         36
  53.9653         28
  54.0024         40
  54.0396         39
  54.0767         27
  54.1139         43
  54.1510         46
  54.1882         37
  54.2253         33
  54.2625         30
  54.2996         30
  54.3368         30
  54.3739         23
  54.4111         31
  54.4482         22
  54.4854         29
  54.5225         25
  54.5597         27
  54.5969         25
  54.6340         25
  54.6712         25
  54.7083         24
  54.7455         25
  54.7826         38
  54.8198         25
  54.8569         32
  54.8941         25
  54.9312         30
  54.9684         29
  55.0055         21
  55.0427         37
  55.0798         23
  55.1170         26
  55.1541         25
  55.1913         23
  55.2284         28
  55.2656         24
  55.3027         29
  55.3399         23
  55.3770         29
  55.4142         33
  55.4513         29
  55.4885         26
  55.5256         34
  55.5628         31
  55.5999         32
  55.6371         19
  55.6742         20
  55.7114         22
  55.7485         32
  55.7857         31
  55.8228         26
  55.8600         29
  55.8971         24
  55.9343         34
  55.9714         26
  56.0086         32
  56.0457         31
  56.0829         24
  56.1201         46
  56.1572         37
  56.1944         34
  56.2315         30
  56.2687         34
  56.3058         39
  56.3430         34
  56.3801         31
  56.4173         14
  56.4544         38
  56.4916         31
  56.5287         26
  56.5659         27
  56.6030         34
  56.6402         25
  56.6773         31
  56.7145         28
  56.7516         25
  56.7888         33
  56.8259         26
  56.8631         29
  56.9002         22
  56.9374         32
  56.9745         23
  57.0117         26
  57.0488         21
  57.0860         36
  57.1231         37
  57.1603         39
  57.1974         30
  57.2346         24
  57.2717         26
  57.3089         22
  57.3460         23
  57.3832         28
  57.4203         35
  57.4575         33
  57.4946         32
  57.5318         31
  57.5689         27
  57.6061         20
  57.6433         22
  57.6804         29
  57.7176         34
  57.7547         39
  57.7919         25
  57.8290         26
  57.8662         26
  57.9033         25
  57.9405         27
  57.9776         34
  58.0148         35
  58.0519         20
  58.0891         22
  58.1262         27
  58.1634         27
  58.2005         39
  58.2377         24
  58.2748         40
  58.3120         28
  58.3491         24
  58.3863         32
  58.4234         38
  58.4606         20
  58.4977         31
  58.5349         24
  58.5720         39
  58.6092         31
  58.6463         29
  58.6835         31
  58.7206         39
  58.7578         23
  58.7949         19
  58.8321         27
  58.8692         39
  58.9064         33
  58.9435         31
  58.9807         28
  59.0178         23
  59.0550         22
  59.0921         28
  59.1293         26
  59.1664         19
  59.2036         29
  59.2408         26
  59.2779         23
  59.3151         35
  59.3522         24
  59.3894         18
  59.4265         17
  59.4637         22
  59.5008         30
  59.5380         23
  59.5751         20
  59.6123         31
  59.6494         21
  59.6866         29
  59.7237         21
  59.7609         20
  59.7980         35
  59.8352         26
  59.8723         26
  59.9095         31
  59.9466         20
  59.9838         32
  60.0024         24