File: notebooks/data/xrd_data/ML_20220720_17_SJD_4_LaB6-1min.uxd
; (content of file Y:\Sam\Apurva-07-20-2022\puck2\ML_20220720_17_SJD_0_LaB6-1min.raw)
_FILEVERSION = 3
_SAMPLE = ML_20220720_17_SJD_0_LaB6-1mi
_+SAMPLE =
_SITE = USA
_USER = Administrator
_GONIOMETER_CODE = 20
; Goniometer : D8 theta/2theta, stage : Unknown
_ATTACHMENTS_CODE = 0
_GONIOMETER_RADIUS = 200.5
_FIXED_DIVSLIT = 0.6
_FIXED_SAMPLESLIT = 0
_SOLLER_SLITS = 2
_FIXED_DETSLIT = 9.55
_MONOCHROMATOR = 0
; Incident beam monochromator : None
_SOLLER_SLITS_2 = N
_THIN_FILM = N
_BETA_FILTER = Y
_FIXED_ANTISLIT = 5.89
_ANALYZER_CODE = 0
; Received beam analyzer : None
_DATEMEASURED = "25-Jul-2022 18:18:02"
_WL_UNIT = A
_WL1 = 1.5406
_WL2 = 1.54439
_WL3 = 1.39222
_WLRATIO = 0.5
_ANODE = Cu
_V4_INF_CREATOR = XRDWizard
_V4_INF_CREATOR_VERSION = V2.9.0.22
_V4_INF_WIZARD_VERSION = V2.9.0.22
_V4_INF_WIZARD_ADDINS = V2.9.0.22
_V4_INF_WIZARD_DOCTYPE = XRD
_V4_INF_OSUSER = McQueenLab
_V4_INF_USER = Administrator
_V4_INF_SITE = USA
_V4_INF_SAMPLEID = ML_20220720_17_SJD_0_LaB6-1mi

; Data for range 1
_DRIVE = COUPLED
_STEPTIME = 4.23
_STEPSIZE = 0.0185756
_STEPMODE = C
_START = 5
_THETA = 2.5
_2THETA = 5
_KHI = 0
_PHI = 0
_X = 0
_Y = 0
_Z = 0
_DETECTOR = 5
; Detector type : Unknown
_DETECTORSLIT = unkn
_AUX1 = 0
_AUX2 = 0
_AUX3 = 0
_TIMESTARTED = 15
_TEMP_RATE = -1
_TEMP_DELAY = -1
_KV = 40
_MA = 40
_RANGE_WL = 1.5406
_3DPLANE = 0
_V4_ADDITIONALDETECTOR = 257
_V4_PSD2THETA = 3.4387
_V4_PSDCHANNEL1 = 0
_V4_PSDAPERTURE = 12.68
_V4_PSDTYPE = 5
_V4_PSDFIXED = 0
_V4_COUNTERS_MASK = 4096
_V4_DRIVES_MASK = 0
_V4_ENCODERS_MASK = 0
_2THETACOUNTS = 1
; 2THETA  PSD
   5.0000        104
   5.0372        100
   5.0743        107
   5.1115        102
   5.1486         76
   5.1858         88
   5.2229        117
   5.2601        108
   5.2972         79
   5.3344         82
   5.3715         69
   5.4087        102
   5.4458         90
   5.4830         83
   5.5201         80
   5.5573         98
   5.5944         85
   5.6316         73
   5.6687         69
   5.7059         80
   5.7430         92
   5.7802         74
   5.8173         80
   5.8545         68
   5.8916         81
   5.9288         63
   5.9659         74
   6.0031         72
   6.0402         60
   6.0774         71
   6.1145         71
   6.1517         94
   6.1888         61
   6.2260         72
   6.2631         74
   6.3003         71
   6.3374         79
   6.3746         63
   6.4117         68
   6.4489         68
   6.4860         65
   6.5232         69
   6.5604         62
   6.5975         66
   6.6347         53
   6.6718         66
   6.7090         62
   6.7461         67
   6.7833         70
   6.8204         74
   6.8576         75
   6.8947         70
   6.9319         44
   6.9690         53
   7.0062         52
   7.0433         64
   7.0805         73
   7.1176         74
   7.1548         49
   7.1919         60
   7.2291         56
   7.2662         68
   7.3034         62
   7.3405         59
   7.3777         62
   7.4148         63
   7.4520         67
   7.4891         56
   7.5263         64
   7.5634         63
   7.6006         67
   7.6377         60
   7.6749         58
   7.7120         61
   7.7492         64
   7.7863         68
   7.8235         55
   7.8606         72
   7.8978         75
   7.9349         65
   7.9721         81
   8.0092         74
   8.0464         64
   8.0835         74
   8.1207         53
   8.1579         71
   8.1950         76
   8.2322         73
   8.2693         85
   8.3065         84
   8.3436         48
   8.3808         72
   8.4179         73
   8.4551         79
   8.4922         75
   8.5294         64
   8.5665         59
   8.6037         79
   8.6408         69
   8.6780         64
   8.7151         84
   8.7523         72
   8.7894         67
   8.8266         77
   8.8637         73
   8.9009         83
   8.9380         75
   8.9752         81
   9.0123         78
   9.0495         61
   9.0866         71
   9.1238         81
   9.1609         76
   9.1981         91
   9.2352         82
   9.2724         55
   9.3095         69
   9.3467         84
   9.3838         67
   9.4210         82
   9.4581         61
   9.4953         83
   9.5324         68
   9.5696         79
   9.6067         74
   9.6439         80
   9.6811         88
   9.7182        100
   9.7554         75
   9.7925         95
   9.8297         84
   9.8668         98
   9.9040         94
   9.9411         77
   9.9783         86
  10.0154         86
  10.0526         83
  10.0897         90
  10.1269         93
  10.1640         83
  10.2012         95
  10.2383         81
  10.2755         85
  10.3126         88
  10.3498         95
  10.3869         90
  10.4241         88
  10.4612         94
  10.4984         90
  10.5355         85
  10.5727        101
  10.6098         84
  10.6470         72
  10.6841         85
  10.7213         75
  10.7584         93
  10.7956         74
  10.8327         88
  10.8699         95
  10.9070         83
  10.9442         80
  10.9813         87
  11.0185         89
  11.0556        103
  11.0928         94
  11.1299         92
  11.1671         93
  11.2043         89
  11.2414         95
  11.2786         78
  11.3157         89
  11.3529         93
  11.3900         87
  11.4272         83
  11.4643         83
  11.5015         70
  11.5386         79
  11.5758        105
  11.6129         99
  11.6501         97
  11.6872         99
  11.7244         82
  11.7615         76
  11.7987         88
  11.8358         83
  11.8730        112
  11.9101         91
  11.9473         84
  11.9844         92
  12.0216         72
  12.0587         80
  12.0959         84
  12.1330         92
  12.1702         96
  12.2073         77
  12.2445         82
  12.2816         69
  12.3188         95
  12.3559         91
  12.3931         69
  12.4302         77
  12.4674         82
  12.5045         95
  12.5417         78
  12.5788         74
  12.6160         67
  12.6531         78
  12.6903         92
  12.7274         58
  12.7646         81
  12.8018         70
  12.8389         86
  12.8761         75
  12.9132         90
  12.9504         73
  12.9875         67
  13.0247         83
  13.0618         59
  13.0990         98
  13.1361         57
  13.1733         78
  13.2104         73
  13.2476         75
  13.2847         77
  13.3219         54
  13.3590         68
  13.3962         59
  13.4333         72
  13.4705         72
  13.5076         80
  13.5448         88
  13.5819         67
  13.6191         70
  13.6562         65
  13.6934         69
  13.7305         85
  13.7677         59
  13.8048         84
  13.8420         70
  13.8791         69
  13.9163         73
  13.9534         81
  13.9906         75
  14.0277         57
  14.0649         59
  14.1020         71
  14.1392         64
  14.1763         68
  14.2135         60
  14.2506         61
  14.2878         62
  14.3250         56
  14.3621         79
  14.3993         72
  14.4364         63
  14.4736         65
  14.5107         63
  14.5479         77
  14.5850         66
  14.6222         54
  14.6593         55
  14.6965         70
  14.7336         50
  14.7708         49
  14.8079         60
  14.8451         58
  14.8822         62
  14.9194         75
  14.9565         55
  14.9937         61
  15.0308         58
  15.0680         59
  15.1051         49
  15.1423         64
  15.1794         69
  15.2166         55
  15.2537         55
  15.2909         45
  15.3280         78
  15.3652         50
  15.4023         64
  15.4395         51
  15.4766         55
  15.5138         59
  15.5509         63
  15.5881         45
  15.6252         62
  15.6624         51
  15.6995         65
  15.7367         63
  15.7738         54
  15.8110         60
  15.8482         63
  15.8853         66
  15.9225         66
  15.9596         47
  15.9968         68
  16.0339         49
  16.0711         53
  16.1082         59
  16.1454         59
  16.1825         60
  16.2197         52
  16.2568         59
  16.2940         62
  16.3311         67
  16.3683         65
  16.4054         54
  16.4426         53
  16.4797         72
  16.5169         44
  16.5540         67
  16.5912         72
  16.6283         60
  16.6655         44
  16.7026         70
  16.7398         67
  16.7769         74
  16.8141         70
  16.8512         53
  16.8884         65
  16.9255         57
  16.9627         72
  16.9998         56
  17.0370         48
  17.0741         60
  17.1113         69
  17.1484         63
  17.1856         53
  17.2227         61
  17.2599         59
  17.2970         57
  17.3342         70
  17.3713         60
  17.4085         60
  17.4457         57
  17.4828         70
  17.5200         62
  17.5571         72
  17.5943         53
  17.6314         65
  17.6686         65
  17.7057         63
  17.7429         59
  17.7800         47
  17.8172         70
  17.8543         62
  17.8915         61
  17.9286         57
  17.9658         47
  18.0029         74
  18.0401         56
  18.0772         70
  18.1144         63
  18.1515         52
  18.1887         61
  18.2258         83
  18.2630         60
  18.3001         50
  18.3373         53
  18.3744         61
  18.4116         61
  18.4487         58
  18.4859         54
  18.5230         62
  18.5602         56
  18.5973         53
  18.6345         63
  18.6716         68
  18.7088         53
  18.7459         53
  18.7831         56
  18.8202         71
  18.8574         49
  18.8945         71
  18.9317         59
  18.9689         56
  19.0060         59
  19.0432         69
  19.0803         58
  19.1175         74
  19.1546         49
  19.1918         63
  19.2289         60
  19.2661         61
  19.3032         68
  19.3404         69
  19.3775         72
  19.4147         70
  19.4518         61
  19.4890         71
  19.5261         57
  19.5633         60
  19.6004         67
  19.6376         69
  19.6747         58
  19.7119         54
  19.7490         77
  19.7862         53
  19.8233         66
  19.8605         63
  19.8976         72
  19.9348         58
  19.9719         80
  20.0091         78
  20.0462         72
  20.0834         85
  20.1205         61
  20.1577         67
  20.1948         77
  20.2320         71
  20.2691         59
  20.3063         58
  20.3434         64
  20.3806         69
  20.4177         78
  20.4549         71
  20.4921         66
  20.5292         66
  20.5664         57
  20.6035         61
  20.6407         66
  20.6778         63
  20.7150         51
  20.7521         91
  20.7893         54
  20.8264         67
  20.8636         67
  20.9007         67
  20.9379         74
  20.9750         82
  21.0122         80
  21.0493         62
  21.0865         61
  21.1236         76
  21.1608         77
  21.1979        108
  21.2351        129
  21.2722        107
  21.3094        110
  21.3465        195
  21.3837        161
  21.4208        120
  21.4580         66
  21.4951         72
  21.5323         80
  21.5694         80
  21.6066         59
  21.6437         57
  21.6809         76
  21.7180         63
  21.7552         82
  21.7923         71
  21.8295         57
  21.8666         92
  21.9038         71
  21.9409         90
  21.9781         71
  22.0152         62
  22.0524         81
  22.0896         68
  22.1267         76
  22.1639         76
  22.2010         67
  22.2382         65
  22.2753         62
  22.3125         87
  22.3496         75
  22.3868         80
  22.4239         76
  22.4611         84
  22.4982         71
  22.5354         59
  22.5725         73
  22.6097         75
  22.6468         63
  22.6840         75
  22.7211         78
  22.7583         70
  22.7954         83
  22.8326         84
  22.8697         57
  22.9069         71
  22.9440         76
  22.9812         51
  23.0183         88
  23.0555         71
  23.0926         77
  23.1298         69
  23.1669         66
  23.2041         87
  23.2412         67
  23.2784         74
  23.3155         63
  23.3527         71
  23.3898         70
  23.4270         68
  23.4641         68
  23.5013         79
  23.5384         75
  23.5756         58
  23.6128         80
  23.6499         80
  23.6871         94
  23.7242         67
  23.7614         79
  23.7985         61
  23.8357         65
  23.8728         67
  23.9100         73
  23.9471         73
  23.9843         88
  24.0214         81
  24.0586         71
  24.0957         73
  24.1329         86
  24.1700         87
  24.2072         82
  24.2443         76
  24.2815         74
  24.3186         84
  24.3558         94
  24.3929         81
  24.4301         68
  24.4672         82
  24.5044         78
  24.5415         74
  24.5787         83
  24.6158         59
  24.6530         72
  24.6901         81
  24.7273         71
  24.7644         66
  24.8016         67
  24.8387         68
  24.8759         83
  24.9130         72
  24.9502         73
  24.9873         65
  25.0245         77
  25.0616         75
  25.0988         71
  25.1360         67
  25.1731         81
  25.2103         76
  25.2474         80
  25.2846         74
  25.3217         58
  25.3589         85
  25.3960         66
  25.4332         74
  25.4703         78
  25.5075         66
  25.5446         63
  25.5818         74
  25.6189         63
  25.6561         79
  25.6932         65
  25.7304         68
  25.7675         73
  25.8047         73
  25.8418         71
  25.8790         57
  25.9161         63
  25.9533         60
  25.9904         66
  26.0276         71
  26.0647         85
  26.1019         66
  26.1390         67
  26.1762         61
  26.2133         67
  26.2505         62
  26.2876         67
  26.3248         63
  26.3619         66
  26.3991         68
  26.4362         64
  26.4734         78
  26.5105         75
  26.5477         62
  26.5848         64
  26.6220         71
  26.6591         78
  26.6963         68
  26.7335         57
  26.7706         81
  26.8078         77
  26.8449         68
  26.8821         59
  26.9192         62
  26.9564         79
  26.9935         61
  27.0307         61
  27.0678         68
  27.1050         80
  27.1421         65
  27.1793         96
  27.2164         86
  27.2536         76
  27.2907         72
  27.3279         81
  27.3650         77
  27.4022         73
  27.4393         70
  27.4765         67
  27.5136         71
  27.5508         65
  27.5879         71
  27.6251         55
  27.6622         67
  27.6994         57
  27.7365         57
  27.7737         66
  27.8108         79
  27.8480         61
  27.8851         59
  27.9223         62
  27.9594         62
  27.9966         66
  28.0337         67
  28.0709         64
  28.1080         57
  28.1452         65
  28.1823         62
  28.2195         71
  28.2567         69
  28.2938         54
  28.3310         52
  28.3681         57
  28.4053         63
  28.4424         66
  28.4796         67
  28.5167         55
  28.5539         59
  28.5910         59
  28.6282         46
  28.6653         60
  28.7025         63
  28.7396         68
  28.7768         53
  28.8139         68
  28.8511         59
  28.8882         67
  28.9254         62
  28.9625         56
  28.9997         59
  29.0368         55
  29.0740         69
  29.1111         55
  29.1483         73
  29.1854         55
  29.2226         54
  29.2597         53
  29.2969         52
  29.3340         58
  29.3712         55
  29.4083         51
  29.4455         50
  29.4826         61
  29.5198         55
  29.5569         55
  29.5941         57
  29.6312         61
  29.6684         57
  29.7055         55
  29.7427         60
  29.7799         44
  29.8170         45
  29.8542         69
  29.8913         55
  29.9285         55
  29.9656         45
  30.0028         46
  30.0399         59
  30.0771         43
  30.1142         57
  30.1514         63
  30.1885         65
  30.2257         69
  30.2628         78
  30.3000         70
  30.3371         73
  30.3743        122
  30.4114        105
  30.4486         85
  30.4857         80
  30.5229         63
  30.5600         56
  30.5972         51
  30.6343         72
  30.6715         41
  30.7086         55
  30.7458         44
  30.7829         59
  30.8201         52
  30.8572         49
  30.8944         50
  30.9315         56
  30.9687         47
  31.0058         47
  31.0430         51
  31.0801         47
  31.1173         61
  31.1544         55
  31.1916         51
  31.2287         47
  31.2659         62
  31.3030         45
  31.3402         41
  31.3774         43
  31.4145         37
  31.4517         54
  31.4888         57
  31.5260         47
  31.5631         51
  31.6003         55
  31.6374         49
  31.6746         54
  31.7117         59
  31.7489         43
  31.7860         48
  31.8232         55
  31.8603         49
  31.8975         45
  31.9346         44
  31.9718         52
  32.0089         60
  32.0461         56
  32.0832         51
  32.1204         45
  32.1575         41
  32.1947         50
  32.2318         54
  32.2690         40
  32.3061         67
  32.3433         53
  32.3804         43
  32.4176         53
  32.4547         49
  32.4919         52
  32.5290         57
  32.5662         45
  32.6033         56
  32.6405         44
  32.6776         54
  32.7148         38
  32.7519         60
  32.7891         50
  32.8262         44
  32.8634         48
  32.9006         45
  32.9377         52
  32.9749         51
  33.0120         39
  33.0492         54
  33.0863         44
  33.1235         27
  33.1606         47
  33.1978         44
  33.2349         40
  33.2721         35
  33.3092         45
  33.3464         44
  33.3835         44
  33.4207         48
  33.4578         39
  33.4950         39
  33.5321         43
  33.5693         33
  33.6064         55
  33.6436         56
  33.6807         45
  33.7179         54
  33.7550         38
  33.7922         38
  33.8293         38
  33.8665         38
  33.9036         52
  33.9408         45
  33.9779         39
  34.0151         47
  34.0522         45
  34.0894         47
  34.1265         49
  34.1637         57
  34.2008         45
  34.2380         38
  34.2751         45
  34.3123         45
  34.3494         49
  34.3866         25
  34.4238         24
  34.4609         34
  34.4981         34
  34.5352         48
  34.5724         44
  34.6095         48
  34.6467         50
  34.6838         40
  34.7210         52
  34.7581         60
  34.7953         45
  34.8324         53
  34.8696         56
  34.9067         45
  34.9439         44
  34.9810         48
  35.0182         38
  35.0553         40
  35.0925         32
  35.1296         41
  35.1668         36
  35.2039         30
  35.2411         28
  35.2782         38
  35.3154         29
  35.3525         41
  35.3897         42
  35.4268         43
  35.4640         45
  35.5011         28
  35.5383         40
  35.5754         27
  35.6126         47
  35.6497         32
  35.6869         38
  35.7240         34
  35.7612         38
  35.7983         36
  35.8355         26
  35.8726         29
  35.9098         40
  35.9469         41
  35.9841         44
  36.0213         32
  36.0584         34
  36.0956         31
  36.1327         33
  36.1699         31
  36.2070         33
  36.2442         32
  36.2813         35
  36.3185         34
  36.3556         32
  36.3928         36
  36.4299         32
  36.4671         30
  36.5042         36
  36.5414         40
  36.5785         26
  36.6157         40
  36.6528         42
  36.6900         35
  36.7271         29
  36.7643         42
  36.8014         34
  36.8386         31
  36.8757         33
  36.9129         41
  36.9500         26
  36.9872         43
  37.0243         32
  37.0615         39
  37.0986         34
  37.1358         38
  37.1729         42
  37.2101         48
  37.2472         35
  37.2844         39
  37.3215         33
  37.3587         39
  37.3958         45
  37.4330         45
  37.4701         49
  37.5073         40
  37.5445         44
  37.5816         28
  37.6188         36
  37.6559         33
  37.6931         29
  37.7302         33
  37.7674         38
  37.8045         40
  37.8417         31
  37.8788         40
  37.9160         31
  37.9531         29
  37.9903         31
  38.0274         31
  38.0646         26
  38.1017         37
  38.1389         34
  38.1760         25
  38.2132         39
  38.2503         22
  38.2875         41
  38.3246         35
  38.3618         33
  38.3989         40
  38.4361         26
  38.4732         33
  38.5104         36
  38.5475         32
  38.5847         28
  38.6218         26
  38.6590         24
  38.6961         27
  38.7333         32
  38.7704         36
  38.8076         35
  38.8447         40
  38.8819         36
  38.9190         28
  38.9562         31
  38.9933         33
  39.0305         32
  39.0677         36
  39.1048         41
  39.1420         15
  39.1791         27
  39.2163         23
  39.2534         29
  39.2906         33
  39.3277         25
  39.3649         28
  39.4020         22
  39.4392         30
  39.4763         22
  39.5135         26
  39.5506         29
  39.5878         38
  39.6249         34
  39.6621         22
  39.6992         23
  39.7364         26
  39.7735         34
  39.8107         22
  39.8478         29
  39.8850         23
  39.9221         18
  39.9593         26
  39.9964         40
  40.0336         29
  40.0707         35
  40.1079         33
  40.1450         26
  40.1822         25
  40.2193         32
  40.2565         31
  40.2936         26
  40.3308         26
  40.3679         27
  40.4051         34
  40.4422         34
  40.4794         26
  40.5165         34
  40.5537         24
  40.5908         26
  40.6280         30
  40.6652         28
  40.7023         22
  40.7395         27
  40.7766         27
  40.8138         20
  40.8509         23
  40.8881         33
  40.9252         26
  40.9624         42
  40.9995         30
  41.0367         27
  41.0738         28
  41.1110         28
  41.1481         29
  41.1853         22
  41.2224         34
  41.2596         27
  41.2967         32
  41.3339         27
  41.3710         26
  41.4082         26
  41.4453         30
  41.4825         24
  41.5196         28
  41.5568         29
  41.5939         34
  41.6311         15
  41.6682         30
  41.7054         31
  41.7425         25
  41.7797         17
  41.8168         26
  41.8540         30
  41.8911         27
  41.9283         22
  41.9654         24
  42.0026         20
  42.0397         27
  42.0769         39
  42.1140         24
  42.1512         28
  42.1884         25
  42.2255         31
  42.2627         28
  42.2998         38
  42.3370         30
  42.3741         46
  42.4113         32
  42.4484         31
  42.4856         32
  42.5227         27
  42.5599         24
  42.5970         27
  42.6342         25
  42.6713         20
  42.7085         20
  42.7456         31
  42.7828         27
  42.8199         31
  42.8571         29
  42.8942         31
  42.9314         29
  42.9685         28
  43.0057         21
  43.0428         30
  43.0800         28
  43.1171         30
  43.1543         26
  43.1914         35
  43.2286         32
  43.2657         28
  43.3029         29
  43.3400         28
  43.3772         32
  43.4143         33
  43.4515         40
  43.4886         44
  43.5258         48
  43.5629         28
  43.6001         43
  43.6372         29
  43.6744         22
  43.7116         29
  43.7487         32
  43.7859         37
  43.8230         26
  43.8602         25
  43.8973         21
  43.9345         30
  43.9716         20
  44.0088         28
  44.0459         32
  44.0831         25
  44.1202         31
  44.1574         33
  44.1945         32
  44.2317         23
  44.2688         28
  44.3060         20
  44.3431         34
  44.3803         28
  44.4174         22
  44.4546         36
  44.4917         30
  44.5289         34
  44.5660         30
  44.6032         34
  44.6403         33
  44.6775         19
  44.7146         23
  44.7518         29
  44.7889         27
  44.8261         28
  44.8632         28
  44.9004         32
  44.9375         36
  44.9747         26
  45.0118         23
  45.0490         22
  45.0861         32
  45.1233         33
  45.1604         21
  45.1976         18
  45.2347         15
  45.2719         28
  45.3091         24
  45.3462         30
  45.3834         19
  45.4205         22
  45.4577         18
  45.4948         19
  45.5320         24
  45.5691         24
  45.6063         25
  45.6434         26
  45.6806         24
  45.7177         18
  45.7549         22
  45.7920         17
  45.8292         26
  45.8663         31
  45.9035         25
  45.9406         26
  45.9778         20
  46.0149         29
  46.0521         24
  46.0892         21
  46.1264         23
  46.1635         24
  46.2007         25
  46.2378         37
  46.2750         28
  46.3121         15
  46.3493         21
  46.3864         25
  46.4236         24
  46.4607         36
  46.4979         18
  46.5350         23
  46.5722         22
  46.6093         23
  46.6465         27
  46.6836         15
  46.7208         25
  46.7579         22
  46.7951         31
  46.8323         22
  46.8694         25
  46.9066         23
  46.9437         14
  46.9809         26
  47.0180         30
  47.0552         25
  47.0923         26
  47.1295         25
  47.1666         16
  47.2038         32
  47.2409         21
  47.2781         22
  47.3152         25
  47.3524         24
  47.3895         26
  47.4267         20
  47.4638         15
  47.5010         25
  47.5381         25
  47.5753         27
  47.6124         24
  47.6496         20
  47.6867         27
  47.7239         25
  47.7610         18
  47.7982         18
  47.8353         22
  47.8725         25
  47.9096         27
  47.9468         30
  47.9839         23
  48.0211         25
  48.0582         24
  48.0954         22
  48.1325         26
  48.1697         35
  48.2068         23
  48.2440         22
  48.2811         17
  48.3183         21
  48.3555         26
  48.3926         17
  48.4298         32
  48.4669         24
  48.5041         26
  48.5412         28
  48.5784         21
  48.6155         24
  48.6527         25
  48.6898         19
  48.7270         21
  48.7641         32
  48.8013         26
  48.8384         30
  48.8756         25
  48.9127         32
  48.9499         39
  48.9870         41
  49.0242         29
  49.0613         30
  49.0985         42
  49.1356         21
  49.1728         26
  49.2099         24
  49.2471         25
  49.2842         23
  49.3214         27
  49.3585         23
  49.3957         29
  49.4328         16
  49.4700         25
  49.5071         23
  49.5443         22
  49.5814         14
  49.6186         32
  49.6557         14
  49.6929         22
  49.7300         19
  49.7672         27
  49.8043         23
  49.8415         21
  49.8786         24
  49.9158         20
  49.9530         28
  49.9901         24
  50.0273         25
  50.0644         26
  50.1016         27
  50.1387         26
  50.1759         23
  50.2130         21
  50.2502         19
  50.2873         13
  50.3245         13
  50.3616         19
  50.3988         22
  50.4359         21
  50.4731         23
  50.5102         23
  50.5474         18
  50.5845         23
  50.6217         19
  50.6588         25
  50.6960         16
  50.7331         15
  50.7703         28
  50.8074         19
  50.8446         19
  50.8817         24
  50.9189         26
  50.9560         19
  50.9932         18
  51.0303         17
  51.0675         25
  51.1046         21
  51.1418         29
  51.1789         20
  51.2161         10
  51.2532         29
  51.2904         22
  51.3275         21
  51.3647         31
  51.4018         24
  51.4390         25
  51.4762         28
  51.5133         22
  51.5505         31
  51.5876         26
  51.6248         24
  51.6619         26
  51.6991         22
  51.7362         22
  51.7734         35
  51.8105         30
  51.8477         28
  51.8848         21
  51.9220         28
  51.9591         17
  51.9963         33
  52.0334         25
  52.0706         25
  52.1077         19
  52.1449         20
  52.1820         12
  52.2192         25
  52.2563         18
  52.2935         22
  52.3306         15
  52.3678         20
  52.4049         28
  52.4421         21
  52.4792         24
  52.5164         14
  52.5535         22
  52.5907         13
  52.6278         23
  52.6650         15
  52.7021         23
  52.7393         24
  52.7764         21
  52.8136         28
  52.8507         11
  52.8879         16
  52.9250         24
  52.9622         20
  52.9994         22
  53.0365         21
  53.0737         24
  53.1108         22
  53.1480         28
  53.1851         18
  53.2223         23
  53.2594         26
  53.2966         25
  53.3337         27
  53.3709         15
  53.4080         30
  53.4452         15
  53.4823         21
  53.5195         23
  53.5566         20
  53.5938         17
  53.6309         22
  53.6681         28
  53.7052         19
  53.7424         22
  53.7795         25
  53.8167         22
  53.8538         21
  53.8910         39
  53.9281         23
  53.9653         22
  54.0024         36
  54.0396         32
  54.0767         25
  54.1139         18
  54.1510         25
  54.1882         21
  54.2253         24
  54.2625         17
  54.2996         22
  54.3368         25
  54.3739         22
  54.4111         21
  54.4482         25
  54.4854         18
  54.5225         19
  54.5597         31
  54.5969         23
  54.6340         18
  54.6712         19
  54.7083         21
  54.7455         23
  54.7826         19
  54.8198         20
  54.8569         16
  54.8941         21
  54.9312         13
  54.9684         26
  55.0055         25
  55.0427         23
  55.0798         13
  55.1170         17
  55.1541         22
  55.1913         27
  55.2284         20
  55.2656         20
  55.3027         13
  55.3399         25
  55.3770         18
  55.4142         27
  55.4513         14
  55.4885         25
  55.5256         18
  55.5628         23
  55.5999         22
  55.6371         25
  55.6742         15
  55.7114         25
  55.7485         22
  55.7857         17
  55.8228         23
  55.8600         24
  55.8971         17
  55.9343         16
  55.9714         18
  56.0086         23
  56.0457         15
  56.0829         20
  56.1201         26
  56.1572         17
  56.1944         25
  56.2315         24
  56.2687         23
  56.3058         25
  56.3430         23
  56.3801         25
  56.4173         17
  56.4544         16
  56.4916         21
  56.5287         18
  56.5659         23
  56.6030         23
  56.6402         15
  56.6773         17
  56.7145         22
  56.7516         26
  56.7888         16
  56.8259         18
  56.8631         16
  56.9002         17
  56.9374         19
  56.9745         16
  57.0117         21
  57.0488         22
  57.0860         18
  57.1231         24
  57.1603         18
  57.1974         27
  57.2346         20
  57.2717         16
  57.3089         22
  57.3460         23
  57.3832         30
  57.4203         26
  57.4575         18
  57.4946         17
  57.5318         20
  57.5689         23
  57.6061         21
  57.6433         21
  57.6804         21
  57.7176         20
  57.7547         13
  57.7919         23
  57.8290         18
  57.8662         28
  57.9033         19
  57.9405         24
  57.9776         17
  58.0148         14
  58.0519         20
  58.0891         21
  58.1262         24
  58.1634         24
  58.2005         32
  58.2377         20
  58.2748         17
  58.3120         17
  58.3491         21
  58.3863         26
  58.4234         19
  58.4606         28
  58.4977         26
  58.5349         17
  58.5720         23
  58.6092         23
  58.6463         29
  58.6835         24
  58.7206         23
  58.7578         17
  58.7949         21
  58.8321         20
  58.8692         13
  58.9064         20
  58.9435         16
  58.9807         18
  59.0178         26
  59.0550         25
  59.0921         22
  59.1293         17
  59.1664         20
  59.2036         22
  59.2408         13
  59.2779         14
  59.3151         20
  59.3522         17
  59.3894         13
  59.4265         26
  59.4637         25
  59.5008         18
  59.5380         23
  59.5751         17
  59.6123         21
  59.6494         15
  59.6866         21
  59.7237         28
  59.7609         33
  59.7980         23
  59.8352         24
  59.8723         26
  59.9095         16
  59.9466         14
  59.9838         22
  60.0024         25