File: notebooks/data/xrd_data/ML_20220718_15_SJD_4_LaB6-2min.uxd
; (content of file Y:\Sam\Apurva-07-20-2022\puck4\ML_20220718_15_SJD_0_LaB6-2min.raw)
_FILEVERSION = 3
_SAMPLE = ML_20220718_15_SJD_0_LaB6-2min
_+SAMPLE =
_SITE = USA
_USER = Administrator
_GONIOMETER_CODE = 20
; Goniometer : D8 theta/2theta, stage : Unknown
_ATTACHMENTS_CODE = 0
_GONIOMETER_RADIUS = 200.5
_FIXED_DIVSLIT = 0.6
_FIXED_SAMPLESLIT = 0
_SOLLER_SLITS = 2
_FIXED_DETSLIT = 9.55
_MONOCHROMATOR = 0
; Incident beam monochromator : None
_SOLLER_SLITS_2 = N
_THIN_FILM = N
_BETA_FILTER = Y
_FIXED_ANTISLIT = 5.89
_ANALYZER_CODE = 0
; Received beam analyzer : None
_DATEMEASURED = "26-Jul-2022 09:49:29"
_WL_UNIT = A
_WL1 = 1.5406
_WL2 = 1.54439
_WL3 = 1.39222
_WLRATIO = 0.5
_ANODE = Cu
_V4_INF_CREATOR = XRDWizard
_V4_INF_CREATOR_VERSION = V2.9.0.22
_V4_INF_WIZARD_VERSION = V2.9.0.22
_V4_INF_WIZARD_ADDINS = V2.9.0.22
_V4_INF_WIZARD_DOCTYPE = XRD
_V4_INF_OSUSER = McQueenLab
_V4_INF_USER = Administrator
_V4_INF_SITE = USA
_V4_INF_SAMPLEID = ML_20220718_15_SJD_0_LaB6-2min

; Data for range 1
_DRIVE = COUPLED
_STEPTIME = 5.64
_STEPSIZE = 0.0185756
_STEPMODE = C
_START = 5
_THETA = 2.5
_2THETA = 5
_KHI = 0
_PHI = 0
_X = 0
_Y = 0
_Z = 0
_DETECTOR = 5
; Detector type : Unknown
_DETECTORSLIT = unkn
_AUX1 = 0
_AUX2 = 0
_AUX3 = 0
_TIMESTARTED = 15
_TEMP_RATE = -1
_TEMP_DELAY = -1
_KV = 40
_MA = 40
_RANGE_WL = 1.5406
_3DPLANE = 0
_V4_ADDITIONALDETECTOR = 257
_V4_PSD2THETA = 3.3706
_V4_PSDCHANNEL1 = 0
_V4_PSDAPERTURE = 12.68
_V4_PSDTYPE = 5
_V4_PSDFIXED = 0
_V4_COUNTERS_MASK = 4096
_V4_DRIVES_MASK = 0
_V4_ENCODERS_MASK = 0
_2THETACOUNTS = 1
; 2THETA  PSD
   5.0000        161
   5.0372        134
   5.0743        133
   5.1115        121
   5.1486        153
   5.1858        141
   5.2229        120
   5.2601        114
   5.2972        105
   5.3344        118
   5.3715        116
   5.4087         98
   5.4458        107
   5.4830        110
   5.5201        100
   5.5573         99
   5.5944        106
   5.6316         91
   5.6687         93
   5.7059        111
   5.7430         96
   5.7802         89
   5.8173        122
   5.8545        105
   5.8916        116
   5.9288        102
   5.9659        109
   6.0031         88
   6.0402         87
   6.0774         85
   6.1145         88
   6.1517        103
   6.1888        101
   6.2260         99
   6.2631         99
   6.3003         72
   6.3374         89
   6.3746         96
   6.4117         86
   6.4489         98
   6.4860        102
   6.5232         87
   6.5604        109
   6.5975         96
   6.6347         95
   6.6718         76
   6.7090         92
   6.7461         69
   6.7833         97
   6.8204         88
   6.8576         89
   6.8947         94
   6.9319         82
   6.9690         81
   7.0062         70
   7.0433         85
   7.0805         74
   7.1176         72
   7.1548         88
   7.1919         81
   7.2291         79
   7.2662         77
   7.3034         75
   7.3405         69
   7.3777         77
   7.4148         93
   7.4520         80
   7.4891         70
   7.5263         84
   7.5634        100
   7.6006         84
   7.6377        129
   7.6749         86
   7.7120         82
   7.7492         74
   7.7863         91
   7.8235         88
   7.8606         97
   7.8978         72
   7.9349         87
   7.9721         92
   8.0092         84
   8.0464        114
   8.0835        114
   8.1207        115
   8.1579         83
   8.1950         90
   8.2322         88
   8.2693         86
   8.3065         95
   8.3436         99
   8.3808         89
   8.4179        107
   8.4551        106
   8.4922        113
   8.5294         85
   8.5665         96
   8.6037        106
   8.6408        116
   8.6780         90
   8.7151         92
   8.7523        113
   8.7894         92
   8.8266        114
   8.8637        110
   8.9009         98
   8.9380        106
   8.9752        101
   9.0123        102
   9.0495         90
   9.0866         98
   9.1238        121
   9.1609        107
   9.1981         93
   9.2352         99
   9.2724        111
   9.3095         98
   9.3467        126
   9.3838         90
   9.4210        117
   9.4581         99
   9.4953        129
   9.5324        108
   9.5696        121
   9.6067        100
   9.6439        121
   9.6811        109
   9.7182         97
   9.7554         91
   9.7925        110
   9.8297        105
   9.8668        123
   9.9040        119
   9.9411        121
   9.9783        128
  10.0154        106
  10.0526        124
  10.0897        108
  10.1269        112
  10.1640        127
  10.2012        137
  10.2383        109
  10.2755        118
  10.3126        109
  10.3498        120
  10.3869        106
  10.4241        121
  10.4612        125
  10.4984        113
  10.5355        102
  10.5727        113
  10.6098        124
  10.6470        134
  10.6841        108
  10.7213        116
  10.7584        122
  10.7956        137
  10.8327        120
  10.8699        126
  10.9070        103
  10.9442        126
  10.9813        104
  11.0185        141
  11.0556        111
  11.0928        114
  11.1299        103
  11.1671        113
  11.2043        114
  11.2414        120
  11.2786        102
  11.3157        109
  11.3529        112
  11.3900        119
  11.4272        122
  11.4643        121
  11.5015         98
  11.5386        124
  11.5758        125
  11.6129        116
  11.6501        126
  11.6872        122
  11.7244        124
  11.7615        114
  11.7987        115
  11.8358        124
  11.8730        106
  11.9101        106
  11.9473        124
  11.9844        104
  12.0216        110
  12.0587        108
  12.0959         96
  12.1330        108
  12.1702        121
  12.2073        113
  12.2445        111
  12.2816        110
  12.3188        125
  12.3559        122
  12.3931        121
  12.4302        113
  12.4674         98
  12.5045        113
  12.5417        118
  12.5788        103
  12.6160        111
  12.6531         85
  12.6903        128
  12.7274        102
  12.7646         97
  12.8018         86
  12.8389        106
  12.8761         93
  12.9132        108
  12.9504         88
  12.9875        103
  13.0247        106
  13.0618        100
  13.0990        113
  13.1361        101
  13.1733         96
  13.2104        105
  13.2476        107
  13.2847         88
  13.3219        102
  13.3590         81
  13.3962         81
  13.4333        105
  13.4705         99
  13.5076         84
  13.5448         98
  13.5819         82
  13.6191         90
  13.6562        119
  13.6934        103
  13.7305        119
  13.7677         97
  13.8048        117
  13.8420         82
  13.8791        101
  13.9163         90
  13.9534         90
  13.9906         83
  14.0277         91
  14.0649         96
  14.1020         87
  14.1392         82
  14.1763         85
  14.2135         87
  14.2506        102
  14.2878         74
  14.3250        106
  14.3621         91
  14.3993         82
  14.4364         96
  14.4736         94
  14.5107         96
  14.5479         82
  14.5850         93
  14.6222        109
  14.6593         81
  14.6965         71
  14.7336         98
  14.7708         71
  14.8079         78
  14.8451         79
  14.8822         94
  14.9194         75
  14.9565         87
  14.9937         88
  15.0308         79
  15.0680         84
  15.1051         80
  15.1423         65
  15.1794         87
  15.2166         93
  15.2537         75
  15.2909         72
  15.3280         85
  15.3652         81
  15.4023         78
  15.4395         77
  15.4766         72
  15.5138         87
  15.5509         71
  15.5881         72
  15.6252         79
  15.6624         71
  15.6995         89
  15.7367         87
  15.7738         88
  15.8110         85
  15.8482         76
  15.8853         88
  15.9225         78
  15.9596         91
  15.9968         64
  16.0339         88
  16.0711         79
  16.1082         83
  16.1454         75
  16.1825         77
  16.2197         74
  16.2568         78
  16.2940         90
  16.3311         79
  16.3683         74
  16.4054         82
  16.4426         81
  16.4797         77
  16.5169        108
  16.5540         73
  16.5912         82
  16.6283         88
  16.6655         86
  16.7026         90
  16.7398         78
  16.7769         70
  16.8141         85
  16.8512         77
  16.8884         99
  16.9255         92
  16.9627         99
  16.9998         78
  17.0370         81
  17.0741         79
  17.1113         77
  17.1484         84
  17.1856         66
  17.2227         79
  17.2599         79
  17.2970        102
  17.3342         89
  17.3713         83
  17.4085         81
  17.4457         87
  17.4828        103
  17.5200         94
  17.5571        103
  17.5943         75
  17.6314         76
  17.6686         88
  17.7057         84
  17.7429         85
  17.7800         96
  17.8172         80
  17.8543         89
  17.8915         68
  17.9286         89
  17.9658         84
  18.0029         89
  18.0401         84
  18.0772         74
  18.1144        100
  18.1515         82
  18.1887         78
  18.2258         69
  18.2630         87
  18.3001         85
  18.3373         68
  18.3744         87
  18.4116         81
  18.4487         87
  18.4859         83
  18.5230         80
  18.5602         90
  18.5973         71
  18.6345         78
  18.6716         80
  18.7088         96
  18.7459         74
  18.7831         79
  18.8202         75
  18.8574         89
  18.8945         86
  18.9317         90
  18.9689         84
  19.0060         63
  19.0432         82
  19.0803         88
  19.1175         86
  19.1546         81
  19.1918         80
  19.2289         96
  19.2661         85
  19.3032         90
  19.3404         85
  19.3775         82
  19.4147         83
  19.4518         81
  19.4890         94
  19.5261         86
  19.5633         91
  19.6004         82
  19.6376         86
  19.6747         81
  19.7119         88
  19.7490         74
  19.7862         99
  19.8233         75
  19.8605         89
  19.8976         80
  19.9348         93
  19.9719         93
  20.0091         76
  20.0462         82
  20.0834         74
  20.1205         86
  20.1577         96
  20.1948         85
  20.2320         92
  20.2691         99
  20.3063         92
  20.3434         95
  20.3806         96
  20.4177         91
  20.4549         89
  20.4921         97
  20.5292         89
  20.5664         88
  20.6035         82
  20.6407        105
  20.6778         87
  20.7150         92
  20.7521         93
  20.7893         86
  20.8264         78
  20.8636         92
  20.9007         93
  20.9379        104
  20.9750        100
  21.0122         91
  21.0493         84
  21.0865         82
  21.1236        106
  21.1608        118
  21.1979        135
  21.2351        152
  21.2722        154
  21.3094        169
  21.3465        228
  21.3837        197
  21.4208        165
  21.4580        119
  21.4951         89
  21.5323         78
  21.5694         97
  21.6066        106
  21.6437        104
  21.6809        107
  21.7180         79
  21.7552        109
  21.7923         83
  21.8295        115
  21.8666        101
  21.9038         95
  21.9409        110
  21.9781        122
  22.0152        117
  22.0524         94
  22.0896        119
  22.1267         90
  22.1639        105
  22.2010        101
  22.2382         93
  22.2753        108
  22.3125         88
  22.3496        101
  22.3868         90
  22.4239         96
  22.4611        112
  22.4982         99
  22.5354         89
  22.5725        105
  22.6097        102
  22.6468         88
  22.6840         98
  22.7211        101
  22.7583        104
  22.7954        122
  22.8326         91
  22.8697        100
  22.9069        102
  22.9440        113
  22.9812         86
  23.0183        127
  23.0555        109
  23.0926        101
  23.1298         95
  23.1669         96
  23.2041         81
  23.2412        102
  23.2784         97
  23.3155         99
  23.3527         97
  23.3898         97
  23.4270        101
  23.4641         91
  23.5013         84
  23.5384        109
  23.5756        106
  23.6128         88
  23.6499        102
  23.6871        113
  23.7242         95
  23.7614         99
  23.7985        100
  23.8357        106
  23.8728         99
  23.9100         90
  23.9471         89
  23.9843        100
  24.0214         99
  24.0586         97
  24.0957         93
  24.1329        101
  24.1700        101
  24.2072        105
  24.2443        120
  24.2815        111
  24.3186        102
  24.3558        107
  24.3929        113
  24.4301         95
  24.4672        109
  24.5044        118
  24.5415        103
  24.5787         90
  24.6158        105
  24.6530         89
  24.6901        111
  24.7273         95
  24.7644        100
  24.8016         99
  24.8387         91
  24.8759        108
  24.9130        100
  24.9502        102
  24.9873        112
  25.0245        105
  25.0616        101
  25.0988        103
  25.1360         99
  25.1731         99
  25.2103        107
  25.2474        105
  25.2846        105
  25.3217         99
  25.3589         90
  25.3960        109
  25.4332         90
  25.4703        101
  25.5075        102
  25.5446         98
  25.5818        118
  25.6189        103
  25.6561        105
  25.6932         89
  25.7304        103
  25.7675        105
  25.8047         87
  25.8418         93
  25.8790        109
  25.9161         95
  25.9533        111
  25.9904        110
  26.0276         92
  26.0647        117
  26.1019         95
  26.1390         91
  26.1762        107
  26.2133         95
  26.2505         88
  26.2876         90
  26.3248        105
  26.3619        104
  26.3991         97
  26.4362        100
  26.4734        101
  26.5105         74
  26.5477         89
  26.5848        101
  26.6220         90
  26.6591         97
  26.6963         79
  26.7335         90
  26.7706         96
  26.8078        102
  26.8449         96
  26.8821         77
  26.9192         91
  26.9564         88
  26.9935        100
  27.0307        101
  27.0678        102
  27.1050         79
  27.1421         93
  27.1793        130
  27.2164        106
  27.2536        130
  27.2907         99
  27.3279         89
  27.3650         94
  27.4022        112
  27.4393         89
  27.4765         83
  27.5136         95
  27.5508         83
  27.5879         94
  27.6251         65
  27.6622         83
  27.6994         86
  27.7365         77
  27.7737         87
  27.8108         80
  27.8480         68
  27.8851         87
  27.9223         93
  27.9594         87
  27.9966         86
  28.0337         88
  28.0709         88
  28.1080         75
  28.1452         65
  28.1823         80
  28.2195         85
  28.2567         82
  28.2938         72
  28.3310         68
  28.3681         77
  28.4053         92
  28.4424         99
  28.4796         86
  28.5167         81
  28.5539         93
  28.5910        108
  28.6282        107
  28.6653         82
  28.7025        101
  28.7396        105
  28.7768         90
  28.8139         74
  28.8511         71
  28.8882        103
  28.9254         86
  28.9625         82
  28.9997         73
  29.0368         78
  29.0740         67
  29.1111         79
  29.1483         86
  29.1854         84
  29.2226         69
  29.2597         75
  29.2969         85
  29.3340         74
  29.3712         79
  29.4083         64
  29.4455         75
  29.4826         68
  29.5198         58
  29.5569         68
  29.5941         65
  29.6312         75
  29.6684         63
  29.7055         68
  29.7427         77
  29.7799         75
  29.8170         68
  29.8542         73
  29.8913         75
  29.9285         69
  29.9656         93
  30.0028         75
  30.0399         77
  30.0771         62
  30.1142         72
  30.1514         86
  30.1885         73
  30.2257         94
  30.2628         70
  30.3000         96
  30.3371         99
  30.3743        172
  30.4114        122
  30.4486        140
  30.4857        105
  30.5229        109
  30.5600         96
  30.5972         81
  30.6343         56
  30.6715         65
  30.7086         88
  30.7458         59
  30.7829         77
  30.8201         65
  30.8572         66
  30.8944         81
  30.9315         84
  30.9687         73
  31.0058         67
  31.0430         59
  31.0801         75
  31.1173         81
  31.1544         69
  31.1916         58
  31.2287         68
  31.2659         74
  31.3030         81
  31.3402         61
  31.3774         69
  31.4145         70
  31.4517         71
  31.4888         75
  31.5260         72
  31.5631         65
  31.6003         72
  31.6374         61
  31.6746         80
  31.7117         76
  31.7489         63
  31.7860         68
  31.8232         67
  31.8603         56
  31.8975         60
  31.9346         69
  31.9718         76
  32.0089         73
  32.0461         72
  32.0832         77
  32.1204         51
  32.1575         64
  32.1947         71
  32.2318         63
  32.2690         66
  32.3061         70
  32.3433         76
  32.3804         73
  32.4176         62
  32.4547         68
  32.4919         79
  32.5290         59
  32.5662         58
  32.6033         68
  32.6405         68
  32.6776         60
  32.7148         66
  32.7519         60
  32.7891         51
  32.8262         73
  32.8634         51
  32.9006         67
  32.9377         53
  32.9749         65
  33.0120         61
  33.0492         51
  33.0863         60
  33.1235         51
  33.1606         75
  33.1978         46
  33.2349         54
  33.2721         55
  33.3092         57
  33.3464         62
  33.3835         63
  33.4207         55
  33.4578         47
  33.4950         67
  33.5321         52
  33.5693         65
  33.6064         59
  33.6436         61
  33.6807         62
  33.7179         56
  33.7550         57
  33.7922         71
  33.8293         63
  33.8665         52
  33.9036         49
  33.9408         60
  33.9779         69
  34.0151         52
  34.0522         51
  34.0894         61
  34.1265         67
  34.1637         55
  34.2008         77
  34.2380         47
  34.2751         52
  34.3123         50
  34.3494         67
  34.3866         52
  34.4238         61
  34.4609         63
  34.4981         68
  34.5352         72
  34.5724         58
  34.6095         50
  34.6467         54
  34.6838         85
  34.7210         61
  34.7581         87
  34.7953         78
  34.8324         69
  34.8696         71
  34.9067         62
  34.9439         61
  34.9810         64
  35.0182         55
  35.0553         39
  35.0925         56
  35.1296         66
  35.1668         43
  35.2039         49
  35.2411         64
  35.2782         45
  35.3154         54
  35.3525         59
  35.3897         52
  35.4268         57
  35.4640         46
  35.5011         48
  35.5383         47
  35.5754         35
  35.6126         41
  35.6497         46
  35.6869         50
  35.7240         50
  35.7612         54
  35.7983         43
  35.8355         46
  35.8726         54
  35.9098         48
  35.9469         56
  35.9841         45
  36.0213         49
  36.0584         41
  36.0956         57
  36.1327         55
  36.1699         50
  36.2070         45
  36.2442         45
  36.2813         46
  36.3185         52
  36.3556         58
  36.3928         47
  36.4299         46
  36.4671         44
  36.5042         45
  36.5414         56
  36.5785         50
  36.6157         40
  36.6528         43
  36.6900         44
  36.7271         42
  36.7643         45
  36.8014         57
  36.8386         47
  36.8757         62
  36.9129         51
  36.9500         43
  36.9872         43
  37.0243         48
  37.0615         45
  37.0986         44
  37.1358         42
  37.1729         38
  37.2101         61
  37.2472         38
  37.2844         30
  37.3215         44
  37.3587         58
  37.3958         60
  37.4330         84
  37.4701         63
  37.5073         59
  37.5445         52
  37.5816         55
  37.6188         50
  37.6559         30
  37.6931         63
  37.7302         47
  37.7674         39
  37.8045         48
  37.8417         44
  37.8788         50
  37.9160         49
  37.9531         41
  37.9903         40
  38.0274         43
  38.0646         39
  38.1017         46
  38.1389         40
  38.1760         45
  38.2132         32
  38.2503         45
  38.2875         46
  38.3246         49
  38.3618         42
  38.3989         38
  38.4361         42
  38.4732         39
  38.5104         32
  38.5475         40
  38.5847         43
  38.6218         41
  38.6590         42
  38.6961         41
  38.7333         24
  38.7704         42
  38.8076         41
  38.8447         29
  38.8819         33
  38.9190         38
  38.9562         28
  38.9933         43
  39.0305         40
  39.0677         39
  39.1048         41
  39.1420         49
  39.1791         47
  39.2163         41
  39.2534         40
  39.2906         44
  39.3277         51
  39.3649         45
  39.4020         30
  39.4392         42
  39.4763         38
  39.5135         40
  39.5506         30
  39.5878         35
  39.6249         48
  39.6621         42
  39.6992         49
  39.7364         43
  39.7735         40
  39.8107         46
  39.8478         29
  39.8850         41
  39.9221         33
  39.9593         52
  39.9964         32
  40.0336         50
  40.0707         36
  40.1079         34
  40.1450         48
  40.1822         44
  40.2193         44
  40.2565         34
  40.2936         41
  40.3308         37
  40.3679         47
  40.4051         40
  40.4422         38
  40.4794         31
  40.5165         38
  40.5537         46
  40.5908         34
  40.6280         32
  40.6652         38
  40.7023         36
  40.7395         36
  40.7766         43
  40.8138         37
  40.8509         40
  40.8881         34
  40.9252         44
  40.9624         33
  40.9995         34
  41.0367         47
  41.0738         48
  41.1110         38
  41.1481         42
  41.1853         36
  41.2224         37
  41.2596         46
  41.2967         42
  41.3339         37
  41.3710         35
  41.4082         33
  41.4453         36
  41.4825         43
  41.5196         41
  41.5568         37
  41.5939         24
  41.6311         37
  41.6682         33
  41.7054         27
  41.7425         34
  41.7797         37
  41.8168         30
  41.8540         37
  41.8911         44
  41.9283         27
  41.9654         25
  42.0026         35
  42.0397         32
  42.0769         39
  42.1140         26
  42.1512         31
  42.1884         42
  42.2255         41
  42.2627         42
  42.2998         44
  42.3370         36
  42.3741         50
  42.4113         39
  42.4484         32
  42.4856         37
  42.5227         43
  42.5599         27
  42.5970         41
  42.6342         50
  42.6713         39
  42.7085         34
  42.7456         35
  42.7828         35
  42.8199         28
  42.8571         37
  42.8942         41
  42.9314         36
  42.9685         43
  43.0057         35
  43.0428         36
  43.0800         26
  43.1171         40
  43.1543         33
  43.1914         45
  43.2286         52
  43.2657         53
  43.3029         34
  43.3400         43
  43.3772         45
  43.4143         33
  43.4515         41
  43.4886         51
  43.5258         54
  43.5629         38
  43.6001         58
  43.6372         45
  43.6744         35
  43.7116         36
  43.7487         34
  43.7859         32
  43.8230         33
  43.8602         39
  43.8973         42
  43.9345         32
  43.9716         33
  44.0088         43
  44.0459         31
  44.0831         25
  44.1202         46
  44.1574         35
  44.1945         47
  44.2317         29
  44.2688         28
  44.3060         42
  44.3431         44
  44.3803         30
  44.4174         44
  44.4546         43
  44.4917         49
  44.5289         25
  44.5660         42
  44.6032         45
  44.6403         38
  44.6775         38
  44.7146         32
  44.7518         43
  44.7889         30
  44.8261         44
  44.8632         30
  44.9004         38
  44.9375         37
  44.9747         32
  45.0118         25
  45.0490         32
  45.0861         41
  45.1233         32
  45.1604         31
  45.1976         32
  45.2347         34
  45.2719         30
  45.3091         32
  45.3462         28
  45.3834         29
  45.4205         38
  45.4577         34
  45.4948         37
  45.5320         40
  45.5691         35
  45.6063         29
  45.6434         26
  45.6806         34
  45.7177         35
  45.7549         41
  45.7920         29
  45.8292         32
  45.8663         31
  45.9035         28
  45.9406         30
  45.9778         32
  46.0149         23
  46.0521         29
  46.0892         35
  46.1264         29
  46.1635         28
  46.2007         34
  46.2378         19
  46.2750         27
  46.3121         37
  46.3493         29
  46.3864         23
  46.4236         37
  46.4607         41
  46.4979         36
  46.5350         32
  46.5722         41
  46.6093         28
  46.6465         34
  46.6836         32
  46.7208         29
  46.7579         29
  46.7951         37
  46.8323         25
  46.8694         36
  46.9066         42
  46.9437         29
  46.9809         34
  47.0180         30
  47.0552         30
  47.0923         36
  47.1295         49
  47.1666         34
  47.2038         35
  47.2409         43
  47.2781         32
  47.3152         33
  47.3524         31
  47.3895         40
  47.4267         36
  47.4638         36
  47.5010         34
  47.5381         43
  47.5753         32
  47.6124         32
  47.6496         31
  47.6867         36
  47.7239         40
  47.7610         34
  47.7982         30
  47.8353         26
  47.8725         24
  47.9096         38
  47.9468         35
  47.9839         26
  48.0211         23
  48.0582         25
  48.0954         32
  48.1325         30
  48.1697         21
  48.2068         29
  48.2440         24
  48.2811         29
  48.3183         34
  48.3555         32
  48.3926         25
  48.4298         27
  48.4669         35
  48.5041         34
  48.5412         34
  48.5784         34
  48.6155         20
  48.6527         42
  48.6898         24
  48.7270         20
  48.7641         33
  48.8013         44
  48.8384         30
  48.8756         41
  48.9127         39
  48.9499         56
  48.9870         53
  49.0242         31
  49.0613         42
  49.0985         56
  49.1356         34
  49.1728         25
  49.2099         35
  49.2471         25
  49.2842         31
  49.3214         31
  49.3585         30
  49.3957         28
  49.4328         37
  49.4700         24
  49.5071         27
  49.5443         38
  49.5814         28
  49.6186         28
  49.6557         33
  49.6929         30
  49.7300         40
  49.7672         32
  49.8043         33
  49.8415         40
  49.8786         33
  49.9158         40
  49.9530         46
  49.9901         26
  50.0273         33
  50.0644         26
  50.1016         34
  50.1387         29
  50.1759         29
  50.2130         35
  50.2502         20
  50.2873         34
  50.3245         41
  50.3616         38
  50.3988         27
  50.4359         22
  50.4731         28
  50.5102         33
  50.5474         36
  50.5845         29
  50.6217         28
  50.6588         25
  50.6960         31
  50.7331         39
  50.7703         38
  50.8074         26
  50.8446         34
  50.8817         34
  50.9189         24
  50.9560         32
  50.9932         38
  51.0303         33
  51.0675         28
  51.1046         28
  51.1418         33
  51.1789         34
  51.2161         34
  51.2532         28
  51.2904         27
  51.3275         28
  51.3647         29
  51.4018         39
  51.4390         29
  51.4762         31
  51.5133         26
  51.5505         31
  51.5876         29
  51.6248         34
  51.6619         30
  51.6991         36
  51.7362         26
  51.7734         45
  51.8105         39
  51.8477         49
  51.8848         21
  51.9220         46
  51.9591         40
  51.9963         28
  52.0334         36
  52.0706         29
  52.1077         32
  52.1449         28
  52.1820         31
  52.2192         32
  52.2563         21
  52.2935         26
  52.3306         29
  52.3678         34
  52.4049         23
  52.4421         37
  52.4792         24
  52.5164         21
  52.5535         30
  52.5907         28
  52.6278         33
  52.6650         35
  52.7021         32
  52.7393         28
  52.7764         22
  52.8136         34
  52.8507         27
  52.8879         32
  52.9250         25
  52.9622         20
  52.9994         28
  53.0365         37
  53.0737         26
  53.1108         29
  53.1480         28
  53.1851         26
  53.2223         30
  53.2594         15
  53.2966         25
  53.3337         24
  53.3709         22
  53.4080         32
  53.4452         28
  53.4823         34
  53.5195         16
  53.5566         36
  53.5938         33
  53.6309         32
  53.6681         27
  53.7052         14
  53.7424         30
  53.7795         41
  53.8167         28
  53.8538         35
  53.8910         31
  53.9281         19
  53.9653         38
  54.0024         45
  54.0396         40
  54.0767         39
  54.1139         33
  54.1510         49
  54.1882         33
  54.2253         28
  54.2625         23
  54.2996         32
  54.3368         29
  54.3739         23
  54.4111         39
  54.4482         19
  54.4854         40
  54.5225         38
  54.5597         19
  54.5969         31
  54.6340         20
  54.6712         31
  54.7083         25
  54.7455         29
  54.7826         24
  54.8198         23
  54.8569         26
  54.8941         34
  54.9312         28
  54.9684         20
  55.0055         33
  55.0427         31
  55.0798         26
  55.1170         35
  55.1541         26
  55.1913         28
  55.2284         31
  55.2656         23
  55.3027         29
  55.3399         30
  55.3770         27
  55.4142         24
  55.4513         23
  55.4885         28
  55.5256         37
  55.5628         29
  55.5999         29
  55.6371         31
  55.6742         25
  55.7114         25
  55.7485         23
  55.7857         22
  55.8228         26
  55.8600         30
  55.8971         28
  55.9343         29
  55.9714         31
  56.0086         33
  56.0457         24
  56.0829         29
  56.1201         23
  56.1572         19
  56.1944         35
  56.2315         41
  56.2687         39
  56.3058         28
  56.3430         32
  56.3801         30
  56.4173         27
  56.4544         39
  56.4916         26
  56.5287         29
  56.5659         24
  56.6030         34
  56.6402         35
  56.6773         30
  56.7145         26
  56.7516         27
  56.7888         27
  56.8259         23
  56.8631         31
  56.9002         30
  56.9374         31
  56.9745         33
  57.0117         27
  57.0488         26
  57.0860         32
  57.1231         38
  57.1603         21
  57.1974         22
  57.2346         37
  57.2717         26
  57.3089         31
  57.3460         23
  57.3832         24
  57.4203         24
  57.4575         23
  57.4946         28
  57.5318         28
  57.5689         33
  57.6061         27
  57.6433         28
  57.6804         31
  57.7176         28
  57.7547         28
  57.7919         24
  57.8290         29
  57.8662         25
  57.9033         34
  57.9405         21
  57.9776         19
  58.0148         30
  58.0519         21
  58.0891         18
  58.1262         25
  58.1634         28
  58.2005         26
  58.2377         21
  58.2748         24
  58.3120         30
  58.3491         24
  58.3863         27
  58.4234         32
  58.4606         32
  58.4977         27
  58.5349         26
  58.5720         23
  58.6092         27
  58.6463         29
  58.6835         27
  58.7206         37
  58.7578         27
  58.7949         27
  58.8321         30
  58.8692         28
  58.9064         23
  58.9435         29
  58.9807         16
  59.0178         26
  59.0550         17
  59.0921         27
  59.1293         28
  59.1664         22
  59.2036         24
  59.2408         37
  59.2779         23
  59.3151         33
  59.3522         27
  59.3894         31
  59.4265         26
  59.4637         31
  59.5008         24
  59.5380         23
  59.5751         29
  59.6123         24
  59.6494         18
  59.6866         28
  59.7237         32
  59.7609         21
  59.7980         14
  59.8352         32
  59.8723         22
  59.9095         30
  59.9466         23
  59.9838         27
  60.0024         28