File: notebooks/data/xrd_data/ML_20220720_27_SJD_4_LaB6-1min.uxd
; (content of file Y:\Sam\Apurva-07-20-2022\puck2\ML_20220720_27_SJD_0_LaB6-1min.raw)
_FILEVERSION = 3
_SAMPLE = ML_20220720_27_SJD_0_LaB6-1min
_+SAMPLE =
_SITE = USA
_USER = Administrator
_GONIOMETER_CODE = 20
; Goniometer : D8 theta/2theta, stage : Unknown
_ATTACHMENTS_CODE = 0
_GONIOMETER_RADIUS = 200.5
_FIXED_DIVSLIT = 0.6
_FIXED_SAMPLESLIT = 0
_SOLLER_SLITS = 2
_FIXED_DETSLIT = 9.55
_MONOCHROMATOR = 0
; Incident beam monochromator : None
_SOLLER_SLITS_2 = N
_THIN_FILM = N
_BETA_FILTER = Y
_FIXED_ANTISLIT = 5.89
_ANALYZER_CODE = 0
; Received beam analyzer : None
_DATEMEASURED = "25-Jul-2022 18:36:47"
_WL_UNIT = A
_WL1 = 1.5406
_WL2 = 1.54439
_WL3 = 1.39222
_WLRATIO = 0.5
_ANODE = Cu
_V4_INF_CREATOR = XRDWizard
_V4_INF_CREATOR_VERSION = V2.9.0.22
_V4_INF_WIZARD_VERSION = V2.9.0.22
_V4_INF_WIZARD_ADDINS = V2.9.0.22
_V4_INF_WIZARD_DOCTYPE = XRD
_V4_INF_OSUSER = McQueenLab
_V4_INF_USER = Administrator
_V4_INF_SITE = USA
_V4_INF_SAMPLEID = ML_20220720_27_SJD_0_LaB6-1min

; Data for range 1
_DRIVE = COUPLED
_STEPTIME = 4.23
_STEPSIZE = 0.0185756
_STEPMODE = C
_START = 5
_THETA = 2.5
_2THETA = 5
_KHI = 0
_PHI = 0
_X = 0
_Y = 0
_Z = 0
_DETECTOR = 5
; Detector type : Unknown
_DETECTORSLIT = unkn
_AUX1 = 0
_AUX2 = 0
_AUX3 = 0
_TIMESTARTED = 16
_TEMP_RATE = -1
_TEMP_DELAY = -1
_KV = 40
_MA = 40
_RANGE_WL = 1.5406
_3DPLANE = 0
_V4_ADDITIONALDETECTOR = 257
_V4_PSD2THETA = 3.4374
_V4_PSDCHANNEL1 = 0
_V4_PSDAPERTURE = 12.68
_V4_PSDTYPE = 5
_V4_PSDFIXED = 0
_V4_COUNTERS_MASK = 4096
_V4_DRIVES_MASK = 0
_V4_ENCODERS_MASK = 0
_2THETACOUNTS = 1
; 2THETA  PSD
   5.0000         75
   5.0372        104
   5.0743         92
   5.1115         99
   5.1486         88
   5.1858         87
   5.2229         94
   5.2601         96
   5.2972        100
   5.3344         78
   5.3715         76
   5.4087         86
   5.4458         73
   5.4830         87
   5.5201         90
   5.5573         87
   5.5944         94
   5.6316         96
   5.6687         91
   5.7059         74
   5.7430         77
   5.7802         68
   5.8173         78
   5.8545         71
   5.8916         73
   5.9288         80
   5.9659         80
   6.0031         81
   6.0402         68
   6.0774         87
   6.1145         65
   6.1517         82
   6.1888         59
   6.2260         73
   6.2631         68
   6.3003         74
   6.3374         68
   6.3746         78
   6.4117         76
   6.4489         67
   6.4860         63
   6.5232         88
   6.5604         62
   6.5975         60
   6.6347         60
   6.6718         53
   6.7090         55
   6.7461         72
   6.7833         72
   6.8204         61
   6.8576         64
   6.8947         55
   6.9319         68
   6.9690         53
   7.0062         52
   7.0433         60
   7.0805         64
   7.1176         45
   7.1548         70
   7.1919         60
   7.2291         56
   7.2662         63
   7.3034         64
   7.3405         52
   7.3777         49
   7.4148         55
   7.4520         65
   7.4891         48
   7.5263         55
   7.5634         63
   7.6006         60
   7.6377         69
   7.6749         73
   7.7120         73
   7.7492         65
   7.7863         67
   7.8235         84
   7.8606         62
   7.8978         65
   7.9349         61
   7.9721         82
   8.0092         70
   8.0464         71
   8.0835         69
   8.1207         82
   8.1579         67
   8.1950         80
   8.2322         70
   8.2693         74
   8.3065         85
   8.3436         66
   8.3808         83
   8.4179         76
   8.4551         94
   8.4922         79
   8.5294         63
   8.5665         64
   8.6037         85
   8.6408         78
   8.6780         75
   8.7151         68
   8.7523         92
   8.7894         84
   8.8266         79
   8.8637         81
   8.9009         80
   8.9380         69
   8.9752         59
   9.0123         78
   9.0495         76
   9.0866         86
   9.1238         80
   9.1609         73
   9.1981         61
   9.2352         95
   9.2724         91
   9.3095         95
   9.3467         88
   9.3838         88
   9.4210         98
   9.4581        109
   9.4953         73
   9.5324         90
   9.5696         71
   9.6067         83
   9.6439         77
   9.6811         76
   9.7182         81
   9.7554         86
   9.7925         69
   9.8297         95
   9.8668         94
   9.9040         88
   9.9411         91
   9.9783         79
  10.0154         97
  10.0526         88
  10.0897         80
  10.1269         82
  10.1640         91
  10.2012         96
  10.2383         79
  10.2755         81
  10.3126         92
  10.3498         82
  10.3869         74
  10.4241         83
  10.4612        100
  10.4984         80
  10.5355         88
  10.5727         81
  10.6098         99
  10.6470         87
  10.6841         91
  10.7213         84
  10.7584         95
  10.7956         97
  10.8327         91
  10.8699         92
  10.9070         89
  10.9442         75
  10.9813         79
  11.0185         86
  11.0556         87
  11.0928         85
  11.1299         79
  11.1671         82
  11.2043         88
  11.2414        101
  11.2786         90
  11.3157         84
  11.3529         85
  11.3900         73
  11.4272         91
  11.4643         92
  11.5015         79
  11.5386        101
  11.5758        108
  11.6129         92
  11.6501         94
  11.6872         98
  11.7244         76
  11.7615         79
  11.7987         82
  11.8358         89
  11.8730         77
  11.9101         85
  11.9473         75
  11.9844         98
  12.0216         75
  12.0587         92
  12.0959         93
  12.1330         82
  12.1702         85
  12.2073         76
  12.2445         75
  12.2816         86
  12.3188         90
  12.3559         67
  12.3931         94
  12.4302         76
  12.4674         74
  12.5045         80
  12.5417         82
  12.5788         75
  12.6160         74
  12.6531         67
  12.6903         84
  12.7274         67
  12.7646         71
  12.8018         79
  12.8389         90
  12.8761         67
  12.9132         77
  12.9504         89
  12.9875         73
  13.0247         65
  13.0618         61
  13.0990         82
  13.1361         75
  13.1733         62
  13.2104         93
  13.2476         73
  13.2847         72
  13.3219         69
  13.3590         85
  13.3962         67
  13.4333         69
  13.4705         79
  13.5076         65
  13.5448         82
  13.5819         68
  13.6191         83
  13.6562         66
  13.6934         62
  13.7305         70
  13.7677         56
  13.8048         65
  13.8420         68
  13.8791         67
  13.9163         65
  13.9534         73
  13.9906         63
  14.0277         52
  14.0649         59
  14.1020         61
  14.1392         69
  14.1763         65
  14.2135         64
  14.2506         65
  14.2878         76
  14.3250         68
  14.3621         64
  14.3993         67
  14.4364         69
  14.4736         65
  14.5107         62
  14.5479         73
  14.5850         60
  14.6222         66
  14.6593         50
  14.6965         50
  14.7336         67
  14.7708         58
  14.8079         56
  14.8451         69
  14.8822         51
  14.9194         51
  14.9565         69
  14.9937         63
  15.0308         56
  15.0680         53
  15.1051         59
  15.1423         85
  15.1794         51
  15.2166         70
  15.2537         50
  15.2909         51
  15.3280         67
  15.3652         77
  15.4023         62
  15.4395         67
  15.4766         74
  15.5138         56
  15.5509         60
  15.5881         55
  15.6252         51
  15.6624         49
  15.6995         64
  15.7367         51
  15.7738         64
  15.8110         55
  15.8482         51
  15.8853         59
  15.9225         69
  15.9596         73
  15.9968         57
  16.0339         53
  16.0711         69
  16.1082         62
  16.1454         67
  16.1825         60
  16.2197         62
  16.2568         58
  16.2940         60
  16.3311         62
  16.3683         54
  16.4054         53
  16.4426         54
  16.4797         61
  16.5169         60
  16.5540         46
  16.5912         57
  16.6283         57
  16.6655         47
  16.7026         49
  16.7398         63
  16.7769         49
  16.8141         50
  16.8512         50
  16.8884         52
  16.9255         71
  16.9627         57
  16.9998         53
  17.0370         64
  17.0741         73
  17.1113         59
  17.1484         64
  17.1856         54
  17.2227         45
  17.2599         52
  17.2970         66
  17.3342         64
  17.3713         63
  17.4085         50
  17.4457         54
  17.4828         71
  17.5200         60
  17.5571         66
  17.5943         76
  17.6314         70
  17.6686         53
  17.7057         61
  17.7429         54
  17.7800         69
  17.8172         53
  17.8543         60
  17.8915         63
  17.9286         52
  17.9658         71
  18.0029         67
  18.0401         65
  18.0772         57
  18.1144         45
  18.1515         59
  18.1887         72
  18.2258         70
  18.2630         53
  18.3001         68
  18.3373         63
  18.3744         57
  18.4116         54
  18.4487         53
  18.4859         82
  18.5230         53
  18.5602         57
  18.5973         62
  18.6345         54
  18.6716         50
  18.7088         60
  18.7459         78
  18.7831         59
  18.8202         70
  18.8574         61
  18.8945         63
  18.9317         53
  18.9689         63
  19.0060         64
  19.0432         47
  19.0803         62
  19.1175         75
  19.1546         63
  19.1918         65
  19.2289         50
  19.2661         53
  19.3032         63
  19.3404         60
  19.3775         66
  19.4147         66
  19.4518         55
  19.4890         50
  19.5261         64
  19.5633         70
  19.6004         62
  19.6376         60
  19.6747         65
  19.7119         62
  19.7490         66
  19.7862         60
  19.8233         66
  19.8605         45
  19.8976         79
  19.9348         63
  19.9719         60
  20.0091         77
  20.0462         61
  20.0834         73
  20.1205         70
  20.1577         67
  20.1948         72
  20.2320         72
  20.2691         68
  20.3063         58
  20.3434         56
  20.3806         64
  20.4177         56
  20.4549         63
  20.4921         76
  20.5292         65
  20.5664         70
  20.6035         71
  20.6407         74
  20.6778         48
  20.7150         69
  20.7521         69
  20.7893         62
  20.8264         92
  20.8636         71
  20.9007         70
  20.9379         64
  20.9750         74
  21.0122         80
  21.0493         66
  21.0865         70
  21.1236         77
  21.1608         71
  21.1979         98
  21.2351        125
  21.2722        106
  21.3094        127
  21.3465        183
  21.3837        151
  21.4208        138
  21.4580         88
  21.4951         71
  21.5323         78
  21.5694         92
  21.6066         75
  21.6437         84
  21.6809         59
  21.7180         89
  21.7552         71
  21.7923         59
  21.8295         71
  21.8666         74
  21.9038         56
  21.9409         80
  21.9781         68
  22.0152         73
  22.0524         65
  22.0896         81
  22.1267         83
  22.1639         72
  22.2010         82
  22.2382         65
  22.2753         75
  22.3125         60
  22.3496         80
  22.3868         78
  22.4239         73
  22.4611         93
  22.4982         67
  22.5354         66
  22.5725         75
  22.6097         73
  22.6468         58
  22.6840         59
  22.7211         95
  22.7583         64
  22.7954         70
  22.8326         78
  22.8697         70
  22.9069         78
  22.9440         80
  22.9812         60
  23.0183         81
  23.0555         75
  23.0926         76
  23.1298         73
  23.1669         77
  23.2041         73
  23.2412         79
  23.2784         71
  23.3155         73
  23.3527         74
  23.3898         66
  23.4270         61
  23.4641         63
  23.5013         84
  23.5384         66
  23.5756         62
  23.6128         88
  23.6499         75
  23.6871         82
  23.7242         75
  23.7614         66
  23.7985         68
  23.8357         73
  23.8728         90
  23.9100         62
  23.9471         70
  23.9843         74
  24.0214         77
  24.0586         59
  24.0957         59
  24.1329         62
  24.1700         80
  24.2072         82
  24.2443         92
  24.2815         69
  24.3186         76
  24.3558         79
  24.3929         81
  24.4301         89
  24.4672         61
  24.5044         87
  24.5415         72
  24.5787         76
  24.6158         88
  24.6530         55
  24.6901         77
  24.7273         72
  24.7644         66
  24.8016         72
  24.8387         70
  24.8759         69
  24.9130         63
  24.9502         70
  24.9873         71
  25.0245         76
  25.0616         79
  25.0988         70
  25.1360         73
  25.1731         81
  25.2103         64
  25.2474         70
  25.2846         80
  25.3217         73
  25.3589         66
  25.3960         90
  25.4332         71
  25.4703         83
  25.5075         69
  25.5446         77
  25.5818         87
  25.6189         80
  25.6561         72
  25.6932         73
  25.7304         66
  25.7675         64
  25.8047         76
  25.8418         70
  25.8790         64
  25.9161         66
  25.9533         80
  25.9904         69
  26.0276         81
  26.0647         93
  26.1019         73
  26.1390         83
  26.1762         74
  26.2133         61
  26.2505         61
  26.2876         78
  26.3248         80
  26.3619         71
  26.3991         72
  26.4362         81
  26.4734         59
  26.5105         68
  26.5477         79
  26.5848         74
  26.6220         68
  26.6591         62
  26.6963         79
  26.7335         75
  26.7706         82
  26.8078         60
  26.8449         68
  26.8821         69
  26.9192         64
  26.9564         73
  26.9935         89
  27.0307         73
  27.0678         70
  27.1050         60
  27.1421         76
  27.1793         81
  27.2164         83
  27.2536         72
  27.2907         89
  27.3279         74
  27.3650         79
  27.4022         74
  27.4393         88
  27.4765         76
  27.5136         66
  27.5508         53
  27.5879         76
  27.6251         54
  27.6622         77
  27.6994         60
  27.7365         60
  27.7737         65
  27.8108         60
  27.8480         76
  27.8851         39
  27.9223         63
  27.9594         66
  27.9966         73
  28.0337         62
  28.0709         69
  28.1080         66
  28.1452         75
  28.1823         58
  28.2195         72
  28.2567         55
  28.2938         59
  28.3310         42
  28.3681         60
  28.4053         58
  28.4424         61
  28.4796         63
  28.5167         63
  28.5539         75
  28.5910         69
  28.6282         59
  28.6653         61
  28.7025         54
  28.7396         69
  28.7768         65
  28.8139         57
  28.8511         66
  28.8882         63
  28.9254         66
  28.9625         53
  28.9997         59
  29.0368         65
  29.0740         74
  29.1111         68
  29.1483         45
  29.1854         52
  29.2226         60
  29.2597         62
  29.2969         72
  29.3340         36
  29.3712         59
  29.4083         66
  29.4455         54
  29.4826         52
  29.5198         63
  29.5569         65
  29.5941         57
  29.6312         44
  29.6684         65
  29.7055         55
  29.7427         64
  29.7799         64
  29.8170         54
  29.8542         54
  29.8913         51
  29.9285         57
  29.9656         58
  30.0028         57
  30.0399         51
  30.0771         54
  30.1142         68
  30.1514         55
  30.1885         67
  30.2257         66
  30.2628         74
  30.3000         58
  30.3371         79
  30.3743         95
  30.4114         87
  30.4486         77
  30.4857         75
  30.5229         72
  30.5600         53
  30.5972         52
  30.6343         62
  30.6715         62
  30.7086         47
  30.7458         40
  30.7829         53
  30.8201         63
  30.8572         57
  30.8944         55
  30.9315         42
  30.9687         58
  31.0058         51
  31.0430         62
  31.0801         44
  31.1173         38
  31.1544         51
  31.1916         47
  31.2287         50
  31.2659         53
  31.3030         55
  31.3402         53
  31.3774         55
  31.4145         61
  31.4517         48
  31.4888         56
  31.5260         37
  31.5631         52
  31.6003         40
  31.6374         50
  31.6746         57
  31.7117         57
  31.7489         51
  31.7860         38
  31.8232         46
  31.8603         51
  31.8975         42
  31.9346         45
  31.9718         54
  32.0089         62
  32.0461         40
  32.0832         50
  32.1204         60
  32.1575         62
  32.1947         45
  32.2318         35
  32.2690         51
  32.3061         51
  32.3433         52
  32.3804         41
  32.4176         46
  32.4547         47
  32.4919         47
  32.5290         57
  32.5662         67
  32.6033         40
  32.6405         58
  32.6776         52
  32.7148         46
  32.7519         56
  32.7891         40
  32.8262         44
  32.8634         39
  32.9006         51
  32.9377         44
  32.9749         39
  33.0120         59
  33.0492         39
  33.0863         41
  33.1235         41
  33.1606         44
  33.1978         40
  33.2349         57
  33.2721         53
  33.3092         48
  33.3464         42
  33.3835         38
  33.4207         44
  33.4578         49
  33.4950         45
  33.5321         54
  33.5693         43
  33.6064         56
  33.6436         56
  33.6807         55
  33.7179         44
  33.7550         40
  33.7922         38
  33.8293         38
  33.8665         50
  33.9036         38
  33.9408         53
  33.9779         44
  34.0151         34
  34.0522         46
  34.0894         38
  34.1265         48
  34.1637         34
  34.2008         44
  34.2380         38
  34.2751         44
  34.3123         39
  34.3494         36
  34.3866         38
  34.4238         37
  34.4609         48
  34.4981         34
  34.5352         41
  34.5724         39
  34.6095         45
  34.6467         55
  34.6838         47
  34.7210         40
  34.7581         51
  34.7953         60
  34.8324         54
  34.8696         48
  34.9067         48
  34.9439         46
  34.9810         46
  35.0182         43
  35.0553         42
  35.0925         41
  35.1296         36
  35.1668         33
  35.2039         41
  35.2411         41
  35.2782         32
  35.3154         39
  35.3525         42
  35.3897         40
  35.4268         30
  35.4640         28
  35.5011         29
  35.5383         34
  35.5754         39
  35.6126         50
  35.6497         42
  35.6869         42
  35.7240         39
  35.7612         47
  35.7983         39
  35.8355         40
  35.8726         31
  35.9098         32
  35.9469         33
  35.9841         26
  36.0213         25
  36.0584         27
  36.0956         36
  36.1327         38
  36.1699         39
  36.2070         36
  36.2442         42
  36.2813         28
  36.3185         30
  36.3556         39
  36.3928         33
  36.4299         25
  36.4671         26
  36.5042         50
  36.5414         25
  36.5785         25
  36.6157         38
  36.6528         42
  36.6900         35
  36.7271         35
  36.7643         43
  36.8014         37
  36.8386         33
  36.8757         34
  36.9129         38
  36.9500         28
  36.9872         32
  37.0243         36
  37.0615         24
  37.0986         42
  37.1358         35
  37.1729         35
  37.2101         37
  37.2472         36
  37.2844         43
  37.3215         33
  37.3587         27
  37.3958         35
  37.4330         48
  37.4701         49
  37.5073         34
  37.5445         56
  37.5816         44
  37.6188         45
  37.6559         33
  37.6931         32
  37.7302         38
  37.7674         42
  37.8045         28
  37.8417         37
  37.8788         33
  37.9160         34
  37.9531         27
  37.9903         30
  38.0274         33
  38.0646         30
  38.1017         31
  38.1389         38
  38.1760         26
  38.2132         37
  38.2503         24
  38.2875         36
  38.3246         33
  38.3618         39
  38.3989         28
  38.4361         31
  38.4732         29
  38.5104         23
  38.5475         27
  38.5847         26
  38.6218         27
  38.6590         32
  38.6961         30
  38.7333         23
  38.7704         30
  38.8076         24
  38.8447         30
  38.8819         32
  38.9190         28
  38.9562         34
  38.9933         28
  39.0305         35
  39.0677         24
  39.1048         23
  39.1420         31
  39.1791         38
  39.2163         36
  39.2534         27
  39.2906         23
  39.3277         28
  39.3649         23
  39.4020         21
  39.4392         25
  39.4763         32
  39.5135         36
  39.5506         27
  39.5878         29
  39.6249         31
  39.6621         35
  39.6992         33
  39.7364         22
  39.7735         28
  39.8107         21
  39.8478         20
  39.8850         36
  39.9221         25
  39.9593         30
  39.9964         40
  40.0336         28
  40.0707         20
  40.1079         27
  40.1450         46
  40.1822         22
  40.2193         30
  40.2565         30
  40.2936         34
  40.3308         32
  40.3679         31
  40.4051         25
  40.4422         26
  40.4794         22
  40.5165         29
  40.5537         22
  40.5908         27
  40.6280         35
  40.6652         34
  40.7023         30
  40.7395         22
  40.7766         28
  40.8138         24
  40.8509         20
  40.8881         34
  40.9252         27
  40.9624         33
  40.9995         19
  41.0367         29
  41.0738         32
  41.1110         29
  41.1481         33
  41.1853         34
  41.2224         35
  41.2596         24
  41.2967         34
  41.3339         33
  41.3710         24
  41.4082         32
  41.4453         24
  41.4825         20
  41.5196         27
  41.5568         27
  41.5939         25
  41.6311         29
  41.6682         29
  41.7054         21
  41.7425         26
  41.7797         28
  41.8168         26
  41.8540         21
  41.8911         24
  41.9283         37
  41.9654         32
  42.0026         29
  42.0397         23
  42.0769         25
  42.1140         37
  42.1512         24
  42.1884         31
  42.2255         24
  42.2627         34
  42.2998         32
  42.3370         23
  42.3741         29
  42.4113         26
  42.4484         27
  42.4856         20
  42.5227         24
  42.5599         29
  42.5970         27
  42.6342         30
  42.6713         23
  42.7085         30
  42.7456         27
  42.7828         24
  42.8199         33
  42.8571         28
  42.8942         31
  42.9314         35
  42.9685         27
  43.0057         29
  43.0428         30
  43.0800         26
  43.1171         30
  43.1543         21
  43.1914         40
  43.2286         31
  43.2657         36
  43.3029         30
  43.3400         25
  43.3772         19
  43.4143         31
  43.4515         37
  43.4886         45
  43.5258         41
  43.5629         34
  43.6001         39
  43.6372         34
  43.6744         35
  43.7116         31
  43.7487         27
  43.7859         36
  43.8230         19
  43.8602         34
  43.8973         33
  43.9345         20
  43.9716         26
  44.0088         32
  44.0459         24
  44.0831         29
  44.1202         35
  44.1574         29
  44.1945         32
  44.2317         28
  44.2688         29
  44.3060         34
  44.3431         40
  44.3803         26
  44.4174         13
  44.4546         36
  44.4917         28
  44.5289         26
  44.5660         27
  44.6032         26
  44.6403         29
  44.6775         20
  44.7146         27
  44.7518         26
  44.7889         33
  44.8261         28
  44.8632         27
  44.9004         25
  44.9375         35
  44.9747         26
  45.0118         29
  45.0490         38
  45.0861         27
  45.1233         19
  45.1604         37
  45.1976         31
  45.2347         25
  45.2719         29
  45.3091         28
  45.3462         31
  45.3834         22
  45.4205         27
  45.4577         27
  45.4948         17
  45.5320         24
  45.5691         29
  45.6063         24
  45.6434         31
  45.6806         36
  45.7177         25
  45.7549         23
  45.7920         18
  45.8292         26
  45.8663         21
  45.9035         35
  45.9406         22
  45.9778         27
  46.0149         29
  46.0521         25
  46.0892         36
  46.1264         24
  46.1635         29
  46.2007         20
  46.2378         21
  46.2750         20
  46.3121         32
  46.3493         20
  46.3864         33
  46.4236         21
  46.4607         33
  46.4979         20
  46.5350         13
  46.5722         13
  46.6093         27
  46.6465         22
  46.6836         30
  46.7208         20
  46.7579         36
  46.7951         16
  46.8323         21
  46.8694         18
  46.9066         21
  46.9437         28
  46.9809         27
  47.0180         25
  47.0552         21
  47.0923         36
  47.1295         22
  47.1666         33
  47.2038         28
  47.2409         17
  47.2781         20
  47.3152         32
  47.3524         29
  47.3895         27
  47.4267         22
  47.4638         21
  47.5010         37
  47.5381         25
  47.5753         21
  47.6124         30
  47.6496         18
  47.6867         23
  47.7239         21
  47.7610         25
  47.7982         29
  47.8353         18
  47.8725         17
  47.9096         25
  47.9468         24
  47.9839         25
  48.0211         19
  48.0582         30
  48.0954         26
  48.1325         27
  48.1697         30
  48.2068         27
  48.2440         26
  48.2811         26
  48.3183         25
  48.3555         15
  48.3926         14
  48.4298         28
  48.4669         27
  48.5041         28
  48.5412         18
  48.5784         16
  48.6155         17
  48.6527         25
  48.6898         28
  48.7270         26
  48.7641         17
  48.8013         35
  48.8384         15
  48.8756         26
  48.9127         26
  48.9499         55
  48.9870         44
  49.0242         37
  49.0613         25
  49.0985         28
  49.1356         27
  49.1728         27
  49.2099         23
  49.2471         32
  49.2842         28
  49.3214         21
  49.3585         29
  49.3957         10
  49.4328         25
  49.4700         25
  49.5071         23
  49.5443         20
  49.5814         23
  49.6186         19
  49.6557         21
  49.6929         27
  49.7300         27
  49.7672         16
  49.8043         40
  49.8415         21
  49.8786         21
  49.9158         15
  49.9530         17
  49.9901         28
  50.0273         29
  50.0644         14
  50.1016         25
  50.1387         26
  50.1759         32
  50.2130         25
  50.2502         24
  50.2873         27
  50.3245         14
  50.3616         26
  50.3988         23
  50.4359         29
  50.4731         15
  50.5102         15
  50.5474         25
  50.5845         21
  50.6217         26
  50.6588         18
  50.6960         20
  50.7331         23
  50.7703         24
  50.8074         24
  50.8446         20
  50.8817         28
  50.9189         25
  50.9560         20
  50.9932         34
  51.0303         20
  51.0675         24
  51.1046         18
  51.1418         25
  51.1789         24
  51.2161         21
  51.2532         33
  51.2904         22
  51.3275         18
  51.3647         26
  51.4018         18
  51.4390         30
  51.4762         24
  51.5133         29
  51.5505         18
  51.5876         22
  51.6248         16
  51.6619         27
  51.6991         29
  51.7362         32
  51.7734         27
  51.8105         18
  51.8477         27
  51.8848         22
  51.9220         20
  51.9591         29
  51.9963         27
  52.0334         29
  52.0706         22
  52.1077         17
  52.1449         22
  52.1820         18
  52.2192         28
  52.2563         27
  52.2935         13
  52.3306         21
  52.3678         20
  52.4049         15
  52.4421         18
  52.4792         24
  52.5164         17
  52.5535         25
  52.5907         20
  52.6278         16
  52.6650         10
  52.7021         18
  52.7393         18
  52.7764         16
  52.8136         22
  52.8507         19
  52.8879         17
  52.9250         21
  52.9622         17
  52.9994         25
  53.0365         20
  53.0737         19
  53.1108         24
  53.1480         28
  53.1851         17
  53.2223         24
  53.2594         22
  53.2966         19
  53.3337         21
  53.3709         16
  53.4080         14
  53.4452         24
  53.4823         16
  53.5195          9
  53.5566         21
  53.5938         19
  53.6309         23
  53.6681         19
  53.7052         24
  53.7424         23
  53.7795         19
  53.8167         22
  53.8538         23
  53.8910         23
  53.9281         23
  53.9653         17
  54.0024         33
  54.0396         20
  54.0767         20
  54.1139         23
  54.1510         27
  54.1882         30
  54.2253         20
  54.2625         13
  54.2996         25
  54.3368         22
  54.3739         26
  54.4111         24
  54.4482         14
  54.4854         13
  54.5225         12
  54.5597         22
  54.5969         25
  54.6340         22
  54.6712         25
  54.7083         22
  54.7455         20
  54.7826         28
  54.8198         15
  54.8569         16
  54.8941         18
  54.9312         28
  54.9684         22
  55.0055         22
  55.0427         24
  55.0798         16
  55.1170         24
  55.1541         24
  55.1913         23
  55.2284         25
  55.2656         25
  55.3027         31
  55.3399         19
  55.3770         18
  55.4142         20
  55.4513         23
  55.4885         19
  55.5256         18
  55.5628         28
  55.5999         22
  55.6371         16
  55.6742         18
  55.7114         19
  55.7485         22
  55.7857         23
  55.8228         18
  55.8600         24
  55.8971         27
  55.9343         25
  55.9714         25
  56.0086         22
  56.0457         31
  56.0829         27
  56.1201         20
  56.1572         25
  56.1944         15
  56.2315         28
  56.2687         17
  56.3058         22
  56.3430         21
  56.3801         20
  56.4173         20
  56.4544         25
  56.4916         19
  56.5287         16
  56.5659         14
  56.6030         26
  56.6402         27
  56.6773         22
  56.7145         24
  56.7516         27
  56.7888         19
  56.8259         12
  56.8631         14
  56.9002         22
  56.9374         25
  56.9745         15
  57.0117         36
  57.0488         15
  57.0860         12
  57.1231         25
  57.1603         28
  57.1974         23
  57.2346         21
  57.2717         14
  57.3089         16
  57.3460         28
  57.3832         17
  57.4203         26
  57.4575         21
  57.4946         16
  57.5318         24
  57.5689         14
  57.6061         22
  57.6433         21
  57.6804         22
  57.7176         23
  57.7547         26
  57.7919         20
  57.8290         22
  57.8662         26
  57.9033         19
  57.9405         19
  57.9776         17
  58.0148         23
  58.0519         26
  58.0891         16
  58.1262         20
  58.1634         21
  58.2005         26
  58.2377         17
  58.2748         23
  58.3120         17
  58.3491         20
  58.3863         23
  58.4234         21
  58.4606         12
  58.4977         19
  58.5349         18
  58.5720         11
  58.6092         22
  58.6463         19
  58.6835         25
  58.7206         12
  58.7578         14
  58.7949         16
  58.8321         21
  58.8692         20
  58.9064         24
  58.9435         15
  58.9807         26
  59.0178         18
  59.0550         20
  59.0921         21
  59.1293         25
  59.1664         22
  59.2036         16
  59.2408         19
  59.2779         23
  59.3151         18
  59.3522         21
  59.3894         19
  59.4265         17
  59.4637         20
  59.5008         26
  59.5380         17
  59.5751         18
  59.6123         28
  59.6494         20
  59.6866         11
  59.7237         18
  59.7609         23
  59.7980         25
  59.8352         17
  59.8723         20
  59.9095         25
  59.9466         21
  59.9838         23
  60.0024         29