File: notebooks/data/xrd_data/ML_20220721_33_SJD_4_LaB6-4min.csv
;,2THETA,
5.0000,233
5.0372,271
5.0743,257
5.1115,265
5.1486,290
5.1858,266
5.2229,257
5.2601,280
5.2972,253
5.3344,259
5.3715,236
5.4087,218
5.4458,213
5.4830,237
5.5201,203
5.5573,245
5.5944,227
5.6316,218
5.6687,205
5.7059,230
5.7430,231
5.7802,199
5.8173,221
5.8545,218
5.8916,173
5.9288,175
5.9659,226
6.0031,219
6.0402,188
6.0774,194
6.1145,193
6.1517,207
6.1888,178
6.2260,176
6.2631,199
6.3003,170
6.3374,186
6.3746,171
6.4117,187
6.4489,171
6.4860,172
6.5232,177
6.5604,157
6.5975,180
6.6347,195
6.6718,168
6.7090,175
6.7461,160
6.7833,183
6.8204,166
6.8576,175
6.8947,177
6.9319,161
6.9690,168
7.0062,175
7.0433,148
7.0805,173
7.1176,159
7.1548,166
7.1919,147
7.2291,188
7.2662,151
7.3034,171
7.3405,148
7.3777,154
7.4148,165
7.4520,184
7.4891,174
7.5263,168
7.5634,192
7.6006,202
7.6377,163
7.6749,183
7.7120,155
7.7492,199
7.7863,193
7.8235,189
7.8606,147
7.8978,212
7.9349,163
7.9721,216
8.0092,184
8.0464,190
8.0835,200
8.1207,185
8.1579,233
8.1950,193
8.2322,212
8.2693,168
8.3065,170
8.3436,191
8.3808,190
8.4179,190
8.4551,217
8.4922,186
8.5294,206
8.5665,203
8.6037,182
8.6408,199
8.6780,194
8.7151,208
8.7523,224
8.7894,221
8.8266,213
8.8637,224
8.9009,221
8.9380,216
8.9752,222
9.0123,210
9.0495,205
9.0866,237
9.1238,226
9.1609,222
9.1981,218
9.2352,210
9.2724,218
9.3095,240
9.3467,220
9.3838,232
9.4210,209
9.4581,212
9.4953,218
9.5324,219
9.5696,229
9.6067,214
9.6439,212
9.6811,235
9.7182,208
9.7554,200
9.7925,233
9.8297,232
9.8668,236
9.9040,242
9.9411,258
9.9783,234
10.0154,244
10.0526,222
10.0897,268
10.1269,242
10.1640,246
10.2012,245
10.2383,240
10.2755,255
10.3126,233
10.3498,223
10.3869,248
10.4241,256
10.4612,211
10.4984,265
10.5355,262
10.5727,254
10.6098,240
10.6470,245
10.6841,219
10.7213,254
10.7584,229
10.7956,225
10.8327,267
10.8699,251
10.9070,269
10.9442,240
10.9813,214
11.0185,253
11.0556,250
11.0928,250
11.1299,232
11.1671,233
11.2043,230
11.2414,257
11.2786,224
11.3157,245
11.3529,236
11.3900,250
11.4272,217
11.4643,248
11.5015,265
11.5386,242
11.5758,224
11.6129,256
11.6501,256
11.6872,241
11.7244,236
11.7615,239
11.7987,266
11.8358,213
11.8730,230
11.9101,210
11.9473,240
11.9844,231
12.0216,228
12.0587,234
12.0959,215
12.1330,243
12.1702,219
12.2073,230
12.2445,210
12.2816,219
12.3188,258
12.3559,212
12.3931,223
12.4302,205
12.4674,216
12.5045,199
12.5417,205
12.5788,209
12.6160,254
12.6531,198
12.6903,186
12.7274,200
12.7646,202
12.8018,232
12.8389,211
12.8761,217
12.9132,240
12.9504,214
12.9875,226
13.0247,200
13.0618,209
13.0990,209
13.1361,190
13.1733,199
13.2104,182
13.2476,192
13.2847,212
13.3219,216
13.3590,189
13.3962,174
13.4333,213
13.4705,218
13.5076,208
13.5448,196
13.5819,192
13.6191,220
13.6562,187
13.6934,182
13.7305,212
13.7677,203
13.8048,182
13.8420,190
13.8791,180
13.9163,200
13.9534,160
13.9906,192
14.0277,195
14.0649,190
14.1020,178
14.1392,163
14.1763,170
14.2135,176
14.2506,171
14.2878,203
14.3250,186
14.3621,170
14.3993,176
14.4364,193
14.4736,176
14.5107,205
14.5479,182
14.5850,180
14.6222,179
14.6593,194
14.6965,147
14.7336,169
14.7708,168
14.8079,139
14.8451,175
14.8822,168
14.9194,150
14.9565,150
14.9937,172
15.0308,189
15.0680,163
15.1051,176
15.1423,166
15.1794,167
15.2166,159
15.2537,152
15.2909,169
15.3280,160
15.3652,202
15.4023,177
15.4395,139
15.4766,169
15.5138,174
15.5509,168
15.5881,163
15.6252,160
15.6624,166
15.6995,153
15.7367,176
15.7738,171
15.8110,157
15.8482,156
15.8853,172
15.9225,177
15.9596,174
15.9968,167
16.0339,156
16.0711,162
16.1082,161
16.1454,182
16.1825,160
16.2197,150
16.2568,170
16.2940,165
16.3311,150
16.3683,164
16.4054,179
16.4426,139
16.4797,159
16.5169,154
16.5540,159
16.5912,170
16.6283,163
16.6655,169
16.7026,165
16.7398,147
16.7769,167
16.8141,153
16.8512,170
16.8884,144
16.9255,199
16.9627,157
16.9998,172
17.0370,181
17.0741,153
17.1113,190
17.1484,141
17.1856,174
17.2227,167
17.2599,148
17.2970,156
17.3342,142
17.3713,154
17.4085,144
17.4457,157
17.4828,155
17.5200,179
17.5571,156
17.5943,158
17.6314,147
17.6686,149
17.7057,153
17.7429,179
17.7800,141
17.8172,168
17.8543,160
17.8915,189
17.9286,161
17.9658,185
18.0029,157
18.0401,167
18.0772,153
18.1144,174
18.1515,150
18.1887,168
18.2258,188
18.2630,179
18.3001,178
18.3373,181
18.3744,168
18.4116,176
18.4487,195
18.4859,163
18.5230,163
18.5602,168
18.5973,157
18.6345,164
18.6716,165
18.7088,175
18.7459,160
18.7831,159
18.8202,159
18.8574,176
18.8945,160
18.9317,186
18.9689,171
19.0060,169
19.0432,157
19.0803,182
19.1175,184
19.1546,162
19.1918,186
19.2289,164
19.2661,169
19.3032,164
19.3404,176
19.3775,165
19.4147,170
19.4518,176
19.4890,159
19.5261,179
19.5633,166
19.6004,168
19.6376,174
19.6747,170
19.7119,185
19.7490,197
19.7862,165
19.8233,166
19.8605,177
19.8976,188
19.9348,164
19.9719,165
20.0091,187
20.0462,193
20.0834,165
20.1205,174
20.1577,175
20.1948,179
20.2320,199
20.2691,196
20.3063,167
20.3434,178
20.3806,170
20.4177,188
20.4549,188
20.4921,198
20.5292,225
20.5664,191
20.6035,193
20.6407,164
20.6778,175
20.7150,208
20.7521,168
20.7893,212
20.8264,181
20.8636,198
20.9007,188
20.9379,197
20.9750,194
21.0122,199
21.0493,228
21.0865,174
21.1236,218
21.1608,243
21.1979,249
21.2351,355
21.2722,310
21.3094,315
21.3465,482
21.3837,419
21.4208,333
21.4580,233
21.4951,204
21.5323,196
21.5694,193
21.6066,195
21.6437,218
21.6809,210
21.7180,206
21.7552,195
21.7923,191
21.8295,198
21.8666,176
21.9038,202
21.9409,200
21.9781,212
22.0152,185
22.0524,219
22.0896,209
22.1267,203
22.1639,220
22.2010,209
22.2382,192
22.2753,198
22.3125,202
22.3496,189
22.3868,209
22.4239,198
22.4611,226
22.4982,225
22.5354,196
22.5725,203
22.6097,191
22.6468,194
22.6840,200
22.7211,213
22.7583,191
22.7954,170
22.8326,200
22.8697,177
22.9069,189
22.9440,213
22.9812,191
23.0183,224
23.0555,199
23.0926,186
23.1298,235
23.1669,230
23.2041,199
23.2412,202
23.2784,216
23.3155,228
23.3527,193
23.3898,199
23.4270,199
23.4641,200
23.5013,222
23.5384,205
23.5756,195
23.6128,202
23.6499,202
23.6871,207
23.7242,216
23.7614,191
23.7985,181
23.8357,213
23.8728,198
23.9100,200
23.9471,196
23.9843,207
24.0214,201
24.0586,217
24.0957,204
24.1329,212
24.1700,203
24.2072,212
24.2443,219
24.2815,204
24.3186,221
24.3558,256
24.3929,230
24.4301,211
24.4672,208
24.5044,217
24.5415,215
24.5787,201
24.6158,198
24.6530,202
24.6901,190
24.7273,217
24.7644,208
24.8016,205
24.8387,215
24.8759,196
24.9130,193
24.9502,215
24.9873,205
25.0245,194
25.0616,186
25.0988,220
25.1360,194
25.1731,206
25.2103,186
25.2474,168
25.2846,176
25.3217,200
25.3589,189
25.3960,202
25.4332,174
25.4703,194
25.5075,189
25.5446,204
25.5818,210
25.6189,201
25.6561,183
25.6932,187
25.7304,195
25.7675,185
25.8047,198
25.8418,206
25.8790,198
25.9161,180
25.9533,174
25.9904,182
26.0276,185
26.0647,189
26.1019,202
26.1390,214
26.1762,210
26.2133,188
26.2505,179
26.2876,203
26.3248,208
26.3619,205
26.3991,195
26.4362,194
26.4734,212
26.5105,200
26.5477,207
26.5848,181
26.6220,204
26.6591,161
26.6963,195
26.7335,214
26.7706,181
26.8078,207
26.8449,181
26.8821,188
26.9192,183
26.9564,166
26.9935,206
27.0307,195
27.0678,194
27.1050,213
27.1421,178
27.1793,233
27.2164,269
27.2536,206
27.2907,231
27.3279,202
27.3650,196
27.4022,169
27.4393,189
27.4765,174
27.5136,201
27.5508,186
27.5879,215
27.6251,171
27.6622,160
27.6994,191
27.7365,185
27.7737,159
27.8108,177
27.8480,162
27.8851,171
27.9223,186
27.9594,181
27.9966,164
28.0337,153
28.0709,163
28.1080,193
28.1452,185
28.1823,178
28.2195,181
28.2567,173
28.2938,161
28.3310,167
28.3681,177
28.4053,161
28.4424,154
28.4796,187
28.5167,177
28.5539,188
28.5910,170
28.6282,161
28.6653,163
28.7025,173
28.7396,176
28.7768,187
28.8139,181
28.8511,172
28.8882,185
28.9254,159
28.9625,192
28.9997,165
29.0368,168
29.0740,184
29.1111,164
29.1483,160
29.1854,172
29.2226,150
29.2597,147
29.2969,141
29.3340,185
29.3712,157
29.4083,174
29.4455,136
29.4826,194
29.5198,153
29.5569,159
29.5941,149
29.6312,165
29.6684,166
29.7055,157
29.7427,171
29.7799,153
29.8170,149
29.8542,148
29.8913,150
29.9285,188
29.9656,132
30.0028,125
30.0399,159
30.0771,131
30.1142,156
30.1514,148
30.1885,171
30.2257,172
30.2628,174
30.3000,193
30.3371,232
30.3743,317
30.4114,258
30.4486,252
30.4857,211
30.5229,171
30.5600,168
30.5972,163
30.6343,154
30.6715,146
30.7086,136
30.7458,148
30.7829,142
30.8201,153
30.8572,158
30.8944,151
30.9315,127
30.9687,140
31.0058,147
31.0430,162
31.0801,134
31.1173,149
31.1544,131
31.1916,153
31.2287,163
31.2659,159
31.3030,150
31.3402,140
31.3774,159
31.4145,131
31.4517,117
31.4888,137
31.5260,135
31.5631,144
31.6003,148
31.6374,125
31.6746,140
31.7117,150
31.7489,118
31.7860,144
31.8232,142
31.8603,154
31.8975,126
31.9346,119
31.9718,144
32.0089,143
32.0461,153
32.0832,124
32.1204,127
32.1575,123
32.1947,132
32.2318,139
32.2690,114
32.3061,136
32.3433,104
32.3804,146
32.4176,119
32.4547,135
32.4919,125
32.5290,159
32.5662,131
32.6033,147
32.6405,146
32.6776,115
32.7148,133
32.7519,141
32.7891,128
32.8262,128
32.8634,133
32.9006,119
32.9377,128
32.9749,129
33.0120,122
33.0492,133
33.0863,125
33.1235,104
33.1606,115
33.1978,112
33.2349,122
33.2721,124
33.3092,116
33.3464,131
33.3835,124
33.4207,118
33.4578,121
33.4950,109
33.5321,124
33.5693,147
33.6064,123
33.6436,110
33.6807,114
33.7179,114
33.7550,130
33.7922,127
33.8293,111
33.8665,122
33.9036,128
33.9408,112
33.9779,112
34.0151,104
34.0522,127
34.0894,112
34.1265,125
34.1637,116
34.2008,102
34.2380,91
34.2751,102
34.3123,118
34.3494,117
34.3866,115
34.4238,113
34.4609,111
34.4981,120
34.5352,130
34.5724,113
34.6095,134
34.6467,133
34.6838,130
34.7210,150
34.7581,184
34.7953,147
34.8324,133
34.8696,153
34.9067,161
34.9439,115
34.9810,122
35.0182,122
35.0553,108
35.0925,109
35.1296,117
35.1668,94
35.2039,108
35.2411,103
35.2782,110
35.3154,104
35.3525,101
35.3897,119
35.4268,95
35.4640,110
35.5011,99
35.5383,95
35.5754,103
35.6126,115
35.6497,100
35.6869,108
35.7240,103
35.7612,117
35.7983,102
35.8355,94
35.8726,126
35.9098,115
35.9469,111
35.9841,87
36.0213,102
36.0584,79
36.0956,91
36.1327,99
36.1699,103
36.2070,98
36.2442,97
36.2813,92
36.3185,76
36.3556,78
36.3928,95
36.4299,92
36.4671,97
36.5042,93
36.5414,91
36.5785,88
36.6157,96
36.6528,77
36.6900,74
36.7271,78
36.7643,80
36.8014,73
36.8386,95
36.8757,80
36.9129,91
36.9500,87
36.9872,98
37.0243,87
37.0615,94
37.0986,95
37.1358,77
37.1729,94
37.2101,99
37.2472,96
37.2844,98
37.3215,96
37.3587,88
37.3958,110
37.4330,161
37.4701,130
37.5073,117
37.5445,123
37.5816,115
37.6188,90
37.6559,91
37.6931,84
37.7302,94
37.7674,101
37.8045,76
37.8417,80
37.8788,87
37.9160,111
37.9531,80
37.9903,85
38.0274,94
38.0646,80
38.1017,79
38.1389,77
38.1760,91
38.2132,95
38.2503,82
38.2875,81
38.3246,82
38.3618,93
38.3989,65
38.4361,78
38.4732,86
38.5104,86
38.5475,83
38.5847,84
38.6218,81
38.6590,78
38.6961,101
38.7333,92
38.7704,87
38.8076,76
38.8447,80
38.8819,78
38.9190,97
38.9562,95
38.9933,106
39.0305,67
39.0677,83
39.1048,71
39.1420,91
39.1791,93
39.2163,78
39.2534,92
39.2906,91
39.3277,90
39.3649,88
39.4020,84
39.4392,80
39.4763,77
39.5135,63
39.5506,78
39.5878,87
39.6249,81
39.6621,73
39.6992,79
39.7364,92
39.7735,61
39.8107,86
39.8478,69
39.8850,71
39.9221,79
39.9593,67
39.9964,82
40.0336,81
40.0707,86
40.1079,91
40.1450,75
40.1822,73
40.2193,88
40.2565,77
40.2936,71
40.3308,72
40.3679,80
40.4051,76
40.4422,83
40.4794,94
40.5165,78
40.5537,69
40.5908,94
40.6280,92
40.6652,74
40.7023,76
40.7395,74
40.7766,68
40.8138,76
40.8509,70
40.8881,71
40.9252,80
40.9624,102
40.9995,84
41.0367,84
41.0738,89
41.1110,88
41.1481,88
41.1853,67
41.2224,77
41.2596,102
41.2967,76
41.3339,81
41.3710,75
41.4082,92
41.4453,95
41.4825,74
41.5196,89
41.5568,78
41.5939,85
41.6311,86
41.6682,85
41.7054,82
41.7425,60
41.7797,74
41.8168,67
41.8540,79
41.8911,67
41.9283,87
41.9654,63
42.0026,85
42.0397,61
42.0769,79
42.1140,68
42.1512,60
42.1884,80
42.2255,79
42.2627,75
42.2998,70
42.3370,68
42.3741,64
42.4113,83
42.4484,92
42.4856,87
42.5227,63
42.5599,89
42.5970,90
42.6342,67
42.6713,66
42.7085,67
42.7456,66
42.7828,69
42.8199,75
42.8571,83
42.8942,88
42.9314,97
42.9685,69
43.0057,92
43.0428,72
43.0800,77
43.1171,84
43.1543,64
43.1914,84
43.2286,77
43.2657,96
43.3029,86
43.3400,87
43.3772,88
43.4143,76
43.4515,83
43.4886,126
43.5258,140
43.5629,89
43.6001,99
43.6372,109
43.6744,72
43.7116,79
43.7487,84
43.7859,64
43.8230,76
43.8602,82
43.8973,61
43.9345,89
43.9716,79
44.0088,84
44.0459,68
44.0831,82
44.1202,83
44.1574,73
44.1945,71
44.2317,73
44.2688,71
44.3060,85
44.3431,84
44.3803,78
44.4174,75
44.4546,87
44.4917,87
44.5289,95
44.5660,95
44.6032,81
44.6403,80
44.6775,75
44.7146,89
44.7518,78
44.7889,80
44.8261,83
44.8632,80
44.9004,75
44.9375,79
44.9747,60
45.0118,54
45.0490,71
45.0861,58
45.1233,75
45.1604,70
45.1976,70
45.2347,65
45.2719,65
45.3091,77
45.3462,66
45.3834,66
45.4205,64
45.4577,72
45.4948,73
45.5320,72
45.5691,57
45.6063,72
45.6434,60
45.6806,79
45.7177,68
45.7549,50
45.7920,66
45.8292,70
45.8663,72
45.9035,64
45.9406,58
45.9778,56
46.0149,62
46.0521,66
46.0892,53
46.1264,67
46.1635,67
46.2007,75
46.2378,71
46.2750,65
46.3121,74
46.3493,56
46.3864,58
46.4236,70
46.4607,67
46.4979,74
46.5350,72
46.5722,62
46.6093,68
46.6465,64
46.6836,64
46.7208,70
46.7579,72
46.7951,73
46.8323,69
46.8694,66
46.9066,64
46.9437,63
46.9809,59
47.0180,79
47.0552,63
47.0923,76
47.1295,54
47.1666,73
47.2038,64
47.2409,59
47.2781,66
47.3152,65
47.3524,86
47.3895,77
47.4267,79
47.4638,54
47.5010,59
47.5381,66
47.5753,60
47.6124,61
47.6496,70
47.6867,54
47.7239,73
47.7610,75
47.7982,70
47.8353,53
47.8725,68
47.9096,80
47.9468,66
47.9839,59
48.0211,64
48.0582,55
48.0954,62
48.1325,51
48.1697,61
48.2068,81
48.2440,64
48.2811,65
48.3183,52
48.3555,84
48.3926,68
48.4298,62
48.4669,71
48.5041,60
48.5412,57
48.5784,73
48.6155,69
48.6527,90
48.6898,74
48.7270,58
48.7641,59
48.8013,62
48.8384,75
48.8756,70
48.9127,82
48.9499,121
48.9870,73
49.0242,82
49.0613,72
49.0985,91
49.1356,79
49.1728,78
49.2099,68
49.2471,50
49.2842,65
49.3214,60
49.3585,61
49.3957,61
49.4328,57
49.4700,54
49.5071,58
49.5443,59
49.5814,49
49.6186,57
49.6557,77
49.6929,81
49.7300,59
49.7672,53
49.8043,79
49.8415,66
49.8786,72
49.9158,62
49.9530,52
49.9901,61
50.0273,71
50.0644,58
50.1016,70
50.1387,68
50.1759,55
50.2130,68
50.2502,57
50.2873,65
50.3245,70
50.3616,50
50.3988,50
50.4359,57
50.4731,50
50.5102,64
50.5474,57
50.5845,61
50.6217,44
50.6588,53
50.6960,62
50.7331,74
50.7703,61
50.8074,58
50.8446,59
50.8817,67
50.9189,60
50.9560,58
50.9932,55
51.0303,64
51.0675,65
51.1046,47
51.1418,56
51.1789,62
51.2161,62
51.2532,74
51.2904,42
51.3275,71
51.3647,63
51.4018,71
51.4390,56
51.4762,65
51.5133,69
51.5505,54
51.5876,62
51.6248,56
51.6619,61
51.6991,68
51.7362,58
51.7734,65
51.8105,58
51.8477,92
51.8848,77
51.9220,76
51.9591,70
51.9963,56
52.0334,49
52.0706,51
52.1077,60
52.1449,64
52.1820,84
52.2192,62
52.2563,72
52.2935,59
52.3306,73
52.3678,50
52.4049,53
52.4421,67
52.4792,59
52.5164,58
52.5535,68
52.5907,52
52.6278,57
52.6650,64
52.7021,62
52.7393,62
52.7764,67
52.8136,50
52.8507,59
52.8879,55
52.9250,57
52.9622,57
52.9994,63
53.0365,70
53.0737,66
53.1108,67
53.1480,54
53.1851,61
53.2223,46
53.2594,50
53.2966,44
53.3337,55
53.3709,65
53.4080,66
53.4452,66
53.4823,42
53.5195,56
53.5566,68
53.5938,64
53.6309,54
53.6681,72
53.7052,58
53.7424,61
53.7795,62
53.8167,57
53.8538,59
53.8910,71
53.9281,62
53.9653,70
54.0024,79
54.0396,62
54.0767,56
54.1139,58
54.1510,69
54.1882,71
54.2253,52
54.2625,72
54.2996,49
54.3368,66
54.3739,65
54.4111,55
54.4482,47
54.4854,64
54.5225,76
54.5597,57
54.5969,48
54.6340,61
54.6712,48
54.7083,69
54.7455,33
54.7826,56
54.8198,58
54.8569,66
54.8941,50
54.9312,57
54.9684,59
55.0055,43
55.0427,57
55.0798,46
55.1170,51
55.1541,53
55.1913,61
55.2284,72
55.2656,56
55.3027,56
55.3399,62
55.3770,70
55.4142,53
55.4513,62
55.4885,60
55.5256,69
55.5628,73
55.5999,60
55.6371,50
55.6742,54
55.7114,48
55.7485,70
55.7857,67
55.8228,46
55.8600,46
55.8971,61
55.9343,68
55.9714,48
56.0086,54
56.0457,59
56.0829,63
56.1201,47
56.1572,56
56.1944,65
56.2315,70
56.2687,64
56.3058,61
56.3430,58
56.3801,65
56.4173,63
56.4544,63
56.4916,66
56.5287,43
56.5659,60
56.6030,60
56.6402,49
56.6773,64
56.7145,64
56.7516,46
56.7888,56
56.8259,54
56.8631,53
56.9002,49
56.9374,53
56.9745,54
57.0117,53
57.0488,72
57.0860,67
57.1231,63
57.1603,53
57.1974,50
57.2346,51
57.2717,52
57.3089,63
57.3460,61
57.3832,48
57.4203,56
57.4575,65
57.4946,71
57.5318,59
57.5689,59
57.6061,54
57.6433,52
57.6804,57
57.7176,76
57.7547,58
57.7919,42
57.8290,59
57.8662,49
57.9033,55
57.9405,66
57.9776,51
58.0148,50
58.0519,54
58.0891,63
58.1262,61
58.1634,53
58.2005,57
58.2377,51
58.2748,49
58.3120,50
58.3491,69
58.3863,48
58.4234,47
58.4606,48
58.4977,66
58.5349,52
58.5720,52
58.6092,45
58.6463,44
58.6835,55
58.7206,67
58.7578,50
58.7949,60
58.8321,44
58.8692,54
58.9064,55
58.9435,52
58.9807,47
59.0178,54
59.0550,53
59.0921,47
59.1293,46
59.1664,37
59.2036,49
59.2408,52
59.2779,61
59.3151,48
59.3522,53
59.3894,48
59.4265,56
59.4637,64
59.5008,45
59.5380,63
59.5751,75
59.6123,51
59.6494,58
59.6866,42
59.7237,60
59.7609,47
59.7980,58
59.8352,55
59.8723,55
59.9095,59
59.9466,64
59.9838,48
60.0024,46