File: notebooks/data/xrd_data/ML_20220720_13_SJD_4_LaB6-1min.csv
;,2THETA,
5.0000,103
5.0372,91
5.0743,106
5.1115,103
5.1486,74
5.1858,86
5.2229,79
5.2601,95
5.2972,83
5.3344,72
5.3715,85
5.4087,88
5.4458,98
5.4830,87
5.5201,95
5.5573,90
5.5944,97
5.6316,84
5.6687,78
5.7059,90
5.7430,86
5.7802,81
5.8173,84
5.8545,70
5.8916,71
5.9288,81
5.9659,75
6.0031,63
6.0402,70
6.0774,66
6.1145,78
6.1517,55
6.1888,62
6.2260,79
6.2631,79
6.3003,60
6.3374,72
6.3746,55
6.4117,64
6.4489,63
6.4860,71
6.5232,59
6.5604,67
6.5975,60
6.6347,62
6.6718,73
6.7090,60
6.7461,62
6.7833,63
6.8204,57
6.8576,55
6.8947,61
6.9319,48
6.9690,54
7.0062,62
7.0433,45
7.0805,60
7.1176,45
7.1548,69
7.1919,47
7.2291,56
7.2662,66
7.3034,52
7.3405,64
7.3777,60
7.4148,61
7.4520,62
7.4891,74
7.5263,60
7.5634,62
7.6006,63
7.6377,67
7.6749,57
7.7120,66
7.7492,72
7.7863,77
7.8235,70
7.8606,60
7.8978,61
7.9349,66
7.9721,58
8.0092,57
8.0464,84
8.0835,57
8.1207,65
8.1579,68
8.1950,83
8.2322,65
8.2693,85
8.3065,70
8.3436,76
8.3808,80
8.4179,69
8.4551,77
8.4922,70
8.5294,76
8.5665,86
8.6037,82
8.6408,71
8.6780,74
8.7151,91
8.7523,104
8.7894,84
8.8266,84
8.8637,85
8.9009,73
8.9380,76
8.9752,68
9.0123,74
9.0495,87
9.0866,83
9.1238,69
9.1609,75
9.1981,77
9.2352,69
9.2724,70
9.3095,80
9.3467,73
9.3838,83
9.4210,77
9.4581,81
9.4953,84
9.5324,77
9.5696,98
9.6067,86
9.6439,89
9.6811,77
9.7182,78
9.7554,77
9.7925,83
9.8297,88
9.8668,81
9.9040,87
9.9411,80
9.9783,98
10.0154,78
10.0526,84
10.0897,81
10.1269,87
10.1640,77
10.2012,99
10.2383,100
10.2755,92
10.3126,82
10.3498,91
10.3869,89
10.4241,90
10.4612,88
10.4984,90
10.5355,77
10.5727,85
10.6098,79
10.6470,72
10.6841,101
10.7213,84
10.7584,85
10.7956,90
10.8327,96
10.8699,84
10.9070,106
10.9442,91
10.9813,96
11.0185,80
11.0556,80
11.0928,74
11.1299,92
11.1671,70
11.2043,82
11.2414,99
11.2786,84
11.3157,87
11.3529,95
11.3900,82
11.4272,73
11.4643,90
11.5015,86
11.5386,72
11.5758,103
11.6129,86
11.6501,77
11.6872,95
11.7244,77
11.7615,73
11.7987,90
11.8358,84
11.8730,79
11.9101,89
11.9473,84
11.9844,90
12.0216,102
12.0587,88
12.0959,85
12.1330,90
12.1702,85
12.2073,78
12.2445,85
12.2816,77
12.3188,86
12.3559,84
12.3931,69
12.4302,88
12.4674,79
12.5045,75
12.5417,75
12.5788,89
12.6160,86
12.6531,79
12.6903,80
12.7274,66
12.7646,83
12.8018,74
12.8389,82
12.8761,72
12.9132,91
12.9504,74
12.9875,83
13.0247,68
13.0618,70
13.0990,71
13.1361,75
13.1733,77
13.2104,68
13.2476,69
13.2847,76
13.3219,77
13.3590,68
13.3962,82
13.4333,70
13.4705,63
13.5076,84
13.5448,61
13.5819,72
13.6191,53
13.6562,70
13.6934,79
13.7305,62
13.7677,72
13.8048,68
13.8420,67
13.8791,63
13.9163,67
13.9534,69
13.9906,55
14.0277,78
14.0649,59
14.1020,63
14.1392,78
14.1763,71
14.2135,65
14.2506,80
14.2878,89
14.3250,68
14.3621,64
14.3993,63
14.4364,66
14.4736,58
14.5107,71
14.5479,61
14.5850,74
14.6222,66
14.6593,58
14.6965,61
14.7336,70
14.7708,75
14.8079,66
14.8451,58
14.8822,45
14.9194,58
14.9565,71
14.9937,61
15.0308,64
15.0680,54
15.1051,61
15.1423,65
15.1794,62
15.2166,66
15.2537,59
15.2909,61
15.3280,65
15.3652,54
15.4023,60
15.4395,53
15.4766,65
15.5138,61
15.5509,58
15.5881,66
15.6252,52
15.6624,53
15.6995,68
15.7367,60
15.7738,65
15.8110,59
15.8482,56
15.8853,47
15.9225,53
15.9596,46
15.9968,68
16.0339,62
16.0711,62
16.1082,66
16.1454,65
16.1825,46
16.2197,66
16.2568,76
16.2940,54
16.3311,57
16.3683,70
16.4054,75
16.4426,66
16.4797,62
16.5169,79
16.5540,46
16.5912,51
16.6283,62
16.6655,61
16.7026,52
16.7398,40
16.7769,65
16.8141,85
16.8512,61
16.8884,60
16.9255,63
16.9627,63
16.9998,64
17.0370,60
17.0741,64
17.1113,76
17.1484,59
17.1856,51
17.2227,58
17.2599,67
17.2970,52
17.3342,59
17.3713,61
17.4085,58
17.4457,64
17.4828,64
17.5200,45
17.5571,47
17.5943,60
17.6314,50
17.6686,58
17.7057,58
17.7429,61
17.7800,65
17.8172,71
17.8543,60
17.8915,66
17.9286,70
17.9658,52
18.0029,62
18.0401,68
18.0772,67
18.1144,68
18.1515,64
18.1887,46
18.2258,64
18.2630,52
18.3001,71
18.3373,67
18.3744,56
18.4116,80
18.4487,65
18.4859,70
18.5230,78
18.5602,58
18.5973,63
18.6345,61
18.6716,57
18.7088,45
18.7459,69
18.7831,65
18.8202,67
18.8574,60
18.8945,60
18.9317,57
18.9689,63
19.0060,65
19.0432,60
19.0803,55
19.1175,60
19.1546,59
19.1918,45
19.2289,67
19.2661,77
19.3032,53
19.3404,69
19.3775,73
19.4147,51
19.4518,59
19.4890,70
19.5261,61
19.5633,53
19.6004,58
19.6376,63
19.6747,70
19.7119,69
19.7490,63
19.7862,64
19.8233,67
19.8605,71
19.8976,68
19.9348,68
19.9719,56
20.0091,58
20.0462,73
20.0834,72
20.1205,66
20.1577,69
20.1948,66
20.2320,67
20.2691,54
20.3063,64
20.3434,66
20.3806,74
20.4177,65
20.4549,60
20.4921,62
20.5292,50
20.5664,68
20.6035,53
20.6407,75
20.6778,66
20.7150,74
20.7521,66
20.7893,63
20.8264,70
20.8636,64
20.9007,71
20.9379,80
20.9750,77
21.0122,78
21.0493,89
21.0865,88
21.1236,91
21.1608,92
21.1979,98
21.2351,120
21.2722,114
21.3094,132
21.3465,181
21.3837,158
21.4208,118
21.4580,66
21.4951,76
21.5323,80
21.5694,67
21.6066,80
21.6437,76
21.6809,71
21.7180,88
21.7552,61
21.7923,74
21.8295,62
21.8666,59
21.9038,69
21.9409,57
21.9781,60
22.0152,69
22.0524,71
22.0896,69
22.1267,62
22.1639,69
22.2010,74
22.2382,83
22.2753,62
22.3125,79
22.3496,67
22.3868,70
22.4239,80
22.4611,92
22.4982,69
22.5354,86
22.5725,77
22.6097,70
22.6468,63
22.6840,67
22.7211,70
22.7583,80
22.7954,75
22.8326,66
22.8697,69
22.9069,73
22.9440,70
22.9812,66
23.0183,73
23.0555,65
23.0926,83
23.1298,72
23.1669,76
23.2041,69
23.2412,70
23.2784,64
23.3155,83
23.3527,75
23.3898,64
23.4270,69
23.4641,68
23.5013,79
23.5384,60
23.5756,83
23.6128,81
23.6499,69
23.6871,73
23.7242,82
23.7614,73
23.7985,70
23.8357,68
23.8728,79
23.9100,79
23.9471,81
23.9843,80
24.0214,77
24.0586,71
24.0957,80
24.1329,51
24.1700,73
24.2072,73
24.2443,76
24.2815,91
24.3186,86
24.3558,74
24.3929,83
24.4301,68
24.4672,81
24.5044,73
24.5415,59
24.5787,57
24.6158,65
24.6530,89
24.6901,57
24.7273,68
24.7644,83
24.8016,76
24.8387,62
24.8759,67
24.9130,78
24.9502,82
24.9873,70
25.0245,68
25.0616,72
25.0988,75
25.1360,71
25.1731,80
25.2103,91
25.2474,53
25.2846,88
25.3217,87
25.3589,76
25.3960,76
25.4332,70
25.4703,66
25.5075,82
25.5446,90
25.5818,55
25.6189,67
25.6561,78
25.6932,71
25.7304,76
25.7675,79
25.8047,76
25.8418,67
25.8790,68
25.9161,78
25.9533,68
25.9904,60
26.0276,73
26.0647,80
26.1019,85
26.1390,78
26.1762,47
26.2133,89
26.2505,59
26.2876,70
26.3248,51
26.3619,69
26.3991,66
26.4362,69
26.4734,76
26.5105,66
26.5477,86
26.5848,71
26.6220,66
26.6591,67
26.6963,57
26.7335,64
26.7706,64
26.8078,72
26.8449,75
26.8821,69
26.9192,68
26.9564,74
26.9935,73
27.0307,74
27.0678,73
27.1050,77
27.1421,84
27.1793,81
27.2164,100
27.2536,86
27.2907,74
27.3279,73
27.3650,67
27.4022,65
27.4393,78
27.4765,60
27.5136,74
27.5508,68
27.5879,73
27.6251,57
27.6622,49
27.6994,55
27.7365,75
27.7737,75
27.8108,62
27.8480,66
27.8851,54
27.9223,54
27.9594,71
27.9966,51
28.0337,74
28.0709,66
28.1080,63
28.1452,60
28.1823,69
28.2195,62
28.2567,57
28.2938,62
28.3310,71
28.3681,68
28.4053,58
28.4424,66
28.4796,63
28.5167,73
28.5539,47
28.5910,60
28.6282,71
28.6653,73
28.7025,68
28.7396,63
28.7768,53
28.8139,73
28.8511,42
28.8882,60
28.9254,66
28.9625,59
28.9997,63
29.0368,52
29.0740,70
29.1111,51
29.1483,58
29.1854,65
29.2226,59
29.2597,66
29.2969,61
29.3340,56
29.3712,55
29.4083,62
29.4455,60
29.4826,59
29.5198,52
29.5569,62
29.5941,62
29.6312,50
29.6684,56
29.7055,58
29.7427,48
29.7799,48
29.8170,53
29.8542,37
29.8913,43
29.9285,61
29.9656,53
30.0028,65
30.0399,60
30.0771,66
30.1142,58
30.1514,53
30.1885,54
30.2257,74
30.2628,55
30.3000,58
30.3371,55
30.3743,99
30.4114,76
30.4486,101
30.4857,92
30.5229,76
30.5600,57
30.5972,42
30.6343,47
30.6715,61
30.7086,51
30.7458,54
30.7829,48
30.8201,58
30.8572,41
30.8944,56
30.9315,43
30.9687,51
31.0058,59
31.0430,51
31.0801,59
31.1173,47
31.1544,45
31.1916,52
31.2287,48
31.2659,53
31.3030,49
31.3402,63
31.3774,70
31.4145,52
31.4517,54
31.4888,50
31.5260,47
31.5631,61
31.6003,70
31.6374,45
31.6746,47
31.7117,60
31.7489,46
31.7860,46
31.8232,54
31.8603,62
31.8975,50
31.9346,57
31.9718,61
32.0089,47
32.0461,36
32.0832,46
32.1204,48
32.1575,46
32.1947,47
32.2318,65
32.2690,53
32.3061,60
32.3433,43
32.3804,44
32.4176,54
32.4547,45
32.4919,54
32.5290,44
32.5662,53
32.6033,34
32.6405,49
32.6776,45
32.7148,57
32.7519,44
32.7891,38
32.8262,33
32.8634,35
32.9006,45
32.9377,49
32.9749,40
33.0120,45
33.0492,45
33.0863,39
33.1235,48
33.1606,36
33.1978,34
33.2349,56
33.2721,36
33.3092,42
33.3464,41
33.3835,45
33.4207,47
33.4578,38
33.4950,36
33.5321,44
33.5693,38
33.6064,51
33.6436,41
33.6807,43
33.7179,35
33.7550,40
33.7922,39
33.8293,59
33.8665,40
33.9036,45
33.9408,44
33.9779,48
34.0151,38
34.0522,41
34.0894,53
34.1265,51
34.1637,31
34.2008,40
34.2380,40
34.2751,50
34.3123,44
34.3494,42
34.3866,48
34.4238,56
34.4609,40
34.4981,46
34.5352,28
34.5724,31
34.6095,49
34.6467,55
34.6838,46
34.7210,56
34.7581,55
34.7953,68
34.8324,44
34.8696,60
34.9067,46
34.9439,42
34.9810,30
35.0182,39
35.0553,53
35.0925,40
35.1296,38
35.1668,29
35.2039,35
35.2411,30
35.2782,38
35.3154,33
35.3525,40
35.3897,38
35.4268,29
35.4640,35
35.5011,39
35.5383,32
35.5754,32
35.6126,33
35.6497,35
35.6869,32
35.7240,39
35.7612,39
35.7983,32
35.8355,29
35.8726,27
35.9098,47
35.9469,41
35.9841,36
36.0213,24
36.0584,31
36.0956,31
36.1327,27
36.1699,34
36.2070,30
36.2442,42
36.2813,33
36.3185,35
36.3556,39
36.3928,35
36.4299,35
36.4671,45
36.5042,30
36.5414,39
36.5785,41
36.6157,29
36.6528,33
36.6900,30
36.7271,31
36.7643,29
36.8014,36
36.8386,36
36.8757,34
36.9129,41
36.9500,38
36.9872,31
37.0243,29
37.0615,40
37.0986,38
37.1358,40
37.1729,38
37.2101,29
37.2472,33
37.2844,31
37.3215,33
37.3587,25
37.3958,39
37.4330,49
37.4701,58
37.5073,52
37.5445,44
37.5816,39
37.6188,28
37.6559,21
37.6931,30
37.7302,27
37.7674,44
37.8045,35
37.8417,48
37.8788,19
37.9160,35
37.9531,31
37.9903,21
38.0274,33
38.0646,18
38.1017,28
38.1389,38
38.1760,33
38.2132,35
38.2503,36
38.2875,31
38.3246,32
38.3618,37
38.3989,34
38.4361,28
38.4732,44
38.5104,35
38.5475,31
38.5847,29
38.6218,29
38.6590,41
38.6961,40
38.7333,31
38.7704,26
38.8076,18
38.8447,32
38.8819,47
38.9190,34
38.9562,33
38.9933,23
39.0305,27
39.0677,34
39.1048,32
39.1420,28
39.1791,44
39.2163,28
39.2534,31
39.2906,30
39.3277,20
39.3649,29
39.4020,29
39.4392,21
39.4763,50
39.5135,29
39.5506,22
39.5878,21
39.6249,28
39.6621,33
39.6992,33
39.7364,26
39.7735,38
39.8107,33
39.8478,32
39.8850,30
39.9221,32
39.9593,31
39.9964,29
40.0336,28
40.0707,25
40.1079,30
40.1450,42
40.1822,37
40.2193,25
40.2565,31
40.2936,32
40.3308,33
40.3679,29
40.4051,33
40.4422,30
40.4794,23
40.5165,26
40.5537,30
40.5908,29
40.6280,29
40.6652,29
40.7023,33
40.7395,22
40.7766,27
40.8138,26
40.8509,32
40.8881,27
40.9252,25
40.9624,20
40.9995,36
41.0367,32
41.0738,27
41.1110,16
41.1481,23
41.1853,25
41.2224,29
41.2596,23
41.2967,22
41.3339,28
41.3710,32
41.4082,36
41.4453,30
41.4825,22
41.5196,30
41.5568,30
41.5939,25
41.6311,27
41.6682,24
41.7054,25
41.7425,28
41.7797,34
41.8168,23
41.8540,31
41.8911,28
41.9283,25
41.9654,29
42.0026,28
42.0397,30
42.0769,32
42.1140,28
42.1512,22
42.1884,40
42.2255,32
42.2627,34
42.2998,24
42.3370,22
42.3741,28
42.4113,20
42.4484,24
42.4856,27
42.5227,16
42.5599,26
42.5970,30
42.6342,34
42.6713,40
42.7085,31
42.7456,29
42.7828,38
42.8199,24
42.8571,28
42.8942,27
42.9314,27
42.9685,32
43.0057,29
43.0428,20
43.0800,28
43.1171,35
43.1543,30
43.1914,29
43.2286,35
43.2657,33
43.3029,35
43.3400,31
43.3772,28
43.4143,35
43.4515,27
43.4886,46
43.5258,33
43.5629,30
43.6001,47
43.6372,38
43.6744,22
43.7116,33
43.7487,30
43.7859,39
43.8230,27
43.8602,28
43.8973,33
43.9345,28
43.9716,30
44.0088,34
44.0459,27
44.0831,35
44.1202,27
44.1574,22
44.1945,30
44.2317,34
44.2688,21
44.3060,26
44.3431,30
44.3803,30
44.4174,25
44.4546,29
44.4917,29
44.5289,27
44.5660,34
44.6032,31
44.6403,37
44.6775,33
44.7146,31
44.7518,28
44.7889,29
44.8261,26
44.8632,22
44.9004,24
44.9375,26
44.9747,29
45.0118,33
45.0490,29
45.0861,31
45.1233,19
45.1604,35
45.1976,22
45.2347,26
45.2719,25
45.3091,24
45.3462,19
45.3834,20
45.4205,26
45.4577,26
45.4948,32
45.5320,22
45.5691,26
45.6063,22
45.6434,24
45.6806,28
45.7177,20
45.7549,30
45.7920,27
45.8292,22
45.8663,40
45.9035,33
45.9406,24
45.9778,32
46.0149,27
46.0521,32
46.0892,28
46.1264,30
46.1635,20
46.2007,16
46.2378,16
46.2750,16
46.3121,27
46.3493,25
46.3864,35
46.4236,28
46.4607,25
46.4979,26
46.5350,29
46.5722,28
46.6093,21
46.6465,25
46.6836,24
46.7208,27
46.7579,19
46.7951,25
46.8323,23
46.8694,31
46.9066,23
46.9437,18
46.9809,23
47.0180,23
47.0552,24
47.0923,23
47.1295,22
47.1666,20
47.2038,29
47.2409,26
47.2781,16
47.3152,26
47.3524,21
47.3895,25
47.4267,22
47.4638,18
47.5010,20
47.5381,23
47.5753,16
47.6124,23
47.6496,33
47.6867,13
47.7239,15
47.7610,16
47.7982,24
47.8353,26
47.8725,18
47.9096,11
47.9468,15
47.9839,28
48.0211,15
48.0582,27
48.0954,29
48.1325,28
48.1697,20
48.2068,17
48.2440,23
48.2811,25
48.3183,14
48.3555,28
48.3926,41
48.4298,31
48.4669,26
48.5041,22
48.5412,27
48.5784,29
48.6155,22
48.6527,18
48.6898,29
48.7270,30
48.7641,24
48.8013,26
48.8384,18
48.8756,26
48.9127,34
48.9499,45
48.9870,39
49.0242,18
49.0613,43
49.0985,34
49.1356,19
49.1728,25
49.2099,25
49.2471,25
49.2842,24
49.3214,24
49.3585,22
49.3957,22
49.4328,18
49.4700,20
49.5071,21
49.5443,23
49.5814,18
49.6186,20
49.6557,12
49.6929,28
49.7300,39
49.7672,20
49.8043,35
49.8415,20
49.8786,30
49.9158,24
49.9530,19
49.9901,23
50.0273,26
50.0644,19
50.1016,21
50.1387,27
50.1759,22
50.2130,19
50.2502,18
50.2873,21
50.3245,24
50.3616,31
50.3988,20
50.4359,30
50.4731,22
50.5102,20
50.5474,23
50.5845,25
50.6217,29
50.6588,26
50.6960,22
50.7331,24
50.7703,19
50.8074,13
50.8446,20
50.8817,21
50.9189,21
50.9560,23
50.9932,28
51.0303,28
51.0675,20
51.1046,27
51.1418,19
51.1789,18
51.2161,25
51.2532,22
51.2904,24
51.3275,35
51.3647,25
51.4018,23
51.4390,28
51.4762,25
51.5133,26
51.5505,23
51.5876,21
51.6248,26
51.6619,18
51.6991,19
51.7362,25
51.7734,16
51.8105,21
51.8477,21
51.8848,23
51.9220,20
51.9591,25
51.9963,15
52.0334,15
52.0706,19
52.1077,22
52.1449,21
52.1820,21
52.2192,26
52.2563,15
52.2935,19
52.3306,15
52.3678,24
52.4049,32
52.4421,22
52.4792,21
52.5164,22
52.5535,12
52.5907,17
52.6278,25
52.6650,20
52.7021,20
52.7393,17
52.7764,28
52.8136,20
52.8507,20
52.8879,27
52.9250,21
52.9622,27
52.9994,28
53.0365,20
53.0737,22
53.1108,19
53.1480,26
53.1851,20
53.2223,26
53.2594,23
53.2966,25
53.3337,19
53.3709,21
53.4080,20
53.4452,19
53.4823,21
53.5195,20
53.5566,13
53.5938,21
53.6309,28
53.6681,19
53.7052,14
53.7424,25
53.7795,24
53.8167,20
53.8538,19
53.8910,22
53.9281,23
53.9653,26
54.0024,21
54.0396,28
54.0767,14
54.1139,38
54.1510,24
54.1882,23
54.2253,35
54.2625,29
54.2996,23
54.3368,24
54.3739,22
54.4111,24
54.4482,26
54.4854,20
54.5225,27
54.5597,22
54.5969,18
54.6340,18
54.6712,7
54.7083,27
54.7455,22
54.7826,16
54.8198,25
54.8569,16
54.8941,21
54.9312,19
54.9684,23
55.0055,18
55.0427,28
55.0798,21
55.1170,18
55.1541,15
55.1913,15
55.2284,19
55.2656,19
55.3027,19
55.3399,20
55.3770,11
55.4142,24
55.4513,19
55.4885,20
55.5256,21
55.5628,18
55.5999,13
55.6371,25
55.6742,19
55.7114,15
55.7485,22
55.7857,17
55.8228,29
55.8600,25
55.8971,21
55.9343,32
55.9714,27
56.0086,13
56.0457,24
56.0829,23
56.1201,24
56.1572,20
56.1944,23
56.2315,25
56.2687,23
56.3058,26
56.3430,19
56.3801,38
56.4173,21
56.4544,19
56.4916,18
56.5287,20
56.5659,28
56.6030,29
56.6402,23
56.6773,26
56.7145,19
56.7516,24
56.7888,18
56.8259,19
56.8631,26
56.9002,23
56.9374,22
56.9745,19
57.0117,27
57.0488,18
57.0860,23
57.1231,24
57.1603,25
57.1974,23
57.2346,19
57.2717,21
57.3089,16
57.3460,18
57.3832,14
57.4203,16
57.4575,22
57.4946,18
57.5318,21
57.5689,24
57.6061,24
57.6433,21
57.6804,19
57.7176,25
57.7547,26
57.7919,20
57.8290,25
57.8662,27
57.9033,20
57.9405,21
57.9776,18
58.0148,23
58.0519,27
58.0891,18
58.1262,19
58.1634,17
58.2005,30
58.2377,18
58.2748,27
58.3120,16
58.3491,20
58.3863,25
58.4234,14
58.4606,20
58.4977,20
58.5349,31
58.5720,17
58.6092,21
58.6463,21
58.6835,26
58.7206,22
58.7578,20
58.7949,17
58.8321,16
58.8692,14
58.9064,14
58.9435,17
58.9807,21
59.0178,20
59.0550,22
59.0921,19
59.1293,19
59.1664,23
59.2036,23
59.2408,19
59.2779,23
59.3151,16
59.3522,20
59.3894,18
59.4265,20
59.4637,15
59.5008,25
59.5380,22
59.5751,21
59.6123,17
59.6494,18
59.6866,27
59.7237,14
59.7609,25
59.7980,20
59.8352,22
59.8723,24
59.9095,15
59.9466,20
59.9838,21
60.0024,16