File: notebooks/data/xrd_data/ML_20220718_48_SJD_4_LaB6-4min.csv
;,2THETA,
5.0000,259
5.0372,282
5.0743,234
5.1115,271
5.1486,264
5.1858,252
5.2229,268
5.2601,242
5.2972,229
5.3344,249
5.3715,208
5.4087,246
5.4458,205
5.4830,219
5.5201,207
5.5573,232
5.5944,231
5.6316,205
5.6687,219
5.7059,222
5.7430,233
5.7802,233
5.8173,239
5.8545,213
5.8916,211
5.9288,205
5.9659,210
6.0031,191
6.0402,196
6.0774,198
6.1145,167
6.1517,159
6.1888,215
6.2260,185
6.2631,179
6.3003,188
6.3374,155
6.3746,150
6.4117,176
6.4489,227
6.4860,177
6.5232,180
6.5604,185
6.5975,171
6.6347,181
6.6718,162
6.7090,176
6.7461,175
6.7833,168
6.8204,169
6.8576,175
6.8947,180
6.9319,151
6.9690,171
7.0062,157
7.0433,165
7.0805,159
7.1176,153
7.1548,182
7.1919,143
7.2291,170
7.2662,153
7.3034,149
7.3405,153
7.3777,152
7.4148,150
7.4520,166
7.4891,140
7.5263,186
7.5634,176
7.6006,149
7.6377,144
7.6749,189
7.7120,165
7.7492,161
7.7863,174
7.8235,187
7.8606,171
7.8978,184
7.9349,185
7.9721,181
8.0092,178
8.0464,169
8.0835,164
8.1207,199
8.1579,185
8.1950,178
8.2322,183
8.2693,187
8.3065,191
8.3436,187
8.3808,194
8.4179,192
8.4551,214
8.4922,219
8.5294,171
8.5665,211
8.6037,191
8.6408,179
8.6780,185
8.7151,191
8.7523,209
8.7894,210
8.8266,230
8.8637,218
8.9009,220
8.9380,202
8.9752,213
9.0123,204
9.0495,210
9.0866,206
9.1238,202
9.1609,201
9.1981,223
9.2352,230
9.2724,214
9.3095,249
9.3467,231
9.3838,225
9.4210,215
9.4581,217
9.4953,230
9.5324,217
9.5696,216
9.6067,226
9.6439,210
9.6811,228
9.7182,226
9.7554,238
9.7925,249
9.8297,210
9.8668,221
9.9040,238
9.9411,257
9.9783,232
10.0154,250
10.0526,238
10.0897,231
10.1269,246
10.1640,247
10.2012,245
10.2383,260
10.2755,230
10.3126,244
10.3498,268
10.3869,227
10.4241,214
10.4612,214
10.4984,228
10.5355,258
10.5727,239
10.6098,239
10.6470,217
10.6841,274
10.7213,235
10.7584,228
10.7956,242
10.8327,252
10.8699,225
10.9070,250
10.9442,243
10.9813,228
11.0185,246
11.0556,261
11.0928,211
11.1299,209
11.1671,254
11.2043,220
11.2414,243
11.2786,239
11.3157,244
11.3529,234
11.3900,223
11.4272,256
11.4643,256
11.5015,247
11.5386,215
11.5758,223
11.6129,224
11.6501,200
11.6872,233
11.7244,245
11.7615,209
11.7987,203
11.8358,245
11.8730,224
11.9101,241
11.9473,245
11.9844,234
12.0216,225
12.0587,212
12.0959,228
12.1330,222
12.1702,224
12.2073,235
12.2445,215
12.2816,205
12.3188,231
12.3559,214
12.3931,255
12.4302,191
12.4674,240
12.5045,228
12.5417,241
12.5788,224
12.6160,225
12.6531,206
12.6903,219
12.7274,170
12.7646,217
12.8018,237
12.8389,233
12.8761,195
12.9132,204
12.9504,201
12.9875,211
13.0247,210
13.0618,166
13.0990,210
13.1361,189
13.1733,209
13.2104,189
13.2476,176
13.2847,194
13.3219,177
13.3590,205
13.3962,201
13.4333,181
13.4705,180
13.5076,204
13.5448,189
13.5819,197
13.6191,190
13.6562,195
13.6934,172
13.7305,194
13.7677,191
13.8048,204
13.8420,193
13.8791,211
13.9163,209
13.9534,193
13.9906,174
14.0277,197
14.0649,185
14.1020,201
14.1392,159
14.1763,184
14.2135,176
14.2506,185
14.2878,181
14.3250,153
14.3621,173
14.3993,163
14.4364,192
14.4736,159
14.5107,187
14.5479,171
14.5850,142
14.6222,188
14.6593,168
14.6965,154
14.7336,182
14.7708,176
14.8079,159
14.8451,185
14.8822,167
14.9194,167
14.9565,160
14.9937,165
15.0308,172
15.0680,188
15.1051,175
15.1423,171
15.1794,170
15.2166,175
15.2537,166
15.2909,158
15.3280,173
15.3652,173
15.4023,152
15.4395,192
15.4766,154
15.5138,151
15.5509,170
15.5881,153
15.6252,157
15.6624,160
15.6995,157
15.7367,168
15.7738,153
15.8110,168
15.8482,172
15.8853,177
15.9225,180
15.9596,191
15.9968,166
16.0339,160
16.0711,172
16.1082,139
16.1454,195
16.1825,173
16.2197,174
16.2568,170
16.2940,175
16.3311,162
16.3683,166
16.4054,182
16.4426,174
16.4797,150
16.5169,171
16.5540,150
16.5912,207
16.6283,150
16.6655,163
16.7026,154
16.7398,156
16.7769,161
16.8141,139
16.8512,156
16.8884,142
16.9255,159
16.9627,170
16.9998,155
17.0370,139
17.0741,157
17.1113,183
17.1484,151
17.1856,167
17.2227,168
17.2599,144
17.2970,173
17.3342,181
17.3713,163
17.4085,157
17.4457,142
17.4828,146
17.5200,167
17.5571,161
17.5943,154
17.6314,167
17.6686,159
17.7057,162
17.7429,160
17.7800,164
17.8172,165
17.8543,144
17.8915,157
17.9286,166
17.9658,148
18.0029,153
18.0401,153
18.0772,171
18.1144,177
18.1515,166
18.1887,173
18.2258,148
18.2630,155
18.3001,138
18.3373,159
18.3744,161
18.4116,179
18.4487,179
18.4859,171
18.5230,174
18.5602,171
18.5973,188
18.6345,168
18.6716,178
18.7088,156
18.7459,148
18.7831,158
18.8202,147
18.8574,193
18.8945,148
18.9317,163
18.9689,151
19.0060,168
19.0432,150
19.0803,140
19.1175,187
19.1546,150
19.1918,172
19.2289,185
19.2661,160
19.3032,170
19.3404,173
19.3775,133
19.4147,168
19.4518,187
19.4890,161
19.5261,154
19.5633,197
19.6004,181
19.6376,150
19.6747,165
19.7119,163
19.7490,154
19.7862,164
19.8233,181
19.8605,185
19.8976,174
19.9348,174
19.9719,181
20.0091,174
20.0462,195
20.0834,200
20.1205,174
20.1577,158
20.1948,186
20.2320,189
20.2691,176
20.3063,191
20.3434,180
20.3806,168
20.4177,169
20.4549,185
20.4921,200
20.5292,190
20.5664,188
20.6035,181
20.6407,189
20.6778,184
20.7150,193
20.7521,181
20.7893,208
20.8264,182
20.8636,181
20.9007,200
20.9379,216
20.9750,188
21.0122,206
21.0493,169
21.0865,204
21.1236,237
21.1608,231
21.1979,288
21.2351,343
21.2722,301
21.3094,289
21.3465,496
21.3837,456
21.4208,380
21.4580,223
21.4951,207
21.5323,219
21.5694,207
21.6066,195
21.6437,193
21.6809,185
21.7180,182
21.7552,181
21.7923,205
21.8295,171
21.8666,205
21.9038,190
21.9409,212
21.9781,217
22.0152,182
22.0524,215
22.0896,170
22.1267,195
22.1639,188
22.2010,208
22.2382,182
22.2753,186
22.3125,205
22.3496,198
22.3868,192
22.4239,173
22.4611,189
22.4982,197
22.5354,189
22.5725,215
22.6097,224
22.6468,171
22.6840,190
22.7211,196
22.7583,193
22.7954,208
22.8326,208
22.8697,204
22.9069,184
22.9440,238
22.9812,206
23.0183,174
23.0555,191
23.0926,185
23.1298,196
23.1669,218
23.2041,190
23.2412,200
23.2784,200
23.3155,210
23.3527,214
23.3898,207
23.4270,198
23.4641,195
23.5013,215
23.5384,182
23.5756,204
23.6128,204
23.6499,185
23.6871,206
23.7242,202
23.7614,225
23.7985,207
23.8357,177
23.8728,188
23.9100,218
23.9471,194
23.9843,197
24.0214,215
24.0586,210
24.0957,196
24.1329,211
24.1700,229
24.2072,209
24.2443,211
24.2815,220
24.3186,232
24.3558,225
24.3929,198
24.4301,199
24.4672,203
24.5044,207
24.5415,215
24.5787,203
24.6158,206
24.6530,190
24.6901,211
24.7273,206
24.7644,198
24.8016,202
24.8387,210
24.8759,204
24.9130,214
24.9502,193
24.9873,202
25.0245,199
25.0616,207
25.0988,201
25.1360,205
25.1731,210
25.2103,207
25.2474,180
25.2846,182
25.3217,197
25.3589,187
25.3960,180
25.4332,200
25.4703,166
25.5075,190
25.5446,185
25.5818,209
25.6189,200
25.6561,200
25.6932,170
25.7304,189
25.7675,174
25.8047,179
25.8418,178
25.8790,187
25.9161,196
25.9533,171
25.9904,195
26.0276,180
26.0647,198
26.1019,190
26.1390,171
26.1762,194
26.2133,177
26.2505,152
26.2876,211
26.3248,203
26.3619,176
26.3991,207
26.4362,196
26.4734,194
26.5105,191
26.5477,171
26.5848,203
26.6220,205
26.6591,187
26.6963,198
26.7335,175
26.7706,192
26.8078,171
26.8449,195
26.8821,192
26.9192,207
26.9564,200
26.9935,143
27.0307,187
27.0678,188
27.1050,187
27.1421,201
27.1793,226
27.2164,221
27.2536,232
27.2907,236
27.3279,189
27.3650,209
27.4022,175
27.4393,213
27.4765,187
27.5136,190
27.5508,184
27.5879,155
27.6251,189
27.6622,181
27.6994,175
27.7365,186
27.7737,174
27.8108,185
27.8480,159
27.8851,170
27.9223,175
27.9594,189
27.9966,167
28.0337,152
28.0709,165
28.1080,175
28.1452,163
28.1823,175
28.2195,155
28.2567,177
28.2938,160
28.3310,176
28.3681,156
28.4053,197
28.4424,170
28.4796,168
28.5167,163
28.5539,142
28.5910,165
28.6282,175
28.6653,177
28.7025,152
28.7396,167
28.7768,171
28.8139,155
28.8511,153
28.8882,168
28.9254,142
28.9625,181
28.9997,158
29.0368,144
29.0740,143
29.1111,157
29.1483,167
29.1854,172
29.2226,171
29.2597,132
29.2969,150
29.3340,152
29.3712,148
29.4083,174
29.4455,159
29.4826,173
29.5198,180
29.5569,150
29.5941,165
29.6312,152
29.6684,161
29.7055,155
29.7427,161
29.7799,136
29.8170,166
29.8542,140
29.8913,153
29.9285,132
29.9656,150
30.0028,156
30.0399,161
30.0771,154
30.1142,176
30.1514,161
30.1885,146
30.2257,169
30.2628,148
30.3000,169
30.3371,193
30.3743,349
30.4114,300
30.4486,237
30.4857,239
30.5229,150
30.5600,150
30.5972,173
30.6343,154
30.6715,142
30.7086,156
30.7458,137
30.7829,161
30.8201,143
30.8572,151
30.8944,131
30.9315,148
30.9687,136
31.0058,146
31.0430,167
31.0801,145
31.1173,134
31.1544,161
31.1916,133
31.2287,152
31.2659,130
31.3030,146
31.3402,131
31.3774,136
31.4145,137
31.4517,128
31.4888,121
31.5260,145
31.5631,131
31.6003,153
31.6374,140
31.6746,134
31.7117,135
31.7489,119
31.7860,116
31.8232,124
31.8603,110
31.8975,130
31.9346,120
31.9718,123
32.0089,132
32.0461,103
32.0832,145
32.1204,133
32.1575,142
32.1947,147
32.2318,151
32.2690,123
32.3061,113
32.3433,130
32.3804,139
32.4176,138
32.4547,163
32.4919,141
32.5290,148
32.5662,126
32.6033,117
32.6405,133
32.6776,132
32.7148,122
32.7519,120
32.7891,121
32.8262,128
32.8634,109
32.9006,105
32.9377,140
32.9749,110
33.0120,108
33.0492,119
33.0863,133
33.1235,119
33.1606,125
33.1978,132
33.2349,112
33.2721,110
33.3092,127
33.3464,117
33.3835,124
33.4207,113
33.4578,124
33.4950,125
33.5321,137
33.5693,139
33.6064,105
33.6436,100
33.6807,122
33.7179,119
33.7550,105
33.7922,135
33.8293,125
33.8665,110
33.9036,128
33.9408,114
33.9779,102
34.0151,114
34.0522,116
34.0894,113
34.1265,102
34.1637,103
34.2008,113
34.2380,120
34.2751,126
34.3123,129
34.3494,101
34.3866,114
34.4238,111
34.4609,111
34.4981,126
34.5352,113
34.5724,114
34.6095,130
34.6467,119
34.6838,122
34.7210,132
34.7581,173
34.7953,172
34.8324,151
34.8696,140
34.9067,111
34.9439,128
34.9810,124
35.0182,102
35.0553,99
35.0925,112
35.1296,87
35.1668,116
35.2039,99
35.2411,120
35.2782,101
35.3154,104
35.3525,114
35.3897,113
35.4268,91
35.4640,97
35.5011,99
35.5383,115
35.5754,105
35.6126,115
35.6497,87
35.6869,95
35.7240,90
35.7612,102
35.7983,92
35.8355,116
35.8726,104
35.9098,114
35.9469,108
35.9841,116
36.0213,75
36.0584,91
36.0956,92
36.1327,98
36.1699,97
36.2070,88
36.2442,99
36.2813,104
36.3185,96
36.3556,92
36.3928,109
36.4299,87
36.4671,87
36.5042,84
36.5414,91
36.5785,77
36.6157,88
36.6528,79
36.6900,118
36.7271,109
36.7643,107
36.8014,79
36.8386,105
36.8757,105
36.9129,91
36.9500,93
36.9872,97
37.0243,94
37.0615,94
37.0986,104
37.1358,86
37.1729,107
37.2101,98
37.2472,82
37.2844,89
37.3215,100
37.3587,98
37.3958,111
37.4330,130
37.4701,139
37.5073,123
37.5445,112
37.5816,105
37.6188,90
37.6559,104
37.6931,91
37.7302,89
37.7674,88
37.8045,99
37.8417,94
37.8788,98
37.9160,68
37.9531,94
37.9903,77
38.0274,90
38.0646,82
38.1017,92
38.1389,87
38.1760,94
38.2132,77
38.2503,82
38.2875,84
38.3246,101
38.3618,82
38.3989,85
38.4361,72
38.4732,77
38.5104,98
38.5475,83
38.5847,90
38.6218,83
38.6590,79
38.6961,81
38.7333,72
38.7704,90
38.8076,94
38.8447,93
38.8819,92
38.9190,80
38.9562,86
38.9933,85
39.0305,83
39.0677,76
39.1048,74
39.1420,84
39.1791,72
39.2163,77
39.2534,78
39.2906,64
39.3277,76
39.3649,76
39.4020,74
39.4392,90
39.4763,75
39.5135,83
39.5506,85
39.5878,75
39.6249,73
39.6621,86
39.6992,69
39.7364,73
39.7735,70
39.8107,62
39.8478,61
39.8850,90
39.9221,94
39.9593,81
39.9964,87
40.0336,77
40.0707,65
40.1079,90
40.1450,67
40.1822,78
40.2193,72
40.2565,69
40.2936,61
40.3308,97
40.3679,79
40.4051,82
40.4422,58
40.4794,96
40.5165,78
40.5537,89
40.5908,91
40.6280,86
40.6652,89
40.7023,74
40.7395,68
40.7766,99
40.8138,72
40.8509,75
40.8881,89
40.9252,91
40.9624,98
40.9995,79
41.0367,87
41.0738,82
41.1110,73
41.1481,69
41.1853,80
41.2224,81
41.2596,61
41.2967,81
41.3339,97
41.3710,80
41.4082,68
41.4453,77
41.4825,71
41.5196,95
41.5568,75
41.5939,90
41.6311,80
41.6682,70
41.7054,66
41.7425,78
41.7797,76
41.8168,75
41.8540,72
41.8911,69
41.9283,70
41.9654,65
42.0026,67
42.0397,75
42.0769,76
42.1140,75
42.1512,82
42.1884,68
42.2255,65
42.2627,79
42.2998,85
42.3370,73
42.3741,72
42.4113,63
42.4484,80
42.4856,61
42.5227,65
42.5599,71
42.5970,67
42.6342,61
42.6713,59
42.7085,79
42.7456,82
42.7828,86
42.8199,75
42.8571,78
42.8942,87
42.9314,64
42.9685,68
43.0057,64
43.0428,75
43.0800,84
43.1171,88
43.1543,52
43.1914,90
43.2286,93
43.2657,90
43.3029,80
43.3400,91
43.3772,75
43.4143,94
43.4515,100
43.4886,139
43.5258,132
43.5629,83
43.6001,103
43.6372,88
43.6744,68
43.7116,86
43.7487,85
43.7859,71
43.8230,74
43.8602,73
43.8973,83
43.9345,70
43.9716,76
44.0088,68
44.0459,71
44.0831,71
44.1202,65
44.1574,73
44.1945,58
44.2317,56
44.2688,89
44.3060,67
44.3431,51
44.3803,69
44.4174,67
44.4546,77
44.4917,80
44.5289,82
44.5660,87
44.6032,68
44.6403,84
44.6775,69
44.7146,76
44.7518,90
44.7889,88
44.8261,76
44.8632,77
44.9004,85
44.9375,73
44.9747,76
45.0118,76
45.0490,75
45.0861,75
45.1233,67
45.1604,79
45.1976,64
45.2347,73
45.2719,78
45.3091,68
45.3462,61
45.3834,67
45.4205,76
45.4577,70
45.4948,76
45.5320,66
45.5691,64
45.6063,62
45.6434,58
45.6806,67
45.7177,69
45.7549,63
45.7920,72
45.8292,65
45.8663,63
45.9035,59
45.9406,59
45.9778,54
46.0149,72
46.0521,60
46.0892,72
46.1264,60
46.1635,58
46.2007,57
46.2378,71
46.2750,70
46.3121,67
46.3493,65
46.3864,61
46.4236,63
46.4607,68
46.4979,71
46.5350,76
46.5722,61
46.6093,62
46.6465,67
46.6836,57
46.7208,57
46.7579,82
46.7951,64
46.8323,66
46.8694,69
46.9066,60
46.9437,63
46.9809,72
47.0180,64
47.0552,70
47.0923,69
47.1295,64
47.1666,68
47.2038,65
47.2409,65
47.2781,71
47.3152,59
47.3524,76
47.3895,66
47.4267,78
47.4638,71
47.5010,57
47.5381,69
47.5753,79
47.6124,65
47.6496,65
47.6867,68
47.7239,72
47.7610,58
47.7982,67
47.8353,60
47.8725,62
47.9096,75
47.9468,57
47.9839,71
48.0211,70
48.0582,64
48.0954,51
48.1325,57
48.1697,54
48.2068,54
48.2440,66
48.2811,63
48.3183,61
48.3555,60
48.3926,66
48.4298,64
48.4669,71
48.5041,63
48.5412,61
48.5784,67
48.6155,63
48.6527,53
48.6898,66
48.7270,60
48.7641,70
48.8013,64
48.8384,61
48.8756,75
48.9127,78
48.9499,104
48.9870,94
49.0242,74
49.0613,90
49.0985,92
49.1356,72
49.1728,75
49.2099,54
49.2471,54
49.2842,61
49.3214,55
49.3585,59
49.3957,52
49.4328,67
49.4700,56
49.5071,55
49.5443,66
49.5814,73
49.6186,54
49.6557,54
49.6929,51
49.7300,71
49.7672,52
49.8043,60
49.8415,60
49.8786,50
49.9158,68
49.9530,57
49.9901,70
50.0273,49
50.0644,64
50.1016,63
50.1387,61
50.1759,61
50.2130,60
50.2502,56
50.2873,70
50.3245,74
50.3616,71
50.3988,47
50.4359,64
50.4731,56
50.5102,59
50.5474,61
50.5845,64
50.6217,65
50.6588,66
50.6960,56
50.7331,65
50.7703,58
50.8074,76
50.8446,69
50.8817,69
50.9189,65
50.9560,53
50.9932,61
51.0303,65
51.0675,57
51.1046,62
51.1418,57
51.1789,53
51.2161,68
51.2532,57
51.2904,64
51.3275,62
51.3647,69
51.4018,79
51.4390,55
51.4762,64
51.5133,76
51.5505,68
51.5876,46
51.6248,63
51.6619,67
51.6991,63
51.7362,52
51.7734,63
51.8105,67
51.8477,60
51.8848,76
51.9220,68
51.9591,56
51.9963,61
52.0334,65
52.0706,69
52.1077,61
52.1449,54
52.1820,52
52.2192,62
52.2563,56
52.2935,49
52.3306,54
52.3678,54
52.4049,57
52.4421,50
52.4792,57
52.5164,55
52.5535,55
52.5907,52
52.6278,57
52.6650,64
52.7021,52
52.7393,54
52.7764,61
52.8136,61
52.8507,58
52.8879,57
52.9250,66
52.9622,57
52.9994,57
53.0365,59
53.0737,49
53.1108,53
53.1480,77
53.1851,62
53.2223,69
53.2594,45
53.2966,67
53.3337,69
53.3709,53
53.4080,60
53.4452,63
53.4823,67
53.5195,51
53.5566,59
53.5938,47
53.6309,61
53.6681,67
53.7052,64
53.7424,53
53.7795,40
53.8167,51
53.8538,62
53.8910,68
53.9281,64
53.9653,88
54.0024,75
54.0396,65
54.0767,69
54.1139,64
54.1510,71
54.1882,56
54.2253,58
54.2625,72
54.2996,48
54.3368,58
54.3739,66
54.4111,59
54.4482,64
54.4854,40
54.5225,66
54.5597,58
54.5969,62
54.6340,41
54.6712,47
54.7083,48
54.7455,55
54.7826,66
54.8198,53
54.8569,53
54.8941,46
54.9312,50
54.9684,48
55.0055,64
55.0427,56
55.0798,56
55.1170,70
55.1541,54
55.1913,57
55.2284,67
55.2656,53
55.3027,63
55.3399,68
55.3770,60
55.4142,51
55.4513,66
55.4885,43
55.5256,61
55.5628,67
55.5999,68
55.6371,53
55.6742,68
55.7114,66
55.7485,53
55.7857,45
55.8228,48
55.8600,57
55.8971,45
55.9343,55
55.9714,51
56.0086,56
56.0457,52
56.0829,64
56.1201,51
56.1572,64
56.1944,62
56.2315,63
56.2687,71
56.3058,68
56.3430,43
56.3801,56
56.4173,67
56.4544,70
56.4916,66
56.5287,52
56.5659,60
56.6030,52
56.6402,44
56.6773,57
56.7145,52
56.7516,58
56.7888,49
56.8259,52
56.8631,63
56.9002,68
56.9374,61
56.9745,50
57.0117,57
57.0488,47
57.0860,47
57.1231,48
57.1603,50
57.1974,69
57.2346,59
57.2717,61
57.3089,53
57.3460,68
57.3832,51
57.4203,53
57.4575,67
57.4946,59
57.5318,49
57.5689,50
57.6061,53
57.6433,49
57.6804,59
57.7176,59
57.7547,50
57.7919,57
57.8290,62
57.8662,49
57.9033,54
57.9405,64
57.9776,47
58.0148,55
58.0519,57
58.0891,44
58.1262,59
58.1634,58
58.2005,56
58.2377,60
58.2748,58
58.3120,57
58.3491,57
58.3863,47
58.4234,65
58.4606,49
58.4977,50
58.5349,47
58.5720,46
58.6092,64
58.6463,40
58.6835,42
58.7206,57
58.7578,50
58.7949,46
58.8321,53
58.8692,56
58.9064,63
58.9435,54
58.9807,60
59.0178,64
59.0550,60
59.0921,50
59.1293,56
59.1664,59
59.2036,57
59.2408,53
59.2779,61
59.3151,67
59.3522,45
59.3894,53
59.4265,47
59.4637,47
59.5008,45
59.5380,66
59.5751,55
59.6123,58
59.6494,57
59.6866,50
59.7237,45
59.7609,55
59.7980,57
59.8352,54
59.8723,62
59.9095,57
59.9466,38
59.9838,48
60.0024,49