File: notebooks/data/xrd_data/ML_20220718_22_SJD_4_LaB6-2min.csv
;,2THETA,
5.0000,132
5.0372,131
5.0743,143
5.1115,136
5.1486,135
5.1858,134
5.2229,120
5.2601,126
5.2972,116
5.3344,115
5.3715,132
5.4087,124
5.4458,108
5.4830,111
5.5201,111
5.5573,128
5.5944,110
5.6316,106
5.6687,99
5.7059,109
5.7430,115
5.7802,108
5.8173,91
5.8545,96
5.8916,101
5.9288,100
5.9659,117
6.0031,105
6.0402,99
6.0774,118
6.1145,94
6.1517,89
6.1888,92
6.2260,113
6.2631,87
6.3003,95
6.3374,98
6.3746,96
6.4117,97
6.4489,72
6.4860,96
6.5232,74
6.5604,73
6.5975,82
6.6347,82
6.6718,87
6.7090,89
6.7461,83
6.7833,97
6.8204,86
6.8576,98
6.8947,82
6.9319,83
6.9690,85
7.0062,88
7.0433,75
7.0805,75
7.1176,62
7.1548,76
7.1919,82
7.2291,98
7.2662,74
7.3034,87
7.3405,80
7.3777,84
7.4148,85
7.4520,93
7.4891,88
7.5263,96
7.5634,80
7.6006,90
7.6377,88
7.6749,96
7.7120,84
7.7492,95
7.7863,93
7.8235,103
7.8606,86
7.8978,105
7.9349,92
7.9721,85
8.0092,91
8.0464,115
8.0835,91
8.1207,89
8.1579,88
8.1950,86
8.2322,86
8.2693,95
8.3065,90
8.3436,103
8.3808,102
8.4179,82
8.4551,97
8.4922,115
8.5294,97
8.5665,105
8.6037,115
8.6408,101
8.6780,103
8.7151,112
8.7523,86
8.7894,96
8.8266,111
8.8637,120
8.9009,122
8.9380,98
8.9752,98
9.0123,120
9.0495,112
9.0866,105
9.1238,117
9.1609,121
9.1981,109
9.2352,120
9.2724,100
9.3095,106
9.3467,109
9.3838,114
9.4210,112
9.4581,112
9.4953,96
9.5324,131
9.5696,123
9.6067,126
9.6439,120
9.6811,108
9.7182,108
9.7554,115
9.7925,118
9.8297,132
9.8668,118
9.9040,112
9.9411,130
9.9783,117
10.0154,123
10.0526,112
10.0897,100
10.1269,132
10.1640,133
10.2012,100
10.2383,113
10.2755,125
10.3126,120
10.3498,118
10.3869,120
10.4241,118
10.4612,118
10.4984,118
10.5355,114
10.5727,120
10.6098,132
10.6470,114
10.6841,106
10.7213,130
10.7584,120
10.7956,123
10.8327,104
10.8699,126
10.9070,118
10.9442,98
10.9813,122
11.0185,131
11.0556,126
11.0928,127
11.1299,131
11.1671,106
11.2043,113
11.2414,97
11.2786,112
11.3157,96
11.3529,116
11.3900,131
11.4272,128
11.4643,115
11.5015,109
11.5386,113
11.5758,117
11.6129,132
11.6501,108
11.6872,133
11.7244,121
11.7615,123
11.7987,123
11.8358,125
11.8730,110
11.9101,112
11.9473,108
11.9844,101
12.0216,117
12.0587,106
12.0959,113
12.1330,112
12.1702,119
12.2073,135
12.2445,110
12.2816,112
12.3188,103
12.3559,109
12.3931,108
12.4302,115
12.4674,111
12.5045,86
12.5417,99
12.5788,106
12.6160,103
12.6531,94
12.6903,106
12.7274,106
12.7646,119
12.8018,93
12.8389,120
12.8761,101
12.9132,117
12.9504,103
12.9875,102
13.0247,111
13.0618,98
13.0990,112
13.1361,110
13.1733,113
13.2104,103
13.2476,89
13.2847,91
13.3219,82
13.3590,106
13.3962,105
13.4333,110
13.4705,109
13.5076,94
13.5448,108
13.5819,88
13.6191,101
13.6562,76
13.6934,91
13.7305,84
13.7677,106
13.8048,84
13.8420,91
13.8791,82
13.9163,81
13.9534,90
13.9906,86
14.0277,87
14.0649,85
14.1020,94
14.1392,90
14.1763,93
14.2135,88
14.2506,103
14.2878,83
14.3250,103
14.3621,100
14.3993,95
14.4364,96
14.4736,82
14.5107,86
14.5479,94
14.5850,92
14.6222,85
14.6593,86
14.6965,75
14.7336,80
14.7708,85
14.8079,93
14.8451,79
14.8822,92
14.9194,87
14.9565,69
14.9937,68
15.0308,99
15.0680,70
15.1051,83
15.1423,83
15.1794,104
15.2166,91
15.2537,83
15.2909,80
15.3280,90
15.3652,85
15.4023,78
15.4395,72
15.4766,85
15.5138,90
15.5509,88
15.5881,75
15.6252,86
15.6624,77
15.6995,88
15.7367,79
15.7738,95
15.8110,92
15.8482,68
15.8853,96
15.9225,61
15.9596,93
15.9968,87
16.0339,107
16.0711,80
16.1082,84
16.1454,84
16.1825,70
16.2197,83
16.2568,76
16.2940,77
16.3311,82
16.3683,86
16.4054,81
16.4426,70
16.4797,91
16.5169,97
16.5540,84
16.5912,65
16.6283,71
16.6655,86
16.7026,87
16.7398,75
16.7769,66
16.8141,97
16.8512,77
16.8884,84
16.9255,75
16.9627,69
16.9998,84
17.0370,86
17.0741,74
17.1113,65
17.1484,72
17.1856,69
17.2227,79
17.2599,71
17.2970,83
17.3342,85
17.3713,80
17.4085,80
17.4457,76
17.4828,67
17.5200,69
17.5571,69
17.5943,76
17.6314,67
17.6686,80
17.7057,84
17.7429,81
17.7800,82
17.8172,92
17.8543,103
17.8915,75
17.9286,72
17.9658,77
18.0029,72
18.0401,68
18.0772,81
18.1144,91
18.1515,81
18.1887,81
18.2258,72
18.2630,104
18.3001,97
18.3373,84
18.3744,83
18.4116,79
18.4487,68
18.4859,83
18.5230,75
18.5602,84
18.5973,77
18.6345,84
18.6716,85
18.7088,73
18.7459,80
18.7831,90
18.8202,77
18.8574,81
18.8945,74
18.9317,83
18.9689,93
19.0060,84
19.0432,80
19.0803,84
19.1175,81
19.1546,86
19.1918,84
19.2289,79
19.2661,92
19.3032,97
19.3404,86
19.3775,86
19.4147,97
19.4518,76
19.4890,89
19.5261,93
19.5633,69
19.6004,87
19.6376,92
19.6747,95
19.7119,78
19.7490,73
19.7862,96
19.8233,85
19.8605,75
19.8976,82
19.9348,95
19.9719,96
20.0091,87
20.0462,100
20.0834,79
20.1205,89
20.1577,89
20.1948,93
20.2320,97
20.2691,94
20.3063,83
20.3434,88
20.3806,98
20.4177,99
20.4549,85
20.4921,102
20.5292,98
20.5664,91
20.6035,86
20.6407,76
20.6778,97
20.7150,102
20.7521,94
20.7893,99
20.8264,105
20.8636,91
20.9007,108
20.9379,88
20.9750,101
21.0122,83
21.0493,87
21.0865,125
21.1236,105
21.1608,130
21.1979,146
21.2351,169
21.2722,152
21.3094,161
21.3465,244
21.3837,206
21.4208,182
21.4580,119
21.4951,106
21.5323,103
21.5694,95
21.6066,91
21.6437,102
21.6809,96
21.7180,108
21.7552,91
21.7923,98
21.8295,89
21.8666,100
21.9038,107
21.9409,104
21.9781,110
22.0152,99
22.0524,103
22.0896,99
22.1267,99
22.1639,89
22.2010,91
22.2382,98
22.2753,99
22.3125,86
22.3496,115
22.3868,105
22.4239,104
22.4611,107
22.4982,81
22.5354,118
22.5725,106
22.6097,97
22.6468,116
22.6840,85
22.7211,95
22.7583,78
22.7954,87
22.8326,89
22.8697,101
22.9069,101
22.9440,105
22.9812,91
23.0183,94
23.0555,97
23.0926,99
23.1298,106
23.1669,103
23.2041,94
23.2412,90
23.2784,98
23.3155,94
23.3527,102
23.3898,92
23.4270,99
23.4641,94
23.5013,115
23.5384,90
23.5756,93
23.6128,85
23.6499,102
23.6871,123
23.7242,81
23.7614,104
23.7985,107
23.8357,82
23.8728,96
23.9100,97
23.9471,114
23.9843,103
24.0214,108
24.0586,104
24.0957,101
24.1329,111
24.1700,98
24.2072,103
24.2443,115
24.2815,123
24.3186,121
24.3558,100
24.3929,99
24.4301,113
24.4672,85
24.5044,97
24.5415,92
24.5787,101
24.6158,97
24.6530,104
24.6901,76
24.7273,88
24.7644,96
24.8016,93
24.8387,99
24.8759,102
24.9130,91
24.9502,103
24.9873,87
25.0245,92
25.0616,91
25.0988,103
25.1360,101
25.1731,95
25.2103,89
25.2474,95
25.2846,118
25.3217,94
25.3589,90
25.3960,101
25.4332,87
25.4703,101
25.5075,90
25.5446,100
25.5818,118
25.6189,83
25.6561,101
25.6932,98
25.7304,115
25.7675,102
25.8047,97
25.8418,89
25.8790,92
25.9161,89
25.9533,90
25.9904,96
26.0276,92
26.0647,98
26.1019,95
26.1390,101
26.1762,88
26.2133,97
26.2505,88
26.2876,100
26.3248,99
26.3619,96
26.3991,100
26.4362,95
26.4734,107
26.5105,82
26.5477,114
26.5848,94
26.6220,87
26.6591,92
26.6963,79
26.7335,90
26.7706,92
26.8078,82
26.8449,102
26.8821,99
26.9192,94
26.9564,89
26.9935,93
27.0307,88
27.0678,98
27.1050,97
27.1421,103
27.1793,107
27.2164,118
27.2536,88
27.2907,110
27.3279,78
27.3650,105
27.4022,91
27.4393,98
27.4765,79
27.5136,97
27.5508,85
27.5879,108
27.6251,104
27.6622,91
27.6994,77
27.7365,85
27.7737,77
27.8108,77
27.8480,94
27.8851,87
27.9223,103
27.9594,85
27.9966,86
28.0337,80
28.0709,79
28.1080,90
28.1452,91
28.1823,97
28.2195,93
28.2567,82
28.2938,79
28.3310,76
28.3681,97
28.4053,87
28.4424,90
28.4796,87
28.5167,79
28.5539,73
28.5910,93
28.6282,87
28.6653,85
28.7025,73
28.7396,76
28.7768,73
28.8139,78
28.8511,85
28.8882,70
28.9254,90
28.9625,74
28.9997,80
29.0368,89
29.0740,72
29.1111,80
29.1483,82
29.1854,89
29.2226,97
29.2597,80
29.2969,75
29.3340,86
29.3712,72
29.4083,79
29.4455,78
29.4826,72
29.5198,77
29.5569,82
29.5941,64
29.6312,68
29.6684,86
29.7055,89
29.7427,88
29.7799,73
29.8170,74
29.8542,79
29.8913,79
29.9285,73
29.9656,75
30.0028,76
30.0399,79
30.0771,75
30.1142,77
30.1514,81
30.1885,76
30.2257,76
30.2628,97
30.3000,89
30.3371,96
30.3743,139
30.4114,153
30.4486,119
30.4857,92
30.5229,89
30.5600,66
30.5972,82
30.6343,77
30.6715,73
30.7086,76
30.7458,66
30.7829,72
30.8201,73
30.8572,73
30.8944,58
30.9315,64
30.9687,69
31.0058,72
31.0430,60
31.0801,72
31.1173,63
31.1544,65
31.1916,64
31.2287,52
31.2659,84
31.3030,63
31.3402,65
31.3774,71
31.4145,46
31.4517,56
31.4888,74
31.5260,69
31.5631,71
31.6003,70
31.6374,66
31.6746,51
31.7117,67
31.7489,72
31.7860,63
31.8232,65
31.8603,59
31.8975,53
31.9346,62
31.9718,56
32.0089,76
32.0461,56
32.0832,81
32.1204,72
32.1575,60
32.1947,71
32.2318,73
32.2690,63
32.3061,71
32.3433,62
32.3804,64
32.4176,81
32.4547,81
32.4919,70
32.5290,73
32.5662,65
32.6033,71
32.6405,67
32.6776,65
32.7148,69
32.7519,56
32.7891,55
32.8262,71
32.8634,64
32.9006,70
32.9377,69
32.9749,68
33.0120,54
33.0492,54
33.0863,86
33.1235,66
33.1606,66
33.1978,68
33.2349,71
33.2721,72
33.3092,74
33.3464,57
33.3835,61
33.4207,47
33.4578,54
33.4950,55
33.5321,60
33.5693,54
33.6064,62
33.6436,57
33.6807,56
33.7179,55
33.7550,72
33.7922,56
33.8293,62
33.8665,57
33.9036,65
33.9408,55
33.9779,50
34.0151,48
34.0522,59
34.0894,57
34.1265,72
34.1637,57
34.2008,49
34.2380,56
34.2751,60
34.3123,59
34.3494,74
34.3866,48
34.4238,58
34.4609,65
34.4981,49
34.5352,66
34.5724,63
34.6095,71
34.6467,55
34.6838,67
34.7210,73
34.7581,83
34.7953,65
34.8324,78
34.8696,78
34.9067,76
34.9439,63
34.9810,49
35.0182,59
35.0553,51
35.0925,66
35.1296,47
35.1668,49
35.2039,51
35.2411,56
35.2782,47
35.3154,48
35.3525,50
35.3897,61
35.4268,47
35.4640,50
35.5011,64
35.5383,46
35.5754,44
35.6126,65
35.6497,54
35.6869,49
35.7240,50
35.7612,54
35.7983,64
35.8355,43
35.8726,57
35.9098,50
35.9469,40
35.9841,45
36.0213,56
36.0584,48
36.0956,51
36.1327,44
36.1699,50
36.2070,41
36.2442,45
36.2813,48
36.3185,41
36.3556,51
36.3928,42
36.4299,51
36.4671,51
36.5042,40
36.5414,47
36.5785,54
36.6157,50
36.6528,45
36.6900,44
36.7271,58
36.7643,46
36.8014,39
36.8386,52
36.8757,40
36.9129,68
36.9500,38
36.9872,49
37.0243,43
37.0615,49
37.0986,43
37.1358,49
37.1729,43
37.2101,40
37.2472,45
37.2844,45
37.3215,53
37.3587,45
37.3958,55
37.4330,69
37.4701,72
37.5073,56
37.5445,65
37.5816,50
37.6188,53
37.6559,39
37.6931,47
37.7302,39
37.7674,40
37.8045,44
37.8417,41
37.8788,65
37.9160,47
37.9531,49
37.9903,43
38.0274,39
38.0646,49
38.1017,50
38.1389,45
38.1760,60
38.2132,47
38.2503,43
38.2875,34
38.3246,35
38.3618,44
38.3989,44
38.4361,43
38.4732,56
38.5104,62
38.5475,38
38.5847,51
38.6218,48
38.6590,46
38.6961,39
38.7333,48
38.7704,40
38.8076,40
38.8447,32
38.8819,50
38.9190,40
38.9562,41
38.9933,38
39.0305,46
39.0677,43
39.1048,42
39.1420,48
39.1791,47
39.2163,55
39.2534,42
39.2906,42
39.3277,48
39.3649,36
39.4020,32
39.4392,46
39.4763,32
39.5135,42
39.5506,44
39.5878,49
39.6249,46
39.6621,37
39.6992,40
39.7364,45
39.7735,22
39.8107,43
39.8478,41
39.8850,41
39.9221,41
39.9593,33
39.9964,49
40.0336,36
40.0707,46
40.1079,57
40.1450,43
40.1822,38
40.2193,36
40.2565,40
40.2936,31
40.3308,39
40.3679,39
40.4051,45
40.4422,45
40.4794,32
40.5165,38
40.5537,30
40.5908,41
40.6280,43
40.6652,44
40.7023,34
40.7395,37
40.7766,40
40.8138,40
40.8509,40
40.8881,34
40.9252,38
40.9624,32
40.9995,44
41.0367,33
41.0738,41
41.1110,39
41.1481,30
41.1853,30
41.2224,32
41.2596,45
41.2967,44
41.3339,47
41.3710,41
41.4082,43
41.4453,31
41.4825,45
41.5196,38
41.5568,34
41.5939,38
41.6311,47
41.6682,28
41.7054,40
41.7425,45
41.7797,36
41.8168,44
41.8540,37
41.8911,34
41.9283,44
41.9654,37
42.0026,29
42.0397,30
42.0769,33
42.1140,34
42.1512,40
42.1884,32
42.2255,23
42.2627,37
42.2998,42
42.3370,37
42.3741,30
42.4113,31
42.4484,40
42.4856,44
42.5227,36
42.5599,33
42.5970,31
42.6342,37
42.6713,43
42.7085,39
42.7456,36
42.7828,41
42.8199,34
42.8571,23
42.8942,24
42.9314,43
42.9685,45
43.0057,32
43.0428,39
43.0800,38
43.1171,36
43.1543,28
43.1914,44
43.2286,42
43.2657,47
43.3029,37
43.3400,33
43.3772,31
43.4143,58
43.4515,35
43.4886,64
43.5258,51
43.5629,48
43.6001,45
43.6372,52
43.6744,37
43.7116,29
43.7487,36
43.7859,38
43.8230,33
43.8602,43
43.8973,34
43.9345,35
43.9716,31
44.0088,30
44.0459,34
44.0831,26
44.1202,41
44.1574,32
44.1945,26
44.2317,47
44.2688,43
44.3060,25
44.3431,30
44.3803,33
44.4174,36
44.4546,30
44.4917,40
44.5289,48
44.5660,32
44.6032,37
44.6403,43
44.6775,41
44.7146,47
44.7518,36
44.7889,48
44.8261,38
44.8632,31
44.9004,32
44.9375,41
44.9747,36
45.0118,34
45.0490,38
45.0861,32
45.1233,41
45.1604,37
45.1976,36
45.2347,35
45.2719,40
45.3091,32
45.3462,43
45.3834,39
45.4205,40
45.4577,34
45.4948,30
45.5320,29
45.5691,34
45.6063,28
45.6434,30
45.6806,39
45.7177,37
45.7549,25
45.7920,27
45.8292,29
45.8663,49
45.9035,42
45.9406,27
45.9778,32
46.0149,32
46.0521,30
46.0892,32
46.1264,43
46.1635,26
46.2007,34
46.2378,28
46.2750,30
46.3121,21
46.3493,37
46.3864,33
46.4236,38
46.4607,38
46.4979,30
46.5350,35
46.5722,29
46.6093,36
46.6465,35
46.6836,34
46.7208,33
46.7579,46
46.7951,21
46.8323,22
46.8694,34
46.9066,34
46.9437,39
46.9809,25
47.0180,42
47.0552,25
47.0923,22
47.1295,36
47.1666,29
47.2038,41
47.2409,35
47.2781,28
47.3152,25
47.3524,36
47.3895,34
47.4267,39
47.4638,25
47.5010,31
47.5381,27
47.5753,35
47.6124,33
47.6496,27
47.6867,25
47.7239,28
47.7610,36
47.7982,26
47.8353,38
47.8725,25
47.9096,34
47.9468,41
47.9839,31
48.0211,41
48.0582,30
48.0954,26
48.1325,27
48.1697,29
48.2068,38
48.2440,33
48.2811,35
48.3183,31
48.3555,32
48.3926,28
48.4298,38
48.4669,23
48.5041,27
48.5412,33
48.5784,43
48.6155,24
48.6527,27
48.6898,34
48.7270,42
48.7641,35
48.8013,35
48.8384,30
48.8756,30
48.9127,38
48.9499,53
48.9870,49
49.0242,40
49.0613,39
49.0985,58
49.1356,39
49.1728,28
49.2099,50
49.2471,32
49.2842,32
49.3214,24
49.3585,27
49.3957,35
49.4328,32
49.4700,27
49.5071,31
49.5443,32
49.5814,26
49.6186,28
49.6557,29
49.6929,31
49.7300,27
49.7672,32
49.8043,24
49.8415,28
49.8786,31
49.9158,28
49.9530,26
49.9901,38
50.0273,28
50.0644,35
50.1016,32
50.1387,32
50.1759,42
50.2130,19
50.2502,30
50.2873,24
50.3245,34
50.3616,29
50.3988,39
50.4359,28
50.4731,15
50.5102,27
50.5474,34
50.5845,40
50.6217,37
50.6588,29
50.6960,24
50.7331,32
50.7703,21
50.8074,35
50.8446,26
50.8817,34
50.9189,16
50.9560,31
50.9932,32
51.0303,24
51.0675,22
51.1046,24
51.1418,40
51.1789,38
51.2161,30
51.2532,16
51.2904,38
51.3275,20
51.3647,46
51.4018,37
51.4390,34
51.4762,28
51.5133,42
51.5505,34
51.5876,31
51.6248,35
51.6619,24
51.6991,25
51.7362,32
51.7734,29
51.8105,38
51.8477,25
51.8848,21
51.9220,19
51.9591,33
51.9963,35
52.0334,28
52.0706,27
52.1077,28
52.1449,27
52.1820,20
52.2192,25
52.2563,35
52.2935,19
52.3306,32
52.3678,23
52.4049,25
52.4421,34
52.4792,33
52.5164,24
52.5535,30
52.5907,31
52.6278,24
52.6650,36
52.7021,29
52.7393,32
52.7764,31
52.8136,30
52.8507,19
52.8879,15
52.9250,33
52.9622,31
52.9994,28
53.0365,36
53.0737,30
53.1108,32
53.1480,34
53.1851,28
53.2223,26
53.2594,27
53.2966,33
53.3337,32
53.3709,22
53.4080,31
53.4452,36
53.4823,28
53.5195,32
53.5566,37
53.5938,26
53.6309,28
53.6681,28
53.7052,26
53.7424,31
53.7795,30
53.8167,31
53.8538,23
53.8910,32
53.9281,29
53.9653,32
54.0024,41
54.0396,27
54.0767,36
54.1139,46
54.1510,39
54.1882,31
54.2253,34
54.2625,34
54.2996,29
54.3368,33
54.3739,29
54.4111,35
54.4482,19
54.4854,28
54.5225,34
54.5597,28
54.5969,26
54.6340,31
54.6712,24
54.7083,34
54.7455,27
54.7826,32
54.8198,19
54.8569,27
54.8941,26
54.9312,27
54.9684,34
55.0055,31
55.0427,33
55.0798,20
55.1170,20
55.1541,29
55.1913,28
55.2284,32
55.2656,34
55.3027,28
55.3399,18
55.3770,20
55.4142,30
55.4513,18
55.4885,22
55.5256,23
55.5628,37
55.5999,25
55.6371,30
55.6742,33
55.7114,25
55.7485,40
55.7857,32
55.8228,30
55.8600,17
55.8971,32
55.9343,19
55.9714,29
56.0086,32
56.0457,30
56.0829,39
56.1201,34
56.1572,30
56.1944,30
56.2315,38
56.2687,40
56.3058,27
56.3430,21
56.3801,25
56.4173,41
56.4544,24
56.4916,18
56.5287,22
56.5659,38
56.6030,29
56.6402,31
56.6773,26
56.7145,27
56.7516,24
56.7888,29
56.8259,32
56.8631,29
56.9002,24
56.9374,27
56.9745,26
57.0117,18
57.0488,30
57.0860,29
57.1231,26
57.1603,34
57.1974,21
57.2346,24
57.2717,29
57.3089,17
57.3460,32
57.3832,36
57.4203,18
57.4575,23
57.4946,28
57.5318,30
57.5689,26
57.6061,35
57.6433,32
57.6804,45
57.7176,29
57.7547,26
57.7919,36
57.8290,19
57.8662,27
57.9033,34
57.9405,19
57.9776,34
58.0148,24
58.0519,33
58.0891,31
58.1262,33
58.1634,24
58.2005,23
58.2377,27
58.2748,31
58.3120,37
58.3491,27
58.3863,45
58.4234,24
58.4606,34
58.4977,23
58.5349,28
58.5720,27
58.6092,32
58.6463,23
58.6835,20
58.7206,31
58.7578,24
58.7949,27
58.8321,21
58.8692,35
58.9064,22
58.9435,31
58.9807,31
59.0178,31
59.0550,31
59.0921,28
59.1293,33
59.1664,30
59.2036,29
59.2408,29
59.2779,43
59.3151,33
59.3522,39
59.3894,30
59.4265,30
59.4637,28
59.5008,29
59.5380,26
59.5751,22
59.6123,28
59.6494,25
59.6866,29
59.7237,20
59.7609,26
59.7980,27
59.8352,26
59.8723,36
59.9095,22
59.9466,23
59.9838,22
60.0024,27