File: notebooks/data/xrd_data/ML_20220718_31_SJD_4_LaB6-2min.uxd
; (content of file Y:\Sam\Apurva-07-20-2022\puck4\ML_20220718_31_SJD_0_LaB6-2min.raw)
_FILEVERSION = 3
_SAMPLE = ML_20220718_31_SJD_0_LaB6-2min
_+SAMPLE =
_SITE = USA
_USER = Administrator
_GONIOMETER_CODE = 20
; Goniometer : D8 theta/2theta, stage : Unknown
_ATTACHMENTS_CODE = 0
_GONIOMETER_RADIUS = 200.5
_FIXED_DIVSLIT = 0.6
_FIXED_SAMPLESLIT = 0
_SOLLER_SLITS = 2
_FIXED_DETSLIT = 9.55
_MONOCHROMATOR = 0
; Incident beam monochromator : None
_SOLLER_SLITS_2 = N
_THIN_FILM = N
_BETA_FILTER = Y
_FIXED_ANTISLIT = 5.89
_ANALYZER_CODE = 0
; Received beam analyzer : None
_DATEMEASURED = "26-Jul-2022 09:11:14"
_WL_UNIT = A
_WL1 = 1.5406
_WL2 = 1.54439
_WL3 = 1.39222
_WLRATIO = 0.5
_ANODE = Cu
_V4_INF_CREATOR = XRDWizard
_V4_INF_CREATOR_VERSION = V2.9.0.22
_V4_INF_WIZARD_VERSION = V2.9.0.22
_V4_INF_WIZARD_ADDINS = V2.9.0.22
_V4_INF_WIZARD_DOCTYPE = XRD
_V4_INF_OSUSER = McQueenLab
_V4_INF_USER = Administrator
_V4_INF_SITE = USA
_V4_INF_SAMPLEID = ML_20220718_31_SJD_0_LaB6-2min

; Data for range 1
_DRIVE = COUPLED
_STEPTIME = 5.64
_STEPSIZE = 0.0185756
_STEPMODE = C
_START = 5
_THETA = 2.5
_2THETA = 5
_KHI = 0
_PHI = 0
_X = 0
_Y = 0
_Z = 0
_DETECTOR = 5
; Detector type : Unknown
_DETECTORSLIT = unkn
_AUX1 = 0
_AUX2 = 0
_AUX3 = 0
_TIMESTARTED = 15
_TEMP_RATE = -1
_TEMP_DELAY = -1
_KV = 40
_MA = 40
_RANGE_WL = 1.5406
_3DPLANE = 0
_V4_ADDITIONALDETECTOR = 257
_V4_PSD2THETA = 3.4183
_V4_PSDCHANNEL1 = 0
_V4_PSDAPERTURE = 12.68
_V4_PSDTYPE = 5
_V4_PSDFIXED = 0
_V4_COUNTERS_MASK = 4096
_V4_DRIVES_MASK = 0
_V4_ENCODERS_MASK = 0
_2THETACOUNTS = 1
; 2THETA  PSD
   5.0000        119
   5.0372        121
   5.0743        128
   5.1115        117
   5.1486        119
   5.1858        121
   5.2229        119
   5.2601        111
   5.2972        127
   5.3344         91
   5.3715         99
   5.4087        127
   5.4458        112
   5.4830        109
   5.5201         99
   5.5573        102
   5.5944        119
   5.6316        124
   5.6687        119
   5.7059        130
   5.7430        114
   5.7802        102
   5.8173         98
   5.8545        112
   5.8916        103
   5.9288        110
   5.9659        102
   6.0031         89
   6.0402        100
   6.0774         95
   6.1145         99
   6.1517        121
   6.1888        106
   6.2260         75
   6.2631         72
   6.3003         91
   6.3374         90
   6.3746         76
   6.4117         90
   6.4489         70
   6.4860         82
   6.5232         89
   6.5604         96
   6.5975         93
   6.6347         78
   6.6718        103
   6.7090         91
   6.7461         85
   6.7833         89
   6.8204        101
   6.8576         90
   6.8947         70
   6.9319         73
   6.9690         69
   7.0062         87
   7.0433         65
   7.0805         92
   7.1176         67
   7.1548         78
   7.1919         81
   7.2291         92
   7.2662         82
   7.3034         74
   7.3405         87
   7.3777         85
   7.4148         74
   7.4520         80
   7.4891         84
   7.5263         72
   7.5634         80
   7.6006         81
   7.6377         76
   7.6749         69
   7.7120         95
   7.7492         87
   7.7863         80
   7.8235         97
   7.8606         99
   7.8978         91
   7.9349         98
   7.9721        103
   8.0092         97
   8.0464         96
   8.0835         88
   8.1207         99
   8.1579         91
   8.1950         85
   8.2322         80
   8.2693         85
   8.3065         97
   8.3436         96
   8.3808         89
   8.4179         97
   8.4551         91
   8.4922        104
   8.5294         84
   8.5665         81
   8.6037         92
   8.6408         89
   8.6780        109
   8.7151         85
   8.7523        101
   8.7894         94
   8.8266        107
   8.8637         96
   8.9009         92
   8.9380         98
   8.9752        100
   9.0123        126
   9.0495         86
   9.0866        111
   9.1238        121
   9.1609         93
   9.1981        117
   9.2352         96
   9.2724        124
   9.3095        106
   9.3467        103
   9.3838         89
   9.4210        118
   9.4581        122
   9.4953        112
   9.5324        108
   9.5696        113
   9.6067        106
   9.6439        116
   9.6811        109
   9.7182        124
   9.7554         99
   9.7925        125
   9.8297        113
   9.8668        120
   9.9040        121
   9.9411        123
   9.9783        139
  10.0154        142
  10.0526        121
  10.0897        123
  10.1269        122
  10.1640        126
  10.2012        122
  10.2383        116
  10.2755        121
  10.3126        117
  10.3498        133
  10.3869        130
  10.4241        124
  10.4612        117
  10.4984        107
  10.5355        125
  10.5727        127
  10.6098        117
  10.6470        119
  10.6841        124
  10.7213        109
  10.7584        121
  10.7956        109
  10.8327        129
  10.8699        127
  10.9070        111
  10.9442        114
  10.9813        135
  11.0185        111
  11.0556        107
  11.0928        102
  11.1299        106
  11.1671        132
  11.2043        103
  11.2414        103
  11.2786        114
  11.3157        112
  11.3529        107
  11.3900        119
  11.4272        130
  11.4643        107
  11.5015        122
  11.5386        109
  11.5758        128
  11.6129        114
  11.6501        137
  11.6872        101
  11.7244        122
  11.7615        129
  11.7987        119
  11.8358        119
  11.8730        109
  11.9101        120
  11.9473        106
  11.9844         91
  12.0216        105
  12.0587        104
  12.0959        108
  12.1330        111
  12.1702        112
  12.2073        109
  12.2445        123
  12.2816        112
  12.3188        107
  12.3559         96
  12.3931        116
  12.4302        118
  12.4674        104
  12.5045         85
  12.5417        117
  12.5788        120
  12.6160         97
  12.6531        100
  12.6903        114
  12.7274        124
  12.7646        113
  12.8018        114
  12.8389        101
  12.8761        106
  12.9132         92
  12.9504        110
  12.9875        104
  13.0247         98
  13.0618        100
  13.0990        104
  13.1361         97
  13.1733         89
  13.2104        102
  13.2476        117
  13.2847        110
  13.3219         86
  13.3590        103
  13.3962        109
  13.4333        103
  13.4705         95
  13.5076         95
  13.5448         91
  13.5819         99
  13.6191         99
  13.6562         93
  13.6934        103
  13.7305         91
  13.7677        102
  13.8048         85
  13.8420         90
  13.8791         78
  13.9163         81
  13.9534         89
  13.9906         74
  14.0277         98
  14.0649         91
  14.1020         82
  14.1392         95
  14.1763         77
  14.2135         79
  14.2506         92
  14.2878         82
  14.3250         91
  14.3621         83
  14.3993         97
  14.4364         89
  14.4736         82
  14.5107         87
  14.5479         79
  14.5850         82
  14.6222         78
  14.6593         87
  14.6965        108
  14.7336         85
  14.7708        101
  14.8079         75
  14.8451         77
  14.8822         87
  14.9194         90
  14.9565         93
  14.9937         91
  15.0308         80
  15.0680         73
  15.1051         87
  15.1423         92
  15.1794         85
  15.2166         63
  15.2537         67
  15.2909         80
  15.3280         82
  15.3652         69
  15.4023         79
  15.4395         63
  15.4766        103
  15.5138         71
  15.5509         75
  15.5881         86
  15.6252         81
  15.6624         82
  15.6995         74
  15.7367         68
  15.7738         73
  15.8110         80
  15.8482         79
  15.8853         79
  15.9225         70
  15.9596         87
  15.9968         72
  16.0339         70
  16.0711         79
  16.1082         95
  16.1454         87
  16.1825         74
  16.2197         76
  16.2568         81
  16.2940         82
  16.3311         79
  16.3683         62
  16.4054         72
  16.4426         73
  16.4797         74
  16.5169         82
  16.5540         88
  16.5912         62
  16.6283         91
  16.6655         88
  16.7026         83
  16.7398         70
  16.7769         72
  16.8141         91
  16.8512         75
  16.8884         76
  16.9255         78
  16.9627         76
  16.9998         76
  17.0370         80
  17.0741         71
  17.1113         82
  17.1484         79
  17.1856         68
  17.2227         69
  17.2599         65
  17.2970         71
  17.3342         64
  17.3713         82
  17.4085         92
  17.4457         75
  17.4828         69
  17.5200         61
  17.5571         74
  17.5943         92
  17.6314         75
  17.6686         84
  17.7057         82
  17.7429         81
  17.7800        106
  17.8172         69
  17.8543         84
  17.8915         90
  17.9286         78
  17.9658         86
  18.0029         79
  18.0401         84
  18.0772         87
  18.1144         78
  18.1515         96
  18.1887         84
  18.2258         78
  18.2630         84
  18.3001         80
  18.3373         92
  18.3744        100
  18.4116         70
  18.4487         68
  18.4859         90
  18.5230         64
  18.5602         83
  18.5973         93
  18.6345         78
  18.6716         91
  18.7088         79
  18.7459         88
  18.7831         93
  18.8202         95
  18.8574         92
  18.8945         74
  18.9317        102
  18.9689         82
  19.0060         84
  19.0432         93
  19.0803         93
  19.1175         83
  19.1546         72
  19.1918         83
  19.2289         76
  19.2661        102
  19.3032         83
  19.3404         84
  19.3775         94
  19.4147         94
  19.4518         74
  19.4890         78
  19.5261         82
  19.5633         88
  19.6004         87
  19.6376         76
  19.6747         76
  19.7119         81
  19.7490         82
  19.7862         76
  19.8233         83
  19.8605         93
  19.8976         85
  19.9348         91
  19.9719         89
  20.0091         82
  20.0462         89
  20.0834         80
  20.1205         92
  20.1577         80
  20.1948         83
  20.2320         89
  20.2691         96
  20.3063         86
  20.3434        109
  20.3806         95
  20.4177         93
  20.4549         91
  20.4921         86
  20.5292        116
  20.5664         83
  20.6035         98
  20.6407         88
  20.6778         93
  20.7150         89
  20.7521         98
  20.7893         92
  20.8264        103
  20.8636         87
  20.9007         93
  20.9379        106
  20.9750        102
  21.0122        101
  21.0493         96
  21.0865        109
  21.1236        109
  21.1608        128
  21.1979        136
  21.2351        137
  21.2722        156
  21.3094        171
  21.3465        246
  21.3837        238
  21.4208        143
  21.4580        105
  21.4951        113
  21.5323        100
  21.5694         90
  21.6066        105
  21.6437        106
  21.6809         98
  21.7180         96
  21.7552         98
  21.7923         90
  21.8295        108
  21.8666         72
  21.9038        108
  21.9409        100
  21.9781         92
  22.0152         90
  22.0524        100
  22.0896         95
  22.1267         96
  22.1639        101
  22.2010        112
  22.2382        105
  22.2753        105
  22.3125         94
  22.3496        102
  22.3868        106
  22.4239         99
  22.4611         88
  22.4982        117
  22.5354        103
  22.5725         92
  22.6097         84
  22.6468        102
  22.6840         96
  22.7211         93
  22.7583         88
  22.7954        109
  22.8326        113
  22.8697        103
  22.9069         97
  22.9440        114
  22.9812        101
  23.0183         97
  23.0555         98
  23.0926        100
  23.1298        122
  23.1669        107
  23.2041         77
  23.2412         93
  23.2784         98
  23.3155         84
  23.3527         94
  23.3898        107
  23.4270        114
  23.4641        101
  23.5013         95
  23.5384         80
  23.5756         91
  23.6128        104
  23.6499         96
  23.6871         86
  23.7242        129
  23.7614        102
  23.7985         99
  23.8357         99
  23.8728        114
  23.9100        104
  23.9471         85
  23.9843         98
  24.0214        118
  24.0586         88
  24.0957        109
  24.1329         82
  24.1700        104
  24.2072         95
  24.2443        100
  24.2815        117
  24.3186        121
  24.3558        110
  24.3929         92
  24.4301         85
  24.4672         77
  24.5044        105
  24.5415        107
  24.5787         99
  24.6158        105
  24.6530        108
  24.6901        114
  24.7273        109
  24.7644        115
  24.8016        117
  24.8387        106
  24.8759        104
  24.9130        100
  24.9502        106
  24.9873         87
  25.0245        100
  25.0616         89
  25.0988         76
  25.1360         90
  25.1731         85
  25.2103         96
  25.2474         87
  25.2846         98
  25.3217         93
  25.3589         96
  25.3960        102
  25.4332         99
  25.4703        106
  25.5075        104
  25.5446         85
  25.5818         98
  25.6189        115
  25.6561         91
  25.6932        105
  25.7304         91
  25.7675         87
  25.8047         67
  25.8418        107
  25.8790        107
  25.9161         86
  25.9533         91
  25.9904        104
  26.0276         99
  26.0647         94
  26.1019         96
  26.1390         99
  26.1762        108
  26.2133         88
  26.2505         84
  26.2876         87
  26.3248         97
  26.3619         89
  26.3991         96
  26.4362        104
  26.4734         99
  26.5105        115
  26.5477         81
  26.5848        102
  26.6220         87
  26.6591         95
  26.6963        102
  26.7335        114
  26.7706        106
  26.8078         91
  26.8449         85
  26.8821        114
  26.9192         55
  26.9564         95
  26.9935         95
  27.0307         86
  27.0678         77
  27.1050        101
  27.1421        112
  27.1793        121
  27.2164        115
  27.2536        111
  27.2907         83
  27.3279        106
  27.3650         97
  27.4022         89
  27.4393         98
  27.4765         98
  27.5136         90
  27.5508         88
  27.5879         80
  27.6251         95
  27.6622        103
  27.6994         91
  27.7365         92
  27.7737         88
  27.8108         96
  27.8480         75
  27.8851         84
  27.9223         81
  27.9594         79
  27.9966         79
  28.0337         93
  28.0709         68
  28.1080         82
  28.1452         90
  28.1823         82
  28.2195         85
  28.2567         83
  28.2938         73
  28.3310         82
  28.3681         80
  28.4053         92
  28.4424         86
  28.4796         82
  28.5167         82
  28.5539         77
  28.5910         80
  28.6282         70
  28.6653         78
  28.7025         78
  28.7396         82
  28.7768         79
  28.8139         65
  28.8511         81
  28.8882         85
  28.9254        101
  28.9625         87
  28.9997         97
  29.0368         82
  29.0740         79
  29.1111         77
  29.1483         73
  29.1854         91
  29.2226         85
  29.2597         82
  29.2969         68
  29.3340         92
  29.3712         98
  29.4083         85
  29.4455         78
  29.4826         59
  29.5198         75
  29.5569         71
  29.5941         73
  29.6312         76
  29.6684         73
  29.7055         80
  29.7427         82
  29.7799         81
  29.8170         81
  29.8542         73
  29.8913         70
  29.9285         76
  29.9656         72
  30.0028        102
  30.0399         95
  30.0771         93
  30.1142         77
  30.1514         72
  30.1885         73
  30.2257         72
  30.2628         88
  30.3000         94
  30.3371        105
  30.3743        152
  30.4114        127
  30.4486        125
  30.4857        121
  30.5229         77
  30.5600         82
  30.5972         68
  30.6343         84
  30.6715         75
  30.7086         79
  30.7458         85
  30.7829         70
  30.8201         80
  30.8572         86
  30.8944         68
  30.9315         77
  30.9687         74
  31.0058         69
  31.0430         81
  31.0801         78
  31.1173         69
  31.1544         66
  31.1916         87
  31.2287         71
  31.2659         64
  31.3030         70
  31.3402         78
  31.3774         76
  31.4145         63
  31.4517         66
  31.4888         72
  31.5260         71
  31.5631         73
  31.6003         63
  31.6374         55
  31.6746         67
  31.7117         55
  31.7489         60
  31.7860         60
  31.8232         70
  31.8603         72
  31.8975         53
  31.9346         70
  31.9718         59
  32.0089         81
  32.0461         43
  32.0832         63
  32.1204         51
  32.1575         62
  32.1947         70
  32.2318         57
  32.2690         57
  32.3061         62
  32.3433         59
  32.3804         52
  32.4176         65
  32.4547         76
  32.4919         76
  32.5290         79
  32.5662         85
  32.6033         67
  32.6405         56
  32.6776         59
  32.7148         63
  32.7519         58
  32.7891         60
  32.8262         72
  32.8634         51
  32.9006         70
  32.9377         68
  32.9749         70
  33.0120         64
  33.0492         68
  33.0863         73
  33.1235         50
  33.1606         53
  33.1978         61
  33.2349         55
  33.2721         63
  33.3092         54
  33.3464         44
  33.3835         52
  33.4207         56
  33.4578         58
  33.4950         55
  33.5321         70
  33.5693         60
  33.6064         59
  33.6436         59
  33.6807         71
  33.7179         61
  33.7550         54
  33.7922         70
  33.8293         58
  33.8665         51
  33.9036         51
  33.9408         66
  33.9779         47
  34.0151         58
  34.0522         60
  34.0894         66
  34.1265         59
  34.1637         53
  34.2008         66
  34.2380         58
  34.2751         69
  34.3123         55
  34.3494         68
  34.3866         54
  34.4238         56
  34.4609         60
  34.4981         65
  34.5352         56
  34.5724         56
  34.6095         51
  34.6467         55
  34.6838         56
  34.7210         51
  34.7581         60
  34.7953         85
  34.8324         66
  34.8696         69
  34.9067         66
  34.9439         61
  34.9810         52
  35.0182         54
  35.0553         68
  35.0925         54
  35.1296         41
  35.1668         58
  35.2039         47
  35.2411         38
  35.2782         57
  35.3154         49
  35.3525         49
  35.3897         52
  35.4268         49
  35.4640         46
  35.5011         46
  35.5383         42
  35.5754         50
  35.6126         46
  35.6497         41
  35.6869         59
  35.7240         44
  35.7612         42
  35.7983         45
  35.8355         42
  35.8726         51
  35.9098         43
  35.9469         53
  35.9841         53
  36.0213         44
  36.0584         45
  36.0956         37
  36.1327         48
  36.1699         49
  36.2070         44
  36.2442         47
  36.2813         50
  36.3185         57
  36.3556         51
  36.3928         48
  36.4299         56
  36.4671         68
  36.5042         51
  36.5414         35
  36.5785         50
  36.6157         57
  36.6528         40
  36.6900         47
  36.7271         41
  36.7643         34
  36.8014         52
  36.8386         57
  36.8757         37
  36.9129         45
  36.9500         32
  36.9872         40
  37.0243         56
  37.0615         41
  37.0986         32
  37.1358         47
  37.1729         60
  37.2101         38
  37.2472         51
  37.2844         52
  37.3215         62
  37.3587         56
  37.3958         44
  37.4330         67
  37.4701         75
  37.5073         46
  37.5445         60
  37.5816         61
  37.6188         35
  37.6559         38
  37.6931         45
  37.7302         46
  37.7674         50
  37.8045         43
  37.8417         40
  37.8788         47
  37.9160         45
  37.9531         45
  37.9903         39
  38.0274         37
  38.0646         56
  38.1017         50
  38.1389         40
  38.1760         40
  38.2132         45
  38.2503         40
  38.2875         55
  38.3246         35
  38.3618         47
  38.3989         34
  38.4361         49
  38.4732         46
  38.5104         38
  38.5475         46
  38.5847         38
  38.6218         49
  38.6590         37
  38.6961         38
  38.7333         37
  38.7704         43
  38.8076         43
  38.8447         40
  38.8819         61
  38.9190         40
  38.9562         37
  38.9933         41
  39.0305         42
  39.0677         43
  39.1048         34
  39.1420         41
  39.1791         32
  39.2163         39
  39.2534         50
  39.2906         41
  39.3277         31
  39.3649         42
  39.4020         36
  39.4392         49
  39.4763         38
  39.5135         39
  39.5506         35
  39.5878         35
  39.6249         36
  39.6621         42
  39.6992         34
  39.7364         30
  39.7735         49
  39.8107         42
  39.8478         45
  39.8850         30
  39.9221         44
  39.9593         41
  39.9964         39
  40.0336         38
  40.0707         38
  40.1079         38
  40.1450         36
  40.1822         31
  40.2193         37
  40.2565         33
  40.2936         38
  40.3308         41
  40.3679         34
  40.4051         43
  40.4422         45
  40.4794         43
  40.5165         47
  40.5537         35
  40.5908         30
  40.6280         37
  40.6652         45
  40.7023         32
  40.7395         41
  40.7766         45
  40.8138         44
  40.8509         40
  40.8881         53
  40.9252         42
  40.9624         50
  40.9995         44
  41.0367         29
  41.0738         29
  41.1110         36
  41.1481         36
  41.1853         43
  41.2224         45
  41.2596         43
  41.2967         37
  41.3339         34
  41.3710         43
  41.4082         43
  41.4453         32
  41.4825         27
  41.5196         39
  41.5568         48
  41.5939         34
  41.6311         40
  41.6682         45
  41.7054         48
  41.7425         33
  41.7797         40
  41.8168         38
  41.8540         34
  41.8911         42
  41.9283         39
  41.9654         41
  42.0026         40
  42.0397         28
  42.0769         34
  42.1140         46
  42.1512         38
  42.1884         36
  42.2255         44
  42.2627         35
  42.2998         39
  42.3370         26
  42.3741         39
  42.4113         39
  42.4484         44
  42.4856         35
  42.5227         40
  42.5599         40
  42.5970         30
  42.6342         37
  42.6713         34
  42.7085         38
  42.7456         42
  42.7828         43
  42.8199         41
  42.8571         32
  42.8942         26
  42.9314         38
  42.9685         40
  43.0057         34
  43.0428         27
  43.0800         48
  43.1171         40
  43.1543         26
  43.1914         40
  43.2286         36
  43.2657         44
  43.3029         38
  43.3400         47
  43.3772         42
  43.4143         37
  43.4515         48
  43.4886         40
  43.5258         62
  43.5629         32
  43.6001         54
  43.6372         62
  43.6744         43
  43.7116         27
  43.7487         33
  43.7859         38
  43.8230         26
  43.8602         32
  43.8973         46
  43.9345         43
  43.9716         43
  44.0088         25
  44.0459         34
  44.0831         49
  44.1202         32
  44.1574         36
  44.1945         41
  44.2317         27
  44.2688         41
  44.3060         49
  44.3431         33
  44.3803         40
  44.4174         38
  44.4546         32
  44.4917         45
  44.5289         37
  44.5660         36
  44.6032         22
  44.6403         38
  44.6775         45
  44.7146         34
  44.7518         40
  44.7889         43
  44.8261         35
  44.8632         34
  44.9004         33
  44.9375         42
  44.9747         37
  45.0118         28
  45.0490         34
  45.0861         27
  45.1233         40
  45.1604         44
  45.1976         31
  45.2347         34
  45.2719         34
  45.3091         36
  45.3462         35
  45.3834         27
  45.4205         41
  45.4577         43
  45.4948         35
  45.5320         32
  45.5691         34
  45.6063         38
  45.6434         33
  45.6806         28
  45.7177         32
  45.7549         33
  45.7920         38
  45.8292         31
  45.8663         31
  45.9035         30
  45.9406         29
  45.9778         20
  46.0149         35
  46.0521         39
  46.0892         26
  46.1264         45
  46.1635         26
  46.2007         32
  46.2378         31
  46.2750         30
  46.3121         35
  46.3493         38
  46.3864         37
  46.4236         34
  46.4607         31
  46.4979         32
  46.5350         29
  46.5722         33
  46.6093         30
  46.6465         41
  46.6836         28
  46.7208         35
  46.7579         37
  46.7951         33
  46.8323         31
  46.8694         29
  46.9066         36
  46.9437         35
  46.9809         28
  47.0180         35
  47.0552         26
  47.0923         32
  47.1295         18
  47.1666         39
  47.2038         23
  47.2409         34
  47.2781         27
  47.3152         38
  47.3524         30
  47.3895         38
  47.4267         23
  47.4638         30
  47.5010         27
  47.5381         34
  47.5753         34
  47.6124         36
  47.6496         29
  47.6867         24
  47.7239         27
  47.7610         21
  47.7982         33
  47.8353         36
  47.8725         36
  47.9096         30
  47.9468         28
  47.9839         37
  48.0211         39
  48.0582         27
  48.0954         27
  48.1325         33
  48.1697         30
  48.2068         31
  48.2440         44
  48.2811         27
  48.3183         39
  48.3555         31
  48.3926         24
  48.4298         32
  48.4669         34
  48.5041         20
  48.5412         25
  48.5784         23
  48.6155         32
  48.6527         26
  48.6898         21
  48.7270         39
  48.7641         40
  48.8013         29
  48.8384         26
  48.8756         22
  48.9127         41
  48.9499         66
  48.9870         50
  49.0242         40
  49.0613         29
  49.0985         35
  49.1356         34
  49.1728         21
  49.2099         35
  49.2471         38
  49.2842         26
  49.3214         27
  49.3585         28
  49.3957         22
  49.4328         30
  49.4700         23
  49.5071         26
  49.5443         31
  49.5814         30
  49.6186         20
  49.6557         33
  49.6929         35
  49.7300         33
  49.7672         34
  49.8043         30
  49.8415         26
  49.8786         34
  49.9158         33
  49.9530         34
  49.9901         29
  50.0273         33
  50.0644         35
  50.1016         32
  50.1387         36
  50.1759         35
  50.2130         34
  50.2502         40
  50.2873         26
  50.3245         34
  50.3616         33
  50.3988         37
  50.4359         28
  50.4731         40
  50.5102         32
  50.5474         31
  50.5845         34
  50.6217         29
  50.6588         27
  50.6960         32
  50.7331         14
  50.7703         27
  50.8074         34
  50.8446         30
  50.8817         36
  50.9189         25
  50.9560         28
  50.9932         31
  51.0303         25
  51.0675         29
  51.1046         26
  51.1418         29
  51.1789         32
  51.2161         25
  51.2532         34
  51.2904         40
  51.3275         31
  51.3647         27
  51.4018         32
  51.4390         30
  51.4762         17
  51.5133         32
  51.5505         39
  51.5876         29
  51.6248         30
  51.6619         22
  51.6991         33
  51.7362         30
  51.7734         35
  51.8105         29
  51.8477         47
  51.8848         42
  51.9220         39
  51.9591         29
  51.9963         19
  52.0334         31
  52.0706         24
  52.1077         23
  52.1449         22
  52.1820         27
  52.2192         23
  52.2563         30
  52.2935         31
  52.3306         23
  52.3678         36
  52.4049         22
  52.4421         31
  52.4792         27
  52.5164         31
  52.5535         36
  52.5907         37
  52.6278         25
  52.6650         28
  52.7021         32
  52.7393         31
  52.7764         25
  52.8136         32
  52.8507         22
  52.8879         29
  52.9250         27
  52.9622         23
  52.9994         37
  53.0365         28
  53.0737         28
  53.1108         30
  53.1480         29
  53.1851         28
  53.2223         24
  53.2594         30
  53.2966         34
  53.3337         30
  53.3709         38
  53.4080         26
  53.4452         15
  53.4823         23
  53.5195         21
  53.5566         19
  53.5938         40
  53.6309         40
  53.6681         27
  53.7052         25
  53.7424         39
  53.7795         37
  53.8167         30
  53.8538         34
  53.8910         32
  53.9281         31
  53.9653         35
  54.0024         41
  54.0396         35
  54.0767         38
  54.1139         29
  54.1510         40
  54.1882         39
  54.2253         20
  54.2625         29
  54.2996         20
  54.3368         27
  54.3739         24
  54.4111         27
  54.4482         26
  54.4854         25
  54.5225         31
  54.5597         23
  54.5969         30
  54.6340         25
  54.6712         19
  54.7083         22
  54.7455         29
  54.7826         28
  54.8198         17
  54.8569         25
  54.8941         18
  54.9312         29
  54.9684         28
  55.0055         25
  55.0427         19
  55.0798         32
  55.1170         32
  55.1541         25
  55.1913         30
  55.2284         17
  55.2656         26
  55.3027         31
  55.3399         32
  55.3770         29
  55.4142         23
  55.4513         25
  55.4885         26
  55.5256         32
  55.5628         23
  55.5999         16
  55.6371         30
  55.6742         37
  55.7114         34
  55.7485         28
  55.7857         19
  55.8228         34
  55.8600         38
  55.8971         31
  55.9343         23
  55.9714         30
  56.0086         30
  56.0457         37
  56.0829         35
  56.1201         24
  56.1572         23
  56.1944         36
  56.2315         33
  56.2687         27
  56.3058         32
  56.3430         30
  56.3801         23
  56.4173         14
  56.4544         21
  56.4916         28
  56.5287         28
  56.5659         29
  56.6030         24
  56.6402         23
  56.6773         20
  56.7145         26
  56.7516         28
  56.7888         25
  56.8259         24
  56.8631         26
  56.9002         21
  56.9374         21
  56.9745         29
  57.0117         25
  57.0488         21
  57.0860         23
  57.1231         24
  57.1603         28
  57.1974         29
  57.2346         36
  57.2717         26
  57.3089         26
  57.3460         25
  57.3832         24
  57.4203         31
  57.4575         31
  57.4946         31
  57.5318         20
  57.5689         31
  57.6061         25
  57.6433         23
  57.6804         27
  57.7176         42
  57.7547         23
  57.7919         33
  57.8290         30
  57.8662         26
  57.9033         36
  57.9405         27
  57.9776         33
  58.0148         25
  58.0519         26
  58.0891         21
  58.1262         32
  58.1634         17
  58.2005         21
  58.2377         29
  58.2748         24
  58.3120         30
  58.3491         28
  58.3863         29
  58.4234         23
  58.4606         31
  58.4977         28
  58.5349         22
  58.5720         24
  58.6092         21
  58.6463         25
  58.6835         26
  58.7206         39
  58.7578         24
  58.7949         31
  58.8321         28
  58.8692         30
  58.9064         20
  58.9435         35
  58.9807         36
  59.0178         31
  59.0550         26
  59.0921         23
  59.1293         28
  59.1664         24
  59.2036         21
  59.2408         25
  59.2779         32
  59.3151         27
  59.3522         25
  59.3894         32
  59.4265         38
  59.4637         28
  59.5008         26
  59.5380         31
  59.5751         26
  59.6123         23
  59.6494         30
  59.6866         29
  59.7237         30
  59.7609         21
  59.7980         28
  59.8352         27
  59.8723         27
  59.9095         29
  59.9466         35
  59.9838         32
  60.0024         17