File: notebooks/data/xrd_data/ML_20220718_40_SJD_4_LaB6-2min.uxd
; (content of file Y:\Sam\Apurva-07-20-2022\puck4\ML_20220718_40_SJD_4_LaB6-2min.raw)
_FILEVERSION = 3
_SAMPLE = ML_20220718_40_SJD_4_LaB6-2min
_+SAMPLE =
_SITE = USA
_USER = Administrator
_GONIOMETER_CODE = 20
; Goniometer : D8 theta/2theta, stage : Unknown
_ATTACHMENTS_CODE = 0
_GONIOMETER_RADIUS = 200.5
_FIXED_DIVSLIT = 0.6
_FIXED_SAMPLESLIT = 0
_SOLLER_SLITS = 2
_FIXED_DETSLIT = 9.55
_MONOCHROMATOR = 0
; Incident beam monochromator : None
_SOLLER_SLITS_2 = N
_THIN_FILM = N
_BETA_FILTER = Y
_FIXED_ANTISLIT = 5.89
_ANALYZER_CODE = 0
; Received beam analyzer : None
_DATEMEASURED = "26-Jul-2022 12:03:44"
_WL_UNIT = A
_WL1 = 1.5406
_WL2 = 1.54439
_WL3 = 1.39222
_WLRATIO = 0.5
_ANODE = Cu
_V4_INF_CREATOR = XRDWizard
_V4_INF_CREATOR_VERSION = V2.9.0.22
_V4_INF_WIZARD_VERSION = V2.9.0.22
_V4_INF_WIZARD_ADDINS = V2.9.0.22
_V4_INF_WIZARD_DOCTYPE = XRD
_V4_INF_OSUSER = McQueenLab
_V4_INF_USER = Administrator
_V4_INF_SITE = USA
_V4_INF_SAMPLEID = ML_20220718_40_SJD_4_LaB6-2min

; Data for range 1
_DRIVE = COUPLED
_STEPTIME = 5.64
_STEPSIZE = 0.0185756
_STEPMODE = C
_START = 5
_THETA = 2.5
_2THETA = 5
_KHI = 0
_PHI = 0
_X = 0
_Y = 0
_Z = 0
_DETECTOR = 5
; Detector type : Unknown
_DETECTORSLIT = unkn
_AUX1 = 0
_AUX2 = 0
_AUX3 = 0
_TIMESTARTED = 16
_TEMP_RATE = -1
_TEMP_DELAY = -1
_KV = 40
_MA = 40
_RANGE_WL = 1.5406
_3DPLANE = 0
_V4_ADDITIONALDETECTOR = 257
_V4_PSD2THETA = 3.3729
_V4_PSDCHANNEL1 = 0
_V4_PSDAPERTURE = 12.68
_V4_PSDTYPE = 5
_V4_PSDFIXED = 0
_V4_COUNTERS_MASK = 4096
_V4_DRIVES_MASK = 0
_V4_ENCODERS_MASK = 0
_2THETACOUNTS = 1
; 2THETA  PSD
   5.0000        133
   5.0372        138
   5.0743        118
   5.1115        123
   5.1486        107
   5.1858        125
   5.2229        125
   5.2601        131
   5.2972        110
   5.3344        130
   5.3715        123
   5.4087        115
   5.4458        115
   5.4830        112
   5.5201        109
   5.5573        137
   5.5944        114
   5.6316        120
   5.6687        112
   5.7059        100
   5.7430         94
   5.7802         83
   5.8173        113
   5.8545        119
   5.8916        103
   5.9288         84
   5.9659         91
   6.0031        113
   6.0402        122
   6.0774         95
   6.1145         92
   6.1517         92
   6.1888        107
   6.2260         96
   6.2631        105
   6.3003         96
   6.3374         87
   6.3746         95
   6.4117        101
   6.4489         99
   6.4860         80
   6.5232         85
   6.5604         81
   6.5975         95
   6.6347         96
   6.6718         94
   6.7090        106
   6.7461         82
   6.7833         78
   6.8204         99
   6.8576         82
   6.8947        101
   6.9319         89
   6.9690         83
   7.0062         95
   7.0433         85
   7.0805         98
   7.1176         72
   7.1548         87
   7.1919         79
   7.2291         86
   7.2662         69
   7.3034         83
   7.3405         73
   7.3777         75
   7.4148         86
   7.4520         79
   7.4891         75
   7.5263         82
   7.5634         80
   7.6006         98
   7.6377         98
   7.6749         91
   7.7120        108
   7.7492        107
   7.7863        115
   7.8235         98
   7.8606         94
   7.8978         90
   7.9349         89
   7.9721         88
   8.0092         93
   8.0464         86
   8.0835         91
   8.1207         93
   8.1579         91
   8.1950         87
   8.2322         87
   8.2693         89
   8.3065         96
   8.3436         93
   8.3808         97
   8.4179         87
   8.4551        100
   8.4922         90
   8.5294         99
   8.5665         93
   8.6037        105
   8.6408         86
   8.6780         98
   8.7151        101
   8.7523         91
   8.7894        115
   8.8266         96
   8.8637        124
   8.9009        108
   8.9380         98
   8.9752        108
   9.0123        114
   9.0495        102
   9.0866         91
   9.1238        132
   9.1609        120
   9.1981        106
   9.2352        116
   9.2724        123
   9.3095        122
   9.3467        121
   9.3838        117
   9.4210        119
   9.4581        105
   9.4953        141
   9.5324        109
   9.5696        130
   9.6067         97
   9.6439        104
   9.6811        118
   9.7182        128
   9.7554        115
   9.7925        112
   9.8297        119
   9.8668        128
   9.9040        110
   9.9411        116
   9.9783        141
  10.0154        129
  10.0526        129
  10.0897        117
  10.1269        115
  10.1640        128
  10.2012        123
  10.2383        128
  10.2755        127
  10.3126        140
  10.3498        136
  10.3869        124
  10.4241        113
  10.4612        113
  10.4984        132
  10.5355        130
  10.5727        124
  10.6098        126
  10.6470        143
  10.6841        116
  10.7213        118
  10.7584        129
  10.7956        124
  10.8327        122
  10.8699        130
  10.9070        128
  10.9442        130
  10.9813        125
  11.0185        111
  11.0556        144
  11.0928        104
  11.1299        119
  11.1671        131
  11.2043        111
  11.2414        130
  11.2786         93
  11.3157        112
  11.3529        118
  11.3900        117
  11.4272        111
  11.4643        138
  11.5015        137
  11.5386        115
  11.5758        115
  11.6129        121
  11.6501        117
  11.6872        110
  11.7244        124
  11.7615        130
  11.7987        126
  11.8358        125
  11.8730        123
  11.9101        111
  11.9473        125
  11.9844        114
  12.0216        102
  12.0587        133
  12.0959        114
  12.1330        118
  12.1702        128
  12.2073        118
  12.2445        106
  12.2816        107
  12.3188        134
  12.3559        113
  12.3931        123
  12.4302        110
  12.4674        124
  12.5045        111
  12.5417        102
  12.5788        118
  12.6160        110
  12.6531        117
  12.6903         93
  12.7274        107
  12.7646         99
  12.8018        118
  12.8389        101
  12.8761        101
  12.9132        104
  12.9504        130
  12.9875        105
  13.0247        114
  13.0618         95
  13.0990        102
  13.1361        112
  13.1733        111
  13.2104        114
  13.2476        115
  13.2847        108
  13.3219         85
  13.3590        103
  13.3962         86
  13.4333        100
  13.4705        100
  13.5076         97
  13.5448         96
  13.5819        106
  13.6191         76
  13.6562        116
  13.6934        104
  13.7305        101
  13.7677        101
  13.8048         98
  13.8420         95
  13.8791         85
  13.9163         98
  13.9534        106
  13.9906        107
  14.0277         91
  14.0649        103
  14.1020        103
  14.1392         85
  14.1763         86
  14.2135         99
  14.2506         79
  14.2878        109
  14.3250         85
  14.3621         85
  14.3993         96
  14.4364         94
  14.4736         98
  14.5107         86
  14.5479         90
  14.5850         83
  14.6222        100
  14.6593         84
  14.6965         75
  14.7336         76
  14.7708         85
  14.8079         81
  14.8451         90
  14.8822         93
  14.9194         92
  14.9565         78
  14.9937         93
  15.0308         96
  15.0680         95
  15.1051        102
  15.1423         87
  15.1794         87
  15.2166         96
  15.2537         78
  15.2909         87
  15.3280         73
  15.3652         75
  15.4023         88
  15.4395         88
  15.4766         88
  15.5138         85
  15.5509         85
  15.5881        100
  15.6252         72
  15.6624         95
  15.6995         86
  15.7367         89
  15.7738         98
  15.8110         82
  15.8482         75
  15.8853         81
  15.9225         76
  15.9596         86
  15.9968         99
  16.0339         90
  16.0711         93
  16.1082         94
  16.1454         79
  16.1825         90
  16.2197         71
  16.2568        103
  16.2940         82
  16.3311         89
  16.3683         79
  16.4054         71
  16.4426         76
  16.4797         64
  16.5169         86
  16.5540         78
  16.5912         79
  16.6283         84
  16.6655         63
  16.7026         99
  16.7398         82
  16.7769        103
  16.8141         94
  16.8512         63
  16.8884         66
  16.9255         80
  16.9627         73
  16.9998         89
  17.0370         78
  17.0741         85
  17.1113         69
  17.1484        106
  17.1856         83
  17.2227         69
  17.2599         82
  17.2970         73
  17.3342         84
  17.3713         63
  17.4085         85
  17.4457         72
  17.4828         78
  17.5200        106
  17.5571         82
  17.5943         83
  17.6314         73
  17.6686         66
  17.7057         72
  17.7429         86
  17.7800         76
  17.8172         89
  17.8543         77
  17.8915         93
  17.9286         82
  17.9658         78
  18.0029         88
  18.0401         85
  18.0772         67
  18.1144         89
  18.1515         70
  18.1887         87
  18.2258         73
  18.2630         76
  18.3001         82
  18.3373         97
  18.3744         74
  18.4116         74
  18.4487         72
  18.4859         83
  18.5230         75
  18.5602         89
  18.5973         84
  18.6345         75
  18.6716         93
  18.7088         98
  18.7459         77
  18.7831         86
  18.8202         80
  18.8574         73
  18.8945         89
  18.9317         84
  18.9689         75
  19.0060         87
  19.0432         85
  19.0803         73
  19.1175         92
  19.1546         72
  19.1918         76
  19.2289         70
  19.2661         87
  19.3032        102
  19.3404         89
  19.3775         91
  19.4147         85
  19.4518         77
  19.4890         91
  19.5261         86
  19.5633         90
  19.6004        109
  19.6376         80
  19.6747         96
  19.7119         98
  19.7490         94
  19.7862         90
  19.8233        101
  19.8605         88
  19.8976         95
  19.9348         94
  19.9719         79
  20.0091         70
  20.0462        104
  20.0834         89
  20.1205         90
  20.1577         98
  20.1948         89
  20.2320         94
  20.2691         85
  20.3063         95
  20.3434         84
  20.3806         82
  20.4177        104
  20.4549         95
  20.4921        103
  20.5292        112
  20.5664         86
  20.6035        101
  20.6407         84
  20.6778        104
  20.7150         80
  20.7521         87
  20.7893         91
  20.8264        103
  20.8636        102
  20.9007         83
  20.9379         95
  20.9750         84
  21.0122         98
  21.0493        101
  21.0865        118
  21.1236        115
  21.1608         99
  21.1979        128
  21.2351        168
  21.2722        148
  21.3094        166
  21.3465        204
  21.3837        231
  21.4208        197
  21.4580        121
  21.4951        113
  21.5323        102
  21.5694         97
  21.6066        112
  21.6437         95
  21.6809         97
  21.7180         85
  21.7552        104
  21.7923         89
  21.8295        109
  21.8666         91
  21.9038        104
  21.9409        107
  21.9781         84
  22.0152         80
  22.0524         88
  22.0896        111
  22.1267         74
  22.1639        104
  22.2010         81
  22.2382        101
  22.2753        102
  22.3125         86
  22.3496         85
  22.3868        100
  22.4239        103
  22.4611         88
  22.4982         99
  22.5354        113
  22.5725        115
  22.6097        100
  22.6468         90
  22.6840         94
  22.7211         98
  22.7583        103
  22.7954         97
  22.8326         81
  22.8697         76
  22.9069        104
  22.9440         98
  22.9812        108
  23.0183        102
  23.0555         86
  23.0926         87
  23.1298         88
  23.1669         97
  23.2041        111
  23.2412        108
  23.2784         83
  23.3155         96
  23.3527        108
  23.3898        100
  23.4270        101
  23.4641        116
  23.5013         91
  23.5384        109
  23.5756         97
  23.6128        120
  23.6499         95
  23.6871         85
  23.7242         97
  23.7614        101
  23.7985         98
  23.8357         96
  23.8728         99
  23.9100        126
  23.9471        102
  23.9843         85
  24.0214        108
  24.0586        103
  24.0957         91
  24.1329        108
  24.1700         98
  24.2072        104
  24.2443        108
  24.2815        112
  24.3186        122
  24.3558        116
  24.3929        105
  24.4301         93
  24.4672        112
  24.5044        110
  24.5415         99
  24.5787         92
  24.6158        114
  24.6530        103
  24.6901         96
  24.7273        112
  24.7644        105
  24.8016        101
  24.8387        110
  24.8759         89
  24.9130         94
  24.9502        114
  24.9873        112
  25.0245        103
  25.0616        114
  25.0988         97
  25.1360         98
  25.1731        101
  25.2103        105
  25.2474        110
  25.2846         91
  25.3217         96
  25.3589        107
  25.3960         84
  25.4332         94
  25.4703        105
  25.5075        114
  25.5446         91
  25.5818        109
  25.6189        101
  25.6561        113
  25.6932        114
  25.7304        109
  25.7675         94
  25.8047         91
  25.8418         92
  25.8790        112
  25.9161         87
  25.9533        108
  25.9904         94
  26.0276         96
  26.0647        105
  26.1019        119
  26.1390        108
  26.1762         96
  26.2133        106
  26.2505        107
  26.2876         82
  26.3248        116
  26.3619         83
  26.3991        117
  26.4362         87
  26.4734        107
  26.5105         91
  26.5477         89
  26.5848         93
  26.6220         88
  26.6591        114
  26.6963        101
  26.7335        106
  26.7706        102
  26.8078         97
  26.8449        101
  26.8821         83
  26.9192         76
  26.9564         86
  26.9935        110
  27.0307         84
  27.0678         97
  27.1050         97
  27.1421         94
  27.1793        104
  27.2164        128
  27.2536        128
  27.2907        123
  27.3279         99
  27.3650         95
  27.4022         88
  27.4393        103
  27.4765         90
  27.5136         95
  27.5508         90
  27.5879         84
  27.6251         98
  27.6622         89
  27.6994         93
  27.7365         89
  27.7737         93
  27.8108         84
  27.8480        102
  27.8851         83
  27.9223         82
  27.9594         76
  27.9966         90
  28.0337         88
  28.0709         84
  28.1080         89
  28.1452         88
  28.1823         92
  28.2195         74
  28.2567         86
  28.2938         78
  28.3310         93
  28.3681         88
  28.4053         79
  28.4424        102
  28.4796         78
  28.5167         90
  28.5539         89
  28.5910         97
  28.6282        100
  28.6653         78
  28.7025         71
  28.7396         86
  28.7768         78
  28.8139         77
  28.8511         96
  28.8882         81
  28.9254         74
  28.9625         82
  28.9997         73
  29.0368         74
  29.0740         85
  29.1111         75
  29.1483         82
  29.1854         92
  29.2226         68
  29.2597        102
  29.2969         78
  29.3340         87
  29.3712         78
  29.4083         86
  29.4455         91
  29.4826         68
  29.5198         84
  29.5569         84
  29.5941         68
  29.6312         69
  29.6684         94
  29.7055         90
  29.7427         74
  29.7799         78
  29.8170         87
  29.8542         91
  29.8913         74
  29.9285         66
  29.9656         86
  30.0028         89
  30.0399         84
  30.0771         83
  30.1142         71
  30.1514         75
  30.1885         80
  30.2257         93
  30.2628        100
  30.3000         90
  30.3371         91
  30.3743        158
  30.4114        146
  30.4486        108
  30.4857        104
  30.5229         82
  30.5600         82
  30.5972         86
  30.6343         90
  30.6715         66
  30.7086         68
  30.7458         81
  30.7829         70
  30.8201         76
  30.8572         62
  30.8944         70
  30.9315         81
  30.9687         90
  31.0058         65
  31.0430         79
  31.0801         61
  31.1173         67
  31.1544         60
  31.1916         77
  31.2287         75
  31.2659         69
  31.3030         74
  31.3402         62
  31.3774         69
  31.4145         79
  31.4517         65
  31.4888         83
  31.5260         74
  31.5631         85
  31.6003         63
  31.6374         64
  31.6746         65
  31.7117         70
  31.7489         63
  31.7860         76
  31.8232         71
  31.8603         66
  31.8975         74
  31.9346         68
  31.9718         71
  32.0089         49
  32.0461         62
  32.0832         77
  32.1204         66
  32.1575         67
  32.1947         57
  32.2318         59
  32.2690         60
  32.3061         75
  32.3433         58
  32.3804         61
  32.4176         66
  32.4547         83
  32.4919        102
  32.5290         76
  32.5662         78
  32.6033         78
  32.6405         65
  32.6776         67
  32.7148         71
  32.7519         69
  32.7891         56
  32.8262         57
  32.8634         64
  32.9006         66
  32.9377         77
  32.9749         60
  33.0120         61
  33.0492         80
  33.0863         50
  33.1235         50
  33.1606         65
  33.1978         70
  33.2349         61
  33.2721         48
  33.3092         66
  33.3464         54
  33.3835         51
  33.4207         73
  33.4578         56
  33.4950         73
  33.5321         60
  33.5693         62
  33.6064         60
  33.6436         55
  33.6807         51
  33.7179         60
  33.7550         83
  33.7922         75
  33.8293         51
  33.8665         58
  33.9036         59
  33.9408         65
  33.9779         61
  34.0151         52
  34.0522         49
  34.0894         63
  34.1265         60
  34.1637         59
  34.2008         62
  34.2380         61
  34.2751         64
  34.3123         50
  34.3494         69
  34.3866         50
  34.4238         52
  34.4609         58
  34.4981         52
  34.5352         48
  34.5724         73
  34.6095         65
  34.6467         72
  34.6838         73
  34.7210         76
  34.7581         82
  34.7953         75
  34.8324         72
  34.8696         69
  34.9067         64
  34.9439         57
  34.9810         59
  35.0182         51
  35.0553         57
  35.0925         50
  35.1296         48
  35.1668         47
  35.2039         55
  35.2411         50
  35.2782         51
  35.3154         45
  35.3525         50
  35.3897         56
  35.4268         52
  35.4640         58
  35.5011         40
  35.5383         35
  35.5754         60
  35.6126         56
  35.6497         49
  35.6869         48
  35.7240         59
  35.7612         53
  35.7983         58
  35.8355         49
  35.8726         56
  35.9098         59
  35.9469         51
  35.9841         51
  36.0213         43
  36.0584         41
  36.0956         49
  36.1327         35
  36.1699         53
  36.2070         53
  36.2442         50
  36.2813         59
  36.3185         39
  36.3556         47
  36.3928         58
  36.4299         56
  36.4671         50
  36.5042         54
  36.5414         42
  36.5785         43
  36.6157         52
  36.6528         49
  36.6900         42
  36.7271         51
  36.7643         47
  36.8014         54
  36.8386         51
  36.8757         51
  36.9129         39
  36.9500         35
  36.9872         42
  37.0243         46
  37.0615         56
  37.0986         44
  37.1358         54
  37.1729         49
  37.2101         52
  37.2472         53
  37.2844         45
  37.3215         57
  37.3587         57
  37.3958         56
  37.4330         79
  37.4701         83
  37.5073         55
  37.5445         68
  37.5816         48
  37.6188         40
  37.6559         59
  37.6931         43
  37.7302         40
  37.7674         46
  37.8045         46
  37.8417         49
  37.8788         42
  37.9160         44
  37.9531         44
  37.9903         50
  38.0274         50
  38.0646         43
  38.1017         46
  38.1389         47
  38.1760         48
  38.2132         46
  38.2503         38
  38.2875         41
  38.3246         40
  38.3618         48
  38.3989         48
  38.4361         33
  38.4732         35
  38.5104         39
  38.5475         42
  38.5847         33
  38.6218         49
  38.6590         40
  38.6961         41
  38.7333         34
  38.7704         30
  38.8076         47
  38.8447         51
  38.8819         40
  38.9190         48
  38.9562         42
  38.9933         31
  39.0305         45
  39.0677         33
  39.1048         46
  39.1420         47
  39.1791         39
  39.2163         38
  39.2534         34
  39.2906         40
  39.3277         46
  39.3649         30
  39.4020         39
  39.4392         43
  39.4763         46
  39.5135         45
  39.5506         38
  39.5878         43
  39.6249         40
  39.6621         44
  39.6992         40
  39.7364         40
  39.7735         43
  39.8107         38
  39.8478         40
  39.8850         45
  39.9221         33
  39.9593         47
  39.9964         44
  40.0336         48
  40.0707         37
  40.1079         42
  40.1450         46
  40.1822         34
  40.2193         40
  40.2565         43
  40.2936         39
  40.3308         35
  40.3679         37
  40.4051         37
  40.4422         29
  40.4794         37
  40.5165         39
  40.5537         29
  40.5908         46
  40.6280         28
  40.6652         42
  40.7023         41
  40.7395         39
  40.7766         44
  40.8138         40
  40.8509         43
  40.8881         38
  40.9252         45
  40.9624         43
  40.9995         37
  41.0367         35
  41.0738         34
  41.1110         39
  41.1481         31
  41.1853         42
  41.2224         28
  41.2596         32
  41.2967         40
  41.3339         28
  41.3710         38
  41.4082         38
  41.4453         39
  41.4825         46
  41.5196         44
  41.5568         33
  41.5939         43
  41.6311         38
  41.6682         44
  41.7054         33
  41.7425         53
  41.7797         44
  41.8168         41
  41.8540         40
  41.8911         40
  41.9283         42
  41.9654         39
  42.0026         37
  42.0397         40
  42.0769         41
  42.1140         31
  42.1512         43
  42.1884         33
  42.2255         29
  42.2627         37
  42.2998         44
  42.3370         36
  42.3741         29
  42.4113         33
  42.4484         41
  42.4856         28
  42.5227         32
  42.5599         41
  42.5970         36
  42.6342         29
  42.6713         31
  42.7085         36
  42.7456         45
  42.7828         28
  42.8199         37
  42.8571         41
  42.8942         37
  42.9314         37
  42.9685         41
  43.0057         51
  43.0428         45
  43.0800         26
  43.1171         37
  43.1543         32
  43.1914         27
  43.2286         53
  43.2657         38
  43.3029         46
  43.3400         47
  43.3772         46
  43.4143         37
  43.4515         41
  43.4886         62
  43.5258         74
  43.5629         53
  43.6001         50
  43.6372         51
  43.6744         45
  43.7116         42
  43.7487         43
  43.7859         37
  43.8230         33
  43.8602         45
  43.8973         38
  43.9345         41
  43.9716         36
  44.0088         44
  44.0459         39
  44.0831         44
  44.1202         42
  44.1574         38
  44.1945         39
  44.2317         31
  44.2688         27
  44.3060         38
  44.3431         45
  44.3803         35
  44.4174         33
  44.4546         29
  44.4917         48
  44.5289         40
  44.5660         39
  44.6032         44
  44.6403         44
  44.6775         41
  44.7146         45
  44.7518         30
  44.7889         46
  44.8261         44
  44.8632         36
  44.9004         41
  44.9375         37
  44.9747         42
  45.0118         41
  45.0490         22
  45.0861         34
  45.1233         29
  45.1604         28
  45.1976         39
  45.2347         41
  45.2719         41
  45.3091         49
  45.3462         26
  45.3834         37
  45.4205         23
  45.4577         28
  45.4948         32
  45.5320         31
  45.5691         33
  45.6063         33
  45.6434         30
  45.6806         34
  45.7177         29
  45.7549         49
  45.7920         35
  45.8292         28
  45.8663         33
  45.9035         34
  45.9406         38
  45.9778         30
  46.0149         43
  46.0521         26
  46.0892         36
  46.1264         34
  46.1635         41
  46.2007         42
  46.2378         31
  46.2750         31
  46.3121         35
  46.3493         29
  46.3864         24
  46.4236         25
  46.4607         42
  46.4979         41
  46.5350         36
  46.5722         36
  46.6093         27
  46.6465         36
  46.6836         34
  46.7208         31
  46.7579         37
  46.7951         37
  46.8323         40
  46.8694         33
  46.9066         34
  46.9437         32
  46.9809         30
  47.0180         29
  47.0552         19
  47.0923         32
  47.1295         42
  47.1666         31
  47.2038         26
  47.2409         43
  47.2781         44
  47.3152         32
  47.3524         38
  47.3895         36
  47.4267         18
  47.4638         32
  47.5010         32
  47.5381         30
  47.5753         28
  47.6124         37
  47.6496         37
  47.6867         38
  47.7239         34
  47.7610         33
  47.7982         31
  47.8353         32
  47.8725         24
  47.9096         29
  47.9468         37
  47.9839         33
  48.0211         27
  48.0582         27
  48.0954         34
  48.1325         28
  48.1697         35
  48.2068         33
  48.2440         39
  48.2811         26
  48.3183         24
  48.3555         35
  48.3926         23
  48.4298         40
  48.4669         43
  48.5041         31
  48.5412         30
  48.5784         36
  48.6155         23
  48.6527         36
  48.6898         33
  48.7270         30
  48.7641         42
  48.8013         40
  48.8384         36
  48.8756         28
  48.9127         33
  48.9499         59
  48.9870         57
  49.0242         34
  49.0613         27
  49.0985         49
  49.1356         30
  49.1728         35
  49.2099         30
  49.2471         26
  49.2842         30
  49.3214         32
  49.3585         26
  49.3957         36
  49.4328         35
  49.4700         38
  49.5071         34
  49.5443         35
  49.5814         28
  49.6186         27
  49.6557         31
  49.6929         29
  49.7300         27
  49.7672         31
  49.8043         32
  49.8415         29
  49.8786         26
  49.9158         44
  49.9530         22
  49.9901         30
  50.0273         42
  50.0644         33
  50.1016         39
  50.1387         30
  50.1759         34
  50.2130         31
  50.2502         20
  50.2873         26
  50.3245         35
  50.3616         33
  50.3988         26
  50.4359         24
  50.4731         25
  50.5102         22
  50.5474         31
  50.5845         30
  50.6217         29
  50.6588         25
  50.6960         25
  50.7331         30
  50.7703         40
  50.8074         30
  50.8446         30
  50.8817         38
  50.9189         35
  50.9560         30
  50.9932         25
  51.0303         34
  51.0675         27
  51.1046         30
  51.1418         35
  51.1789         27
  51.2161         26
  51.2532         41
  51.2904         25
  51.3275         39
  51.3647         42
  51.4018         43
  51.4390         35
  51.4762         33
  51.5133         34
  51.5505         31
  51.5876         29
  51.6248         35
  51.6619         29
  51.6991         33
  51.7362         28
  51.7734         32
  51.8105         38
  51.8477         43
  51.8848         40
  51.9220         25
  51.9591         33
  51.9963         29
  52.0334         27
  52.0706         34
  52.1077         31
  52.1449         24
  52.1820         26
  52.2192         24
  52.2563         26
  52.2935         28
  52.3306         31
  52.3678         34
  52.4049         27
  52.4421         22
  52.4792         32
  52.5164         24
  52.5535         25
  52.5907         32
  52.6278         33
  52.6650         27
  52.7021         37
  52.7393         33
  52.7764         40
  52.8136         32
  52.8507         45
  52.8879         33
  52.9250         40
  52.9622         34
  52.9994         35
  53.0365         26
  53.0737         20
  53.1108         28
  53.1480         34
  53.1851         31
  53.2223         32
  53.2594         27
  53.2966         29
  53.3337         21
  53.3709         31
  53.4080         28
  53.4452         23
  53.4823         30
  53.5195         26
  53.5566         34
  53.5938         37
  53.6309         41
  53.6681         35
  53.7052         24
  53.7424         30
  53.7795         31
  53.8167         29
  53.8538         22
  53.8910         33
  53.9281         28
  53.9653         39
  54.0024         35
  54.0396         44
  54.0767         30
  54.1139         32
  54.1510         37
  54.1882         38
  54.2253         30
  54.2625         36
  54.2996         24
  54.3368         22
  54.3739         34
  54.4111         33
  54.4482         26
  54.4854         20
  54.5225         20
  54.5597         21
  54.5969         27
  54.6340         29
  54.6712         29
  54.7083         22
  54.7455         32
  54.7826         32
  54.8198         25
  54.8569         26
  54.8941         38
  54.9312         26
  54.9684         20
  55.0055         35
  55.0427         30
  55.0798         30
  55.1170         36
  55.1541         27
  55.1913         31
  55.2284         27
  55.2656         27
  55.3027         24
  55.3399         27
  55.3770         24
  55.4142         32
  55.4513         32
  55.4885         21
  55.5256         29
  55.5628         22
  55.5999         25
  55.6371         36
  55.6742         23
  55.7114         27
  55.7485         31
  55.7857         25
  55.8228         24
  55.8600         29
  55.8971         31
  55.9343         29
  55.9714         29
  56.0086         27
  56.0457         28
  56.0829         36
  56.1201         24
  56.1572         29
  56.1944         38
  56.2315         29
  56.2687         17
  56.3058         36
  56.3430         24
  56.3801         40
  56.4173         29
  56.4544         27
  56.4916         32
  56.5287         31
  56.5659         28
  56.6030         38
  56.6402         25
  56.6773         25
  56.7145         27
  56.7516         24
  56.7888         33
  56.8259         33
  56.8631         22
  56.9002         26
  56.9374         22
  56.9745         33
  57.0117         36
  57.0488         25
  57.0860         32
  57.1231         29
  57.1603         31
  57.1974         32
  57.2346         30
  57.2717         30
  57.3089         25
  57.3460         29
  57.3832         32
  57.4203         31
  57.4575         25
  57.4946         32
  57.5318         30
  57.5689         24
  57.6061         25
  57.6433         30
  57.6804         25
  57.7176         30
  57.7547         33
  57.7919         26
  57.8290         25
  57.8662         35
  57.9033         25
  57.9405         27
  57.9776         17
  58.0148         25
  58.0519         36
  58.0891         25
  58.1262         32
  58.1634         24
  58.2005         34
  58.2377         23
  58.2748         27
  58.3120         16
  58.3491         29
  58.3863         23
  58.4234         38
  58.4606         29
  58.4977         31
  58.5349         26
  58.5720         39
  58.6092         29
  58.6463         29
  58.6835         36
  58.7206         31
  58.7578         25
  58.7949         22
  58.8321         26
  58.8692         22
  58.9064         23
  58.9435         23
  58.9807         26
  59.0178         26
  59.0550         28
  59.0921         33
  59.1293         32
  59.1664         31
  59.2036         27
  59.2408         27
  59.2779         33
  59.3151         24
  59.3522         23
  59.3894         21
  59.4265         33
  59.4637         27
  59.5008         24
  59.5380         26
  59.5751         24
  59.6123         36
  59.6494         35
  59.6866         21
  59.7237         30
  59.7609         23
  59.7980         24
  59.8352         16
  59.8723         25
  59.9095         27
  59.9466         27
  59.9838         30
  60.0024         27