File: notebooks/data/xrd_data/ML_20220720_12_SJD_4_LaB6-1min.csv
;,2THETA,
5.0000,102
5.0372,103
5.0743,74
5.1115,100
5.1486,109
5.1858,103
5.2229,67
5.2601,95
5.2972,89
5.3344,83
5.3715,84
5.4087,75
5.4458,84
5.4830,94
5.5201,100
5.5573,77
5.5944,77
5.6316,72
5.6687,90
5.7059,81
5.7430,73
5.7802,78
5.8173,76
5.8545,73
5.8916,70
5.9288,83
5.9659,73
6.0031,68
6.0402,67
6.0774,63
6.1145,74
6.1517,88
6.1888,72
6.2260,63
6.2631,72
6.3003,59
6.3374,67
6.3746,63
6.4117,78
6.4489,65
6.4860,77
6.5232,68
6.5604,73
6.5975,73
6.6347,74
6.6718,77
6.7090,69
6.7461,76
6.7833,75
6.8204,68
6.8576,58
6.8947,59
6.9319,65
6.9690,49
7.0062,63
7.0433,66
7.0805,69
7.1176,47
7.1548,54
7.1919,56
7.2291,65
7.2662,49
7.3034,67
7.3405,64
7.3777,58
7.4148,76
7.4520,59
7.4891,51
7.5263,65
7.5634,56
7.6006,48
7.6377,53
7.6749,60
7.7120,59
7.7492,84
7.7863,62
7.8235,59
7.8606,62
7.8978,70
7.9349,81
7.9721,48
8.0092,100
8.0464,74
8.0835,73
8.1207,65
8.1579,66
8.1950,84
8.2322,59
8.2693,61
8.3065,76
8.3436,77
8.3808,59
8.4179,71
8.4551,68
8.4922,89
8.5294,71
8.5665,66
8.6037,71
8.6408,75
8.6780,82
8.7151,69
8.7523,65
8.7894,86
8.8266,62
8.8637,78
8.9009,74
8.9380,95
8.9752,86
9.0123,94
9.0495,81
9.0866,70
9.1238,80
9.1609,68
9.1981,68
9.2352,87
9.2724,86
9.3095,80
9.3467,75
9.3838,75
9.4210,94
9.4581,90
9.4953,84
9.5324,92
9.5696,89
9.6067,105
9.6439,76
9.6811,80
9.7182,66
9.7554,74
9.7925,75
9.8297,80
9.8668,77
9.9040,81
9.9411,84
9.9783,102
10.0154,84
10.0526,88
10.0897,87
10.1269,79
10.1640,108
10.2012,94
10.2383,80
10.2755,96
10.3126,89
10.3498,94
10.3869,93
10.4241,94
10.4612,105
10.4984,88
10.5355,87
10.5727,75
10.6098,77
10.6470,76
10.6841,97
10.7213,89
10.7584,88
10.7956,100
10.8327,94
10.8699,89
10.9070,99
10.9442,84
10.9813,89
11.0185,77
11.0556,105
11.0928,89
11.1299,102
11.1671,101
11.2043,97
11.2414,86
11.2786,69
11.3157,77
11.3529,87
11.3900,91
11.4272,76
11.4643,104
11.5015,98
11.5386,92
11.5758,77
11.6129,89
11.6501,94
11.6872,75
11.7244,85
11.7615,84
11.7987,74
11.8358,102
11.8730,80
11.9101,108
11.9473,66
11.9844,96
12.0216,71
12.0587,82
12.0959,77
12.1330,81
12.1702,99
12.2073,87
12.2445,78
12.2816,90
12.3188,87
12.3559,74
12.3931,69
12.4302,81
12.4674,82
12.5045,89
12.5417,55
12.5788,79
12.6160,89
12.6531,77
12.6903,102
12.7274,80
12.7646,94
12.8018,64
12.8389,71
12.8761,71
12.9132,51
12.9504,64
12.9875,74
13.0247,77
13.0618,81
13.0990,53
13.1361,78
13.1733,80
13.2104,59
13.2476,75
13.2847,72
13.3219,68
13.3590,92
13.3962,76
13.4333,67
13.4705,77
13.5076,52
13.5448,81
13.5819,67
13.6191,66
13.6562,67
13.6934,74
13.7305,70
13.7677,67
13.8048,72
13.8420,75
13.8791,62
13.9163,63
13.9534,70
13.9906,78
14.0277,57
14.0649,74
14.1020,71
14.1392,80
14.1763,67
14.2135,69
14.2506,59
14.2878,76
14.3250,70
14.3621,74
14.3993,64
14.4364,73
14.4736,60
14.5107,59
14.5479,75
14.5850,62
14.6222,47
14.6593,53
14.6965,56
14.7336,58
14.7708,64
14.8079,68
14.8451,50
14.8822,60
14.9194,53
14.9565,56
14.9937,57
15.0308,55
15.0680,60
15.1051,62
15.1423,62
15.1794,54
15.2166,48
15.2537,51
15.2909,65
15.3280,68
15.3652,69
15.4023,66
15.4395,62
15.4766,58
15.5138,74
15.5509,54
15.5881,68
15.6252,59
15.6624,58
15.6995,73
15.7367,48
15.7738,61
15.8110,61
15.8482,51
15.8853,55
15.9225,56
15.9596,60
15.9968,78
16.0339,60
16.0711,60
16.1082,62
16.1454,66
16.1825,57
16.2197,55
16.2568,57
16.2940,65
16.3311,59
16.3683,59
16.4054,59
16.4426,56
16.4797,64
16.5169,62
16.5540,68
16.5912,66
16.6283,58
16.6655,64
16.7026,51
16.7398,55
16.7769,54
16.8141,56
16.8512,63
16.8884,52
16.9255,64
16.9627,54
16.9998,63
17.0370,45
17.0741,73
17.1113,56
17.1484,48
17.1856,65
17.2227,69
17.2599,53
17.2970,58
17.3342,56
17.3713,46
17.4085,45
17.4457,69
17.4828,48
17.5200,78
17.5571,56
17.5943,57
17.6314,62
17.6686,64
17.7057,62
17.7429,61
17.7800,67
17.8172,73
17.8543,74
17.8915,70
17.9286,69
17.9658,53
18.0029,67
18.0401,55
18.0772,59
18.1144,53
18.1515,55
18.1887,68
18.2258,51
18.2630,53
18.3001,65
18.3373,48
18.3744,50
18.4116,64
18.4487,61
18.4859,57
18.5230,61
18.5602,68
18.5973,49
18.6345,82
18.6716,54
18.7088,62
18.7459,60
18.7831,64
18.8202,65
18.8574,68
18.8945,56
18.9317,64
18.9689,48
19.0060,70
19.0432,67
19.0803,60
19.1175,74
19.1546,51
19.1918,71
19.2289,63
19.2661,68
19.3032,52
19.3404,72
19.3775,64
19.4147,61
19.4518,64
19.4890,67
19.5261,74
19.5633,64
19.6004,70
19.6376,53
19.6747,49
19.7119,67
19.7490,67
19.7862,57
19.8233,69
19.8605,72
19.8976,59
19.9348,82
19.9719,53
20.0091,56
20.0462,74
20.0834,69
20.1205,64
20.1577,63
20.1948,69
20.2320,66
20.2691,60
20.3063,62
20.3434,72
20.3806,64
20.4177,69
20.4549,63
20.4921,72
20.5292,72
20.5664,88
20.6035,63
20.6407,80
20.6778,67
20.7150,69
20.7521,75
20.7893,63
20.8264,73
20.8636,82
20.9007,68
20.9379,76
20.9750,74
21.0122,79
21.0493,76
21.0865,77
21.1236,70
21.1608,100
21.1979,109
21.2351,110
21.2722,111
21.3094,113
21.3465,189
21.3837,162
21.4208,123
21.4580,67
21.4951,69
21.5323,65
21.5694,56
21.6066,82
21.6437,78
21.6809,57
21.7180,92
21.7552,75
21.7923,74
21.8295,78
21.8666,74
21.9038,74
21.9409,65
21.9781,71
22.0152,71
22.0524,74
22.0896,77
22.1267,64
22.1639,85
22.2010,71
22.2382,69
22.2753,78
22.3125,86
22.3496,69
22.3868,61
22.4239,80
22.4611,67
22.4982,69
22.5354,64
22.5725,71
22.6097,56
22.6468,51
22.6840,57
22.7211,75
22.7583,69
22.7954,73
22.8326,84
22.8697,64
22.9069,64
22.9440,87
22.9812,63
23.0183,57
23.0555,68
23.0926,78
23.1298,79
23.1669,60
23.2041,79
23.2412,74
23.2784,67
23.3155,82
23.3527,83
23.3898,75
23.4270,70
23.4641,67
23.5013,72
23.5384,76
23.5756,78
23.6128,78
23.6499,75
23.6871,72
23.7242,70
23.7614,67
23.7985,71
23.8357,53
23.8728,49
23.9100,75
23.9471,73
23.9843,59
24.0214,94
24.0586,79
24.0957,83
24.1329,61
24.1700,71
24.2072,85
24.2443,67
24.2815,76
24.3186,78
24.3558,77
24.3929,58
24.4301,75
24.4672,82
24.5044,58
24.5415,65
24.5787,65
24.6158,77
24.6530,83
24.6901,60
24.7273,84
24.7644,71
24.8016,81
24.8387,66
24.8759,52
24.9130,73
24.9502,84
24.9873,78
25.0245,66
25.0616,70
25.0988,83
25.1360,82
25.1731,77
25.2103,70
25.2474,55
25.2846,69
25.3217,76
25.3589,70
25.3960,73
25.4332,70
25.4703,74
25.5075,64
25.5446,84
25.5818,76
25.6189,80
25.6561,71
25.6932,73
25.7304,67
25.7675,81
25.8047,74
25.8418,61
25.8790,67
25.9161,68
25.9533,83
25.9904,75
26.0276,65
26.0647,78
26.1019,66
26.1390,66
26.1762,69
26.2133,80
26.2505,75
26.2876,58
26.3248,75
26.3619,78
26.3991,73
26.4362,79
26.4734,76
26.5105,55
26.5477,74
26.5848,62
26.6220,69
26.6591,63
26.6963,67
26.7335,77
26.7706,80
26.8078,75
26.8449,60
26.8821,73
26.9192,78
26.9564,68
26.9935,84
27.0307,70
27.0678,73
27.1050,65
27.1421,72
27.1793,80
27.2164,104
27.2536,80
27.2907,69
27.3279,66
27.3650,88
27.4022,69
27.4393,83
27.4765,66
27.5136,77
27.5508,74
27.5879,70
27.6251,71
27.6622,68
27.6994,62
27.7365,67
27.7737,67
27.8108,68
27.8480,55
27.8851,53
27.9223,62
27.9594,60
27.9966,75
28.0337,76
28.0709,50
28.1080,80
28.1452,70
28.1823,58
28.2195,58
28.2567,75
28.2938,53
28.3310,75
28.3681,63
28.4053,68
28.4424,63
28.4796,57
28.5167,56
28.5539,73
28.5910,67
28.6282,57
28.6653,54
28.7025,63
28.7396,60
28.7768,54
28.8139,55
28.8511,51
28.8882,68
28.9254,74
28.9625,53
28.9997,55
29.0368,76
29.0740,54
29.1111,51
29.1483,64
29.1854,68
29.2226,53
29.2597,53
29.2969,67
29.3340,59
29.3712,69
29.4083,56
29.4455,49
29.4826,63
29.5198,55
29.5569,60
29.5941,64
29.6312,55
29.6684,42
29.7055,71
29.7427,53
29.7799,63
29.8170,59
29.8542,44
29.8913,51
29.9285,68
29.9656,58
30.0028,54
30.0399,44
30.0771,58
30.1142,59
30.1514,53
30.1885,52
30.2257,81
30.2628,73
30.3000,71
30.3371,86
30.3743,123
30.4114,93
30.4486,80
30.4857,87
30.5229,63
30.5600,49
30.5972,58
30.6343,59
30.6715,64
30.7086,53
30.7458,60
30.7829,49
30.8201,65
30.8572,58
30.8944,50
30.9315,44
30.9687,46
31.0058,53
31.0430,44
31.0801,50
31.1173,59
31.1544,54
31.1916,45
31.2287,56
31.2659,51
31.3030,54
31.3402,58
31.3774,52
31.4145,44
31.4517,48
31.4888,41
31.5260,61
31.5631,52
31.6003,56
31.6374,49
31.6746,57
31.7117,49
31.7489,54
31.7860,61
31.8232,53
31.8603,52
31.8975,53
31.9346,62
31.9718,35
32.0089,49
32.0461,62
32.0832,58
32.1204,54
32.1575,42
32.1947,50
32.2318,51
32.2690,45
32.3061,57
32.3433,47
32.3804,56
32.4176,52
32.4547,56
32.4919,60
32.5290,53
32.5662,60
32.6033,64
32.6405,47
32.6776,48
32.7148,50
32.7519,50
32.7891,50
32.8262,41
32.8634,46
32.9006,44
32.9377,58
32.9749,58
33.0120,46
33.0492,50
33.0863,53
33.1235,56
33.1606,48
33.1978,41
33.2349,35
33.2721,49
33.3092,52
33.3464,32
33.3835,35
33.4207,39
33.4578,38
33.4950,36
33.5321,34
33.5693,34
33.6064,47
33.6436,36
33.6807,48
33.7179,38
33.7550,29
33.7922,40
33.8293,41
33.8665,43
33.9036,47
33.9408,35
33.9779,43
34.0151,34
34.0522,46
34.0894,37
34.1265,51
34.1637,34
34.2008,54
34.2380,38
34.2751,43
34.3123,41
34.3494,44
34.3866,47
34.4238,38
34.4609,43
34.4981,38
34.5352,43
34.5724,43
34.6095,45
34.6467,49
34.6838,51
34.7210,44
34.7581,51
34.7953,64
34.8324,56
34.8696,45
34.9067,48
34.9439,49
34.9810,42
35.0182,41
35.0553,31
35.0925,41
35.1296,40
35.1668,38
35.2039,32
35.2411,39
35.2782,34
35.3154,35
35.3525,39
35.3897,47
35.4268,33
35.4640,47
35.5011,35
35.5383,21
35.5754,28
35.6126,35
35.6497,36
35.6869,29
35.7240,36
35.7612,41
35.7983,37
35.8355,41
35.8726,42
35.9098,34
35.9469,21
35.9841,35
36.0213,28
36.0584,25
36.0956,39
36.1327,38
36.1699,35
36.2070,32
36.2442,37
36.2813,28
36.3185,35
36.3556,33
36.3928,36
36.4299,36
36.4671,42
36.5042,40
36.5414,41
36.5785,35
36.6157,30
36.6528,24
36.6900,31
36.7271,37
36.7643,32
36.8014,37
36.8386,37
36.8757,41
36.9129,36
36.9500,25
36.9872,44
37.0243,25
37.0615,24
37.0986,34
37.1358,32
37.1729,40
37.2101,29
37.2472,34
37.2844,38
37.3215,37
37.3587,46
37.3958,43
37.4330,62
37.4701,35
37.5073,48
37.5445,50
37.5816,41
37.6188,41
37.6559,29
37.6931,33
37.7302,28
37.7674,36
37.8045,39
37.8417,43
37.8788,26
37.9160,30
37.9531,34
37.9903,38
38.0274,24
38.0646,28
38.1017,28
38.1389,28
38.1760,34
38.2132,23
38.2503,33
38.2875,19
38.3246,20
38.3618,26
38.3989,37
38.4361,33
38.4732,40
38.5104,26
38.5475,27
38.5847,21
38.6218,29
38.6590,39
38.6961,24
38.7333,26
38.7704,31
38.8076,36
38.8447,26
38.8819,25
38.9190,34
38.9562,35
38.9933,24
39.0305,36
39.0677,28
39.1048,36
39.1420,28
39.1791,30
39.2163,33
39.2534,39
39.2906,26
39.3277,18
39.3649,21
39.4020,38
39.4392,33
39.4763,26
39.5135,22
39.5506,23
39.5878,34
39.6249,25
39.6621,24
39.6992,33
39.7364,27
39.7735,26
39.8107,38
39.8478,20
39.8850,30
39.9221,34
39.9593,29
39.9964,27
40.0336,29
40.0707,23
40.1079,31
40.1450,23
40.1822,29
40.2193,32
40.2565,33
40.2936,31
40.3308,27
40.3679,22
40.4051,18
40.4422,25
40.4794,27
40.5165,24
40.5537,36
40.5908,36
40.6280,35
40.6652,29
40.7023,20
40.7395,32
40.7766,22
40.8138,28
40.8509,27
40.8881,25
40.9252,29
40.9624,35
40.9995,31
41.0367,30
41.0738,34
41.1110,28
41.1481,26
41.1853,33
41.2224,24
41.2596,38
41.2967,23
41.3339,39
41.3710,22
41.4082,33
41.4453,22
41.4825,36
41.5196,31
41.5568,31
41.5939,24
41.6311,21
41.6682,29
41.7054,19
41.7425,23
41.7797,32
41.8168,35
41.8540,23
41.8911,24
41.9283,27
41.9654,29
42.0026,26
42.0397,26
42.0769,21
42.1140,30
42.1512,27
42.1884,33
42.2255,21
42.2627,23
42.2998,33
42.3370,23
42.3741,22
42.4113,21
42.4484,22
42.4856,34
42.5227,21
42.5599,29
42.5970,34
42.6342,30
42.6713,26
42.7085,20
42.7456,21
42.7828,22
42.8199,29
42.8571,25
42.8942,22
42.9314,17
42.9685,18
43.0057,33
43.0428,37
43.0800,28
43.1171,19
43.1543,29
43.1914,33
43.2286,29
43.2657,28
43.3029,29
43.3400,34
43.3772,20
43.4143,21
43.4515,37
43.4886,61
43.5258,41
43.5629,31
43.6001,35
43.6372,43
43.6744,24
43.7116,31
43.7487,28
43.7859,16
43.8230,28
43.8602,34
43.8973,18
43.9345,27
43.9716,17
44.0088,25
44.0459,27
44.0831,28
44.1202,30
44.1574,27
44.1945,31
44.2317,18
44.2688,27
44.3060,18
44.3431,26
44.3803,25
44.4174,28
44.4546,27
44.4917,28
44.5289,29
44.5660,28
44.6032,35
44.6403,25
44.6775,26
44.7146,24
44.7518,30
44.7889,30
44.8261,26
44.8632,34
44.9004,33
44.9375,20
44.9747,25
45.0118,28
45.0490,22
45.0861,32
45.1233,19
45.1604,26
45.1976,27
45.2347,31
45.2719,23
45.3091,26
45.3462,25
45.3834,22
45.4205,30
45.4577,35
45.4948,31
45.5320,22
45.5691,23
45.6063,38
45.6434,18
45.6806,21
45.7177,28
45.7549,21
45.7920,29
45.8292,16
45.8663,20
45.9035,25
45.9406,29
45.9778,29
46.0149,30
46.0521,23
46.0892,32
46.1264,30
46.1635,27
46.2007,26
46.2378,23
46.2750,27
46.3121,25
46.3493,17
46.3864,27
46.4236,30
46.4607,26
46.4979,19
46.5350,24
46.5722,29
46.6093,19
46.6465,23
46.6836,27
46.7208,24
46.7579,21
46.7951,26
46.8323,23
46.8694,21
46.9066,26
46.9437,14
46.9809,24
47.0180,27
47.0552,30
47.0923,32
47.1295,16
47.1666,18
47.2038,22
47.2409,19
47.2781,30
47.3152,21
47.3524,25
47.3895,26
47.4267,26
47.4638,25
47.5010,22
47.5381,16
47.5753,28
47.6124,28
47.6496,30
47.6867,25
47.7239,24
47.7610,29
47.7982,23
47.8353,20
47.8725,23
47.9096,18
47.9468,30
47.9839,20
48.0211,24
48.0582,23
48.0954,22
48.1325,27
48.1697,21
48.2068,29
48.2440,19
48.2811,27
48.3183,13
48.3555,36
48.3926,29
48.4298,20
48.4669,18
48.5041,12
48.5412,21
48.5784,23
48.6155,28
48.6527,16
48.6898,20
48.7270,25
48.7641,23
48.8013,20
48.8384,25
48.8756,28
48.9127,36
48.9499,46
48.9870,31
49.0242,25
49.0613,31
49.0985,30
49.1356,20
49.1728,23
49.2099,21
49.2471,21
49.2842,29
49.3214,23
49.3585,23
49.3957,18
49.4328,25
49.4700,24
49.5071,18
49.5443,24
49.5814,20
49.6186,22
49.6557,26
49.6929,16
49.7300,25
49.7672,24
49.8043,18
49.8415,25
49.8786,20
49.9158,21
49.9530,21
49.9901,17
50.0273,18
50.0644,22
50.1016,28
50.1387,21
50.1759,28
50.2130,31
50.2502,24
50.2873,19
50.3245,25
50.3616,20
50.3988,20
50.4359,23
50.4731,31
50.5102,21
50.5474,16
50.5845,18
50.6217,37
50.6588,23
50.6960,23
50.7331,19
50.7703,16
50.8074,34
50.8446,13
50.8817,20
50.9189,18
50.9560,16
50.9932,24
51.0303,27
51.0675,19
51.1046,21
51.1418,24
51.1789,18
51.2161,29
51.2532,23
51.2904,10
51.3275,24
51.3647,16
51.4018,23
51.4390,25
51.4762,22
51.5133,22
51.5505,15
51.5876,23
51.6248,32
51.6619,16
51.6991,16
51.7362,25
51.7734,25
51.8105,26
51.8477,18
51.8848,24
51.9220,24
51.9591,27
51.9963,31
52.0334,18
52.0706,22
52.1077,20
52.1449,16
52.1820,21
52.2192,27
52.2563,17
52.2935,18
52.3306,27
52.3678,26
52.4049,20
52.4421,22
52.4792,13
52.5164,21
52.5535,18
52.5907,21
52.6278,19
52.6650,16
52.7021,21
52.7393,22
52.7764,25
52.8136,28
52.8507,22
52.8879,29
52.9250,23
52.9622,23
52.9994,25
53.0365,22
53.0737,23
53.1108,22
53.1480,27
53.1851,22
53.2223,27
53.2594,22
53.2966,21
53.3337,34
53.3709,26
53.4080,24
53.4452,17
53.4823,20
53.5195,27
53.5566,28
53.5938,16
53.6309,36
53.6681,24
53.7052,20
53.7424,24
53.7795,23
53.8167,16
53.8538,18
53.8910,19
53.9281,20
53.9653,22
54.0024,33
54.0396,26
54.0767,24
54.1139,26
54.1510,28
54.1882,19
54.2253,23
54.2625,18
54.2996,27
54.3368,25
54.3739,16
54.4111,18
54.4482,25
54.4854,12
54.5225,13
54.5597,28
54.5969,24
54.6340,22
54.6712,9
54.7083,19
54.7455,17
54.7826,29
54.8198,25
54.8569,15
54.8941,27
54.9312,21
54.9684,19
55.0055,21
55.0427,24
55.0798,29
55.1170,22
55.1541,15
55.1913,20
55.2284,17
55.2656,20
55.3027,13
55.3399,17
55.3770,26
55.4142,26
55.4513,20
55.4885,27
55.5256,23
55.5628,24
55.5999,23
55.6371,18
55.6742,25
55.7114,15
55.7485,13
55.7857,16
55.8228,25
55.8600,25
55.8971,24
55.9343,16
55.9714,25
56.0086,19
56.0457,13
56.0829,14
56.1201,22
56.1572,21
56.1944,33
56.2315,21
56.2687,22
56.3058,9
56.3430,23
56.3801,17
56.4173,19
56.4544,19
56.4916,20
56.5287,24
56.5659,23
56.6030,22
56.6402,13
56.6773,19
56.7145,24
56.7516,17
56.7888,13
56.8259,23
56.8631,20
56.9002,26
56.9374,21
56.9745,19
57.0117,18
57.0488,34
57.0860,18
57.1231,18
57.1603,24
57.1974,18
57.2346,16
57.2717,24
57.3089,23
57.3460,22
57.3832,35
57.4203,20
57.4575,25
57.4946,25
57.5318,22
57.5689,19
57.6061,24
57.6433,28
57.6804,18
57.7176,12
57.7547,19
57.7919,27
57.8290,30
57.8662,21
57.9033,19
57.9405,20
57.9776,17
58.0148,24
58.0519,18
58.0891,21
58.1262,17
58.1634,25
58.2005,24
58.2377,24
58.2748,26
58.3120,20
58.3491,17
58.3863,19
58.4234,23
58.4606,25
58.4977,16
58.5349,21
58.5720,23
58.6092,17
58.6463,15
58.6835,14
58.7206,28
58.7578,15
58.7949,24
58.8321,28
58.8692,18
58.9064,23
58.9435,17
58.9807,19
59.0178,23
59.0550,22
59.0921,14
59.1293,16
59.1664,26
59.2036,22
59.2408,16
59.2779,20
59.3151,25
59.3522,19
59.3894,26
59.4265,22
59.4637,25
59.5008,21
59.5380,20
59.5751,20
59.6123,20
59.6494,15
59.6866,16
59.7237,17
59.7609,24
59.7980,19
59.8352,22
59.8723,19
59.9095,20
59.9466,22
59.9838,21
60.0024,23