File: notebooks/data/xrd_data/ML_20220721_34_SJD_4_LaB6-4min.uxd
; (content of file Y:\Sam\Apurva-07-20-2022\puck1\ML_20220721_34_SJD_0_LaB6-4min.raw)
_FILEVERSION = 3
_SAMPLE = ML_20220721_34_SJD_0_LaB6-4min
_+SAMPLE =
_SITE = USA
_USER = Administrator
_GONIOMETER_CODE = 20
; Goniometer : D8 theta/2theta, stage : Unknown
_ATTACHMENTS_CODE = 0
_GONIOMETER_RADIUS = 200.5
_FIXED_DIVSLIT = 0.6
_FIXED_SAMPLESLIT = 0
_SOLLER_SLITS = 2
_FIXED_DETSLIT = 9.55
_MONOCHROMATOR = 0
; Incident beam monochromator : None
_SOLLER_SLITS_2 = N
_THIN_FILM = N
_BETA_FILTER = Y
_FIXED_ANTISLIT = 5.89
_ANALYZER_CODE = 0
; Received beam analyzer : None
_DATEMEASURED = "25-Jul-2022 16:24:55"
_WL_UNIT = A
_WL1 = 1.5406
_WL2 = 1.54439
_WL3 = 1.39222
_WLRATIO = 0.5
_ANODE = Cu
_V4_INF_CREATOR = XRDWizard
_V4_INF_CREATOR_VERSION = V2.9.0.22
_V4_INF_WIZARD_VERSION = V2.9.0.22
_V4_INF_WIZARD_ADDINS = V2.9.0.22
_V4_INF_WIZARD_DOCTYPE = XRD
_V4_INF_OSUSER = McQueenLab
_V4_INF_USER = Administrator
_V4_INF_SITE = USA
_V4_INF_SAMPLEID = ML_20220721_34_SJD_0_LaB6-4min

; Data for range 1
_DRIVE = COUPLED
_STEPTIME = 11.28
_STEPSIZE = 0.0185756
_STEPMODE = C
_START = 5
_THETA = 2.5
_2THETA = 5
_KHI = 0
_PHI = 0
_X = 0
_Y = 0
_Z = 0
_DETECTOR = 5
; Detector type : Unknown
_DETECTORSLIT = unkn
_AUX1 = 0
_AUX2 = 0
_AUX3 = 0
_TIMESTARTED = 15
_TEMP_RATE = -1
_TEMP_DELAY = -1
_KV = 40
_MA = 40
_RANGE_WL = 1.5406
_3DPLANE = 0
_V4_ADDITIONALDETECTOR = 257
_V4_PSD2THETA = 3.3675
_V4_PSDCHANNEL1 = 0
_V4_PSDAPERTURE = 12.68
_V4_PSDTYPE = 5
_V4_PSDFIXED = 0
_V4_COUNTERS_MASK = 4096
_V4_DRIVES_MASK = 0
_V4_ENCODERS_MASK = 0
_2THETACOUNTS = 1
; 2THETA  PSD
   5.0000        263
   5.0372        267
   5.0743        266
   5.1115        267
   5.1486        252
   5.1858        252
   5.2229        267
   5.2601        229
   5.2972        251
   5.3344        253
   5.3715        256
   5.4087        218
   5.4458        231
   5.4830        225
   5.5201        247
   5.5573        230
   5.5944        252
   5.6316        213
   5.6687        214
   5.7059        234
   5.7430        208
   5.7802        219
   5.8173        209
   5.8545        203
   5.8916        185
   5.9288        215
   5.9659        187
   6.0031        183
   6.0402        187
   6.0774        171
   6.1145        194
   6.1517        187
   6.1888        176
   6.2260        183
   6.2631        211
   6.3003        172
   6.3374        180
   6.3746        187
   6.4117        160
   6.4489        177
   6.4860        180
   6.5232        188
   6.5604        169
   6.5975        157
   6.6347        156
   6.6718        167
   6.7090        168
   6.7461        175
   6.7833        179
   6.8204        170
   6.8576        174
   6.8947        168
   6.9319        164
   6.9690        166
   7.0062        175
   7.0433        156
   7.0805        159
   7.1176        155
   7.1548        184
   7.1919        169
   7.2291        154
   7.2662        174
   7.3034        158
   7.3405        154
   7.3777        172
   7.4148        170
   7.4520        164
   7.4891        167
   7.5263        177
   7.5634        191
   7.6006        168
   7.6377        185
   7.6749        191
   7.7120        197
   7.7492        198
   7.7863        192
   7.8235        198
   7.8606        178
   7.8978        173
   7.9349        187
   7.9721        201
   8.0092        179
   8.0464        196
   8.0835        202
   8.1207        200
   8.1579        197
   8.1950        200
   8.2322        193
   8.2693        209
   8.3065        170
   8.3436        220
   8.3808        182
   8.4179        209
   8.4551        174
   8.4922        210
   8.5294        221
   8.5665        209
   8.6037        222
   8.6408        217
   8.6780        221
   8.7151        241
   8.7523        187
   8.7894        203
   8.8266        227
   8.8637        210
   8.9009        206
   8.9380        230
   8.9752        227
   9.0123        215
   9.0495        224
   9.0866        214
   9.1238        235
   9.1609        210
   9.1981        212
   9.2352        229
   9.2724        211
   9.3095        232
   9.3467        209
   9.3838        209
   9.4210        202
   9.4581        237
   9.4953        217
   9.5324        208
   9.5696        226
   9.6067        230
   9.6439        231
   9.6811        243
   9.7182        218
   9.7554        221
   9.7925        239
   9.8297        213
   9.8668        266
   9.9040        243
   9.9411        239
   9.9783        219
  10.0154        225
  10.0526        235
  10.0897        255
  10.1269        243
  10.1640        245
  10.2012        261
  10.2383        219
  10.2755        233
  10.3126        251
  10.3498        225
  10.3869        218
  10.4241        229
  10.4612        267
  10.4984        235
  10.5355        255
  10.5727        201
  10.6098        255
  10.6470        229
  10.6841        239
  10.7213        241
  10.7584        241
  10.7956        244
  10.8327        246
  10.8699        216
  10.9070        238
  10.9442        212
  10.9813        240
  11.0185        210
  11.0556        226
  11.0928        244
  11.1299        241
  11.1671        212
  11.2043        242
  11.2414        235
  11.2786        238
  11.3157        215
  11.3529        254
  11.3900        264
  11.4272        235
  11.4643        237
  11.5015        232
  11.5386        255
  11.5758        241
  11.6129        225
  11.6501        225
  11.6872        234
  11.7244        247
  11.7615        252
  11.7987        228
  11.8358        217
  11.8730        208
  11.9101        220
  11.9473        214
  11.9844        246
  12.0216        205
  12.0587        221
  12.0959        227
  12.1330        225
  12.1702        220
  12.2073        214
  12.2445        200
  12.2816        244
  12.3188        220
  12.3559        230
  12.3931        201
  12.4302        222
  12.4674        228
  12.5045        242
  12.5417        218
  12.5788        235
  12.6160        219
  12.6531        201
  12.6903        182
  12.7274        206
  12.7646        207
  12.8018        211
  12.8389        174
  12.8761        226
  12.9132        200
  12.9504        221
  12.9875        222
  13.0247        224
  13.0618        206
  13.0990        223
  13.1361        184
  13.1733        207
  13.2104        224
  13.2476        202
  13.2847        189
  13.3219        212
  13.3590        184
  13.3962        177
  13.4333        201
  13.4705        228
  13.5076        196
  13.5448        212
  13.5819        187
  13.6191        172
  13.6562        216
  13.6934        210
  13.7305        211
  13.7677        177
  13.8048        200
  13.8420        187
  13.8791        183
  13.9163        199
  13.9534        196
  13.9906        195
  14.0277        208
  14.0649        189
  14.1020        185
  14.1392        177
  14.1763        197
  14.2135        200
  14.2506        167
  14.2878        178
  14.3250        180
  14.3621        193
  14.3993        188
  14.4364        172
  14.4736        165
  14.5107        157
  14.5479        160
  14.5850        173
  14.6222        176
  14.6593        176
  14.6965        160
  14.7336        159
  14.7708        159
  14.8079        154
  14.8451        169
  14.8822        157
  14.9194        173
  14.9565        172
  14.9937        182
  15.0308        173
  15.0680        169
  15.1051        157
  15.1423        156
  15.1794        166
  15.2166        161
  15.2537        166
  15.2909        197
  15.3280        155
  15.3652        170
  15.4023        195
  15.4395        143
  15.4766        169
  15.5138        167
  15.5509        184
  15.5881        148
  15.6252        193
  15.6624        183
  15.6995        184
  15.7367        176
  15.7738        160
  15.8110        176
  15.8482        163
  15.8853        157
  15.9225        167
  15.9596        154
  15.9968        182
  16.0339        174
  16.0711        150
  16.1082        153
  16.1454        130
  16.1825        169
  16.2197        149
  16.2568        163
  16.2940        166
  16.3311        156
  16.3683        173
  16.4054        149
  16.4426        155
  16.4797        161
  16.5169        161
  16.5540        155
  16.5912        161
  16.6283        151
  16.6655        166
  16.7026        170
  16.7398        170
  16.7769        167
  16.8141        183
  16.8512        145
  16.8884        155
  16.9255        161
  16.9627        167
  16.9998        171
  17.0370        159
  17.0741        177
  17.1113        153
  17.1484        190
  17.1856        176
  17.2227        155
  17.2599        169
  17.2970        155
  17.3342        162
  17.3713        169
  17.4085        176
  17.4457        150
  17.4828        167
  17.5200        151
  17.5571        170
  17.5943        193
  17.6314        179
  17.6686        158
  17.7057        152
  17.7429        168
  17.7800        156
  17.8172        154
  17.8543        143
  17.8915        141
  17.9286        138
  17.9658        159
  18.0029        185
  18.0401        162
  18.0772        156
  18.1144        151
  18.1515        167
  18.1887        164
  18.2258        172
  18.2630        180
  18.3001        176
  18.3373        174
  18.3744        147
  18.4116        153
  18.4487        169
  18.4859        152
  18.5230        152
  18.5602        161
  18.5973        162
  18.6345        170
  18.6716        185
  18.7088        172
  18.7459        156
  18.7831        179
  18.8202        178
  18.8574        188
  18.8945        160
  18.9317        177
  18.9689        153
  19.0060        160
  19.0432        178
  19.0803        146
  19.1175        173
  19.1546        179
  19.1918        182
  19.2289        144
  19.2661        166
  19.3032        162
  19.3404        180
  19.3775        170
  19.4147        184
  19.4518        184
  19.4890        191
  19.5261        148
  19.5633        179
  19.6004        175
  19.6376        151
  19.6747        204
  19.7119        157
  19.7490        177
  19.7862        190
  19.8233        165
  19.8605        194
  19.8976        170
  19.9348        170
  19.9719        196
  20.0091        183
  20.0462        171
  20.0834        206
  20.1205        172
  20.1577        164
  20.1948        170
  20.2320        191
  20.2691        179
  20.3063        170
  20.3434        164
  20.3806        184
  20.4177        186
  20.4549        187
  20.4921        189
  20.5292        196
  20.5664        167
  20.6035        204
  20.6407        185
  20.6778        191
  20.7150        189
  20.7521        183
  20.7893        204
  20.8264        187
  20.8636        189
  20.9007        191
  20.9379        192
  20.9750        198
  21.0122        205
  21.0493        194
  21.0865        204
  21.1236        229
  21.1608        199
  21.1979        290
  21.2351        318
  21.2722        300
  21.3094        307
  21.3465        554
  21.3837        428
  21.4208        355
  21.4580        239
  21.4951        195
  21.5323        211
  21.5694        214
  21.6066        191
  21.6437        178
  21.6809        216
  21.7180        184
  21.7552        179
  21.7923        207
  21.8295        206
  21.8666        206
  21.9038        209
  21.9409        180
  21.9781        206
  22.0152        177
  22.0524        203
  22.0896        188
  22.1267        199
  22.1639        196
  22.2010        193
  22.2382        200
  22.2753        207
  22.3125        197
  22.3496        213
  22.3868        207
  22.4239        186
  22.4611        191
  22.4982        182
  22.5354        197
  22.5725        213
  22.6097        210
  22.6468        179
  22.6840        201
  22.7211        210
  22.7583        187
  22.7954        191
  22.8326        214
  22.8697        219
  22.9069        208
  22.9440        197
  22.9812        206
  23.0183        200
  23.0555        204
  23.0926        209
  23.1298        211
  23.1669        206
  23.2041        188
  23.2412        204
  23.2784        232
  23.3155        176
  23.3527        187
  23.3898        186
  23.4270        206
  23.4641        209
  23.5013        213
  23.5384        206
  23.5756        201
  23.6128        202
  23.6499        181
  23.6871        218
  23.7242        200
  23.7614        220
  23.7985        222
  23.8357        186
  23.8728        213
  23.9100        216
  23.9471        194
  23.9843        212
  24.0214        208
  24.0586        192
  24.0957        197
  24.1329        205
  24.1700        200
  24.2072        209
  24.2443        224
  24.2815        231
  24.3186        218
  24.3558        215
  24.3929        218
  24.4301        186
  24.4672        199
  24.5044        210
  24.5415        204
  24.5787        205
  24.6158        207
  24.6530        215
  24.6901        207
  24.7273        201
  24.7644        208
  24.8016        196
  24.8387        214
  24.8759        216
  24.9130        194
  24.9502        211
  24.9873        193
  25.0245        193
  25.0616        191
  25.0988        172
  25.1360        218
  25.1731        190
  25.2103        188
  25.2474        191
  25.2846        204
  25.3217        201
  25.3589        211
  25.3960        204
  25.4332        203
  25.4703        213
  25.5075        213
  25.5446        195
  25.5818        187
  25.6189        218
  25.6561        183
  25.6932        196
  25.7304        189
  25.7675        220
  25.8047        185
  25.8418        230
  25.8790        200
  25.9161        163
  25.9533        205
  25.9904        214
  26.0276        185
  26.0647        205
  26.1019        209
  26.1390        174
  26.1762        170
  26.2133        197
  26.2505        197
  26.2876        174
  26.3248        181
  26.3619        161
  26.3991        187
  26.4362        198
  26.4734        178
  26.5105        198
  26.5477        184
  26.5848        189
  26.6220        163
  26.6591        174
  26.6963        181
  26.7335        193
  26.7706        186
  26.8078        182
  26.8449        193
  26.8821        184
  26.9192        192
  26.9564        182
  26.9935        165
  27.0307        175
  27.0678        189
  27.1050        184
  27.1421        213
  27.1793        257
  27.2164        241
  27.2536        205
  27.2907        205
  27.3279        215
  27.3650        199
  27.4022        193
  27.4393        179
  27.4765        195
  27.5136        187
  27.5508        182
  27.5879        200
  27.6251        174
  27.6622        158
  27.6994        182
  27.7365        194
  27.7737        177
  27.8108        182
  27.8480        171
  27.8851        164
  27.9223        173
  27.9594        166
  27.9966        169
  28.0337        197
  28.0709        167
  28.1080        172
  28.1452        161
  28.1823        169
  28.2195        176
  28.2567        196
  28.2938        183
  28.3310        180
  28.3681        157
  28.4053        177
  28.4424        169
  28.4796        173
  28.5167        168
  28.5539        175
  28.5910        164
  28.6282        149
  28.6653        168
  28.7025        185
  28.7396        171
  28.7768        165
  28.8139        146
  28.8511        168
  28.8882        155
  28.9254        170
  28.9625        160
  28.9997        179
  29.0368        167
  29.0740        175
  29.1111        164
  29.1483        162
  29.1854        167
  29.2226        156
  29.2597        180
  29.2969        157
  29.3340        147
  29.3712        165
  29.4083        162
  29.4455        158
  29.4826        168
  29.5198        169
  29.5569        180
  29.5941        154
  29.6312        157
  29.6684        182
  29.7055        155
  29.7427        156
  29.7799        167
  29.8170        175
  29.8542        141
  29.8913        165
  29.9285        176
  29.9656        168
  30.0028        145
  30.0399        147
  30.0771        156
  30.1142        154
  30.1514        158
  30.1885        161
  30.2257        168
  30.2628        166
  30.3000        168
  30.3371        190
  30.3743        305
  30.4114        280
  30.4486        258
  30.4857        220
  30.5229        182
  30.5600        176
  30.5972        144
  30.6343        139
  30.6715        159
  30.7086        157
  30.7458        162
  30.7829        130
  30.8201        142
  30.8572        177
  30.8944        166
  30.9315        146
  30.9687        151
  31.0058        150
  31.0430        133
  31.0801        132
  31.1173        142
  31.1544        134
  31.1916        139
  31.2287        136
  31.2659        156
  31.3030        141
  31.3402        142
  31.3774        141
  31.4145        150
  31.4517        142
  31.4888        115
  31.5260        138
  31.5631        154
  31.6003        136
  31.6374        126
  31.6746        153
  31.7117        140
  31.7489        126
  31.7860        133
  31.8232        140
  31.8603        138
  31.8975        124
  31.9346        137
  31.9718        152
  32.0089        119
  32.0461        133
  32.0832        148
  32.1204        132
  32.1575        138
  32.1947        113
  32.2318        121
  32.2690        130
  32.3061        129
  32.3433        117
  32.3804        134
  32.4176        154
  32.4547        145
  32.4919        190
  32.5290        175
  32.5662        139
  32.6033        127
  32.6405        153
  32.6776        130
  32.7148        129
  32.7519        135
  32.7891        125
  32.8262        141
  32.8634        134
  32.9006        132
  32.9377        134
  32.9749        128
  33.0120        111
  33.0492        105
  33.0863        121
  33.1235         96
  33.1606        132
  33.1978        106
  33.2349        125
  33.2721        116
  33.3092        122
  33.3464        111
  33.3835        132
  33.4207        121
  33.4578        125
  33.4950        128
  33.5321        137
  33.5693        133
  33.6064        116
  33.6436        134
  33.6807        131
  33.7179        113
  33.7550        123
  33.7922        121
  33.8293        117
  33.8665        105
  33.9036         99
  33.9408        110
  33.9779        106
  34.0151        105
  34.0522        126
  34.0894        138
  34.1265        117
  34.1637         94
  34.2008        121
  34.2380        105
  34.2751        114
  34.3123        128
  34.3494        116
  34.3866         99
  34.4238        114
  34.4609        112
  34.4981        129
  34.5352        128
  34.5724        113
  34.6095        155
  34.6467        143
  34.6838        143
  34.7210        147
  34.7581        160
  34.7953        155
  34.8324        143
  34.8696        137
  34.9067        113
  34.9439        115
  34.9810         96
  35.0182         99
  35.0553        120
  35.0925        124
  35.1296        114
  35.1668         95
  35.2039         99
  35.2411         83
  35.2782         95
  35.3154         99
  35.3525        129
  35.3897        117
  35.4268         99
  35.4640        108
  35.5011         99
  35.5383         87
  35.5754        113
  35.6126         86
  35.6497         86
  35.6869        118
  35.7240         96
  35.7612         79
  35.7983         96
  35.8355         96
  35.8726         89
  35.9098         98
  35.9469        102
  35.9841         97
  36.0213        102
  36.0584         75
  36.0956         79
  36.1327         97
  36.1699         89
  36.2070         84
  36.2442         99
  36.2813         71
  36.3185        107
  36.3556        102
  36.3928        116
  36.4299        102
  36.4671         91
  36.5042         86
  36.5414        109
  36.5785        100
  36.6157         92
  36.6528        108
  36.6900        116
  36.7271         97
  36.7643         89
  36.8014         83
  36.8386         93
  36.8757         76
  36.9129         77
  36.9500         95
  36.9872         95
  37.0243        104
  37.0615         92
  37.0986         95
  37.1358         99
  37.1729         88
  37.2101         99
  37.2472         97
  37.2844        107
  37.3215        113
  37.3587         98
  37.3958        103
  37.4330        131
  37.4701        133
  37.5073        122
  37.5445        135
  37.5816        119
  37.6188         87
  37.6559         94
  37.6931         96
  37.7302         97
  37.7674        104
  37.8045         82
  37.8417         90
  37.8788         79
  37.9160         83
  37.9531         94
  37.9903         81
  38.0274         88
  38.0646         82
  38.1017         66
  38.1389         77
  38.1760         77
  38.2132         89
  38.2503         82
  38.2875         83
  38.3246         87
  38.3618         72
  38.3989         90
  38.4361         86
  38.4732         82
  38.5104         86
  38.5475         84
  38.5847         75
  38.6218         80
  38.6590         84
  38.6961         80
  38.7333         75
  38.7704         93
  38.8076         93
  38.8447         93
  38.8819         95
  38.9190         86
  38.9562         93
  38.9933         79
  39.0305         94
  39.0677         85
  39.1048         86
  39.1420         70
  39.1791         98
  39.2163         72
  39.2534         92
  39.2906         81
  39.3277         92
  39.3649         86
  39.4020         81
  39.4392         86
  39.4763         81
  39.5135         90
  39.5506         96
  39.5878         98
  39.6249         74
  39.6621         89
  39.6992         79
  39.7364         63
  39.7735         88
  39.8107         62
  39.8478         72
  39.8850         96
  39.9221         84
  39.9593         73
  39.9964         79
  40.0336         88
  40.0707         73
  40.1079         65
  40.1450         83
  40.1822         77
  40.2193         89
  40.2565         78
  40.2936         74
  40.3308         98
  40.3679         70
  40.4051         74
  40.4422         76
  40.4794         88
  40.5165         80
  40.5537         72
  40.5908         78
  40.6280         77
  40.6652         70
  40.7023         68
  40.7395         77
  40.7766         80
  40.8138         73
  40.8509         79
  40.8881         79
  40.9252         63
  40.9624         64
  40.9995         85
  41.0367         78
  41.0738         59
  41.1110         92
  41.1481         75
  41.1853         71
  41.2224         82
  41.2596         99
  41.2967         89
  41.3339         68
  41.3710         81
  41.4082         73
  41.4453         76
  41.4825         71
  41.5196         76
  41.5568         74
  41.5939         70
  41.6311         71
  41.6682         75
  41.7054         78
  41.7425         67
  41.7797         70
  41.8168         68
  41.8540         75
  41.8911         87
  41.9283         73
  41.9654         61
  42.0026         84
  42.0397         79
  42.0769         83
  42.1140         81
  42.1512         61
  42.1884         72
  42.2255         72
  42.2627         72
  42.2998         69
  42.3370         78
  42.3741         71
  42.4113         92
  42.4484         81
  42.4856         76
  42.5227         89
  42.5599         95
  42.5970         68
  42.6342         71
  42.6713         82
  42.7085         72
  42.7456         90
  42.7828         70
  42.8199         92
  42.8571         76
  42.8942         93
  42.9314         76
  42.9685         76
  43.0057         73
  43.0428         84
  43.0800         68
  43.1171         64
  43.1543         82
  43.1914        106
  43.2286         98
  43.2657         89
  43.3029         71
  43.3400        116
  43.3772        100
  43.4143         74
  43.4515         87
  43.4886        118
  43.5258        138
  43.5629         88
  43.6001         95
  43.6372        121
  43.6744         83
  43.7116         87
  43.7487         81
  43.7859         79
  43.8230         75
  43.8602         84
  43.8973         65
  43.9345         74
  43.9716         72
  44.0088         74
  44.0459         69
  44.0831         83
  44.1202         87
  44.1574         77
  44.1945         76
  44.2317         73
  44.2688         69
  44.3060         83
  44.3431        102
  44.3803         65
  44.4174         83
  44.4546         69
  44.4917         65
  44.5289         79
  44.5660         67
  44.6032         72
  44.6403         84
  44.6775         92
  44.7146         76
  44.7518         75
  44.7889         64
  44.8261         69
  44.8632         69
  44.9004         73
  44.9375         81
  44.9747         63
  45.0118         71
  45.0490         68
  45.0861         77
  45.1233         57
  45.1604         66
  45.1976         69
  45.2347         70
  45.2719         71
  45.3091         81
  45.3462         68
  45.3834         74
  45.4205         67
  45.4577         70
  45.4948         76
  45.5320         73
  45.5691         77
  45.6063         71
  45.6434         85
  45.6806         70
  45.7177         51
  45.7549         78
  45.7920         75
  45.8292         60
  45.8663         81
  45.9035         58
  45.9406         79
  45.9778         66
  46.0149         66
  46.0521         79
  46.0892         76
  46.1264         77
  46.1635         66
  46.2007         44
  46.2378         53
  46.2750         74
  46.3121         56
  46.3493         53
  46.3864         59
  46.4236         54
  46.4607         64
  46.4979         75
  46.5350         62
  46.5722         73
  46.6093         71
  46.6465         67
  46.6836         61
  46.7208         69
  46.7579         74
  46.7951         64
  46.8323         62
  46.8694         58
  46.9066         91
  46.9437         68
  46.9809         59
  47.0180         58
  47.0552         76
  47.0923         75
  47.1295         60
  47.1666         52
  47.2038         62
  47.2409         59
  47.2781         63
  47.3152         67
  47.3524         51
  47.3895         62
  47.4267         54
  47.4638         69
  47.5010         62
  47.5381         70
  47.5753         64
  47.6124         64
  47.6496         68
  47.6867         66
  47.7239         54
  47.7610         55
  47.7982         70
  47.8353         59
  47.8725         79
  47.9096         70
  47.9468         67
  47.9839         70
  48.0211         65
  48.0582         63
  48.0954         64
  48.1325         62
  48.1697         75
  48.2068         54
  48.2440         71
  48.2811         57
  48.3183         61
  48.3555         71
  48.3926         58
  48.4298         60
  48.4669         64
  48.5041         61
  48.5412         73
  48.5784         60
  48.6155         58
  48.6527         48
  48.6898         60
  48.7270         56
  48.7641         59
  48.8013         70
  48.8384         78
  48.8756         63
  48.9127         90
  48.9499        104
  48.9870        114
  49.0242         88
  49.0613         88
  49.0985         93
  49.1356         68
  49.1728         85
  49.2099         54
  49.2471         61
  49.2842         59
  49.3214         52
  49.3585         66
  49.3957         60
  49.4328         48
  49.4700         71
  49.5071         66
  49.5443         72
  49.5814         63
  49.6186         56
  49.6557         68
  49.6929         62
  49.7300         58
  49.7672         62
  49.8043         68
  49.8415         60
  49.8786         54
  49.9158         67
  49.9530         65
  49.9901         86
  50.0273         60
  50.0644         70
  50.1016         63
  50.1387         70
  50.1759         58
  50.2130         65
  50.2502         44
  50.2873         69
  50.3245         69
  50.3616         75
  50.3988         57
  50.4359         60
  50.4731         61
  50.5102         64
  50.5474         52
  50.5845         52
  50.6217         52
  50.6588         50
  50.6960         64
  50.7331         62
  50.7703         73
  50.8074         61
  50.8446         62
  50.8817         51
  50.9189         70
  50.9560         57
  50.9932         60
  51.0303         55
  51.0675         63
  51.1046         62
  51.1418         50
  51.1789         60
  51.2161         53
  51.2532         51
  51.2904         61
  51.3275         55
  51.3647         71
  51.4018         69
  51.4390         66
  51.4762         62
  51.5133         79
  51.5505         68
  51.5876         62
  51.6248         65
  51.6619         64
  51.6991         56
  51.7362         61
  51.7734         61
  51.8105         72
  51.8477         73
  51.8848         60
  51.9220         62
  51.9591         65
  51.9963         62
  52.0334         67
  52.0706         55
  52.1077         47
  52.1449         56
  52.1820         63
  52.2192         71
  52.2563         63
  52.2935         64
  52.3306         56
  52.3678         64
  52.4049         47
  52.4421         51
  52.4792         55
  52.5164         56
  52.5535         64
  52.5907         57
  52.6278         71
  52.6650         62
  52.7021         48
  52.7393         57
  52.7764         72
  52.8136         53
  52.8507         55
  52.8879         55
  52.9250         60
  52.9622         54
  52.9994         75
  53.0365         67
  53.0737         60
  53.1108         67
  53.1480         63
  53.1851         64
  53.2223         55
  53.2594         43
  53.2966         49
  53.3337         61
  53.3709         60
  53.4080         62
  53.4452         58
  53.4823         49
  53.5195         73
  53.5566         56
  53.5938         57
  53.6309         60
  53.6681         58
  53.7052         56
  53.7424         64
  53.7795         48
  53.8167         52
  53.8538         55
  53.8910         72
  53.9281         62
  53.9653         65
  54.0024         93
  54.0396         69
  54.0767         46
  54.1139         61
  54.1510         67
  54.1882         67
  54.2253         70
  54.2625         60
  54.2996         49
  54.3368         59
  54.3739         54
  54.4111         58
  54.4482         53
  54.4854         67
  54.5225         49
  54.5597         63
  54.5969         63
  54.6340         64
  54.6712         63
  54.7083         52
  54.7455         54
  54.7826         60
  54.8198         53
  54.8569         56
  54.8941         66
  54.9312         62
  54.9684         67
  55.0055         56
  55.0427         67
  55.0798         61
  55.1170         61
  55.1541         57
  55.1913         46
  55.2284         59
  55.2656         68
  55.3027         62
  55.3399         78
  55.3770         56
  55.4142         55
  55.4513         68
  55.4885         50
  55.5256         51
  55.5628         61
  55.5999         52
  55.6371         52
  55.6742         52
  55.7114         60
  55.7485         53
  55.7857         52
  55.8228         60
  55.8600         68
  55.8971         52
  55.9343         50
  55.9714         57
  56.0086         59
  56.0457         59
  56.0829         59
  56.1201         62
  56.1572         51
  56.1944         71
  56.2315         67
  56.2687         70
  56.3058         57
  56.3430         60
  56.3801         84
  56.4173         53
  56.4544         78
  56.4916         64
  56.5287         58
  56.5659         57
  56.6030         45
  56.6402         54
  56.6773         62
  56.7145         45
  56.7516         55
  56.7888         53
  56.8259         58
  56.8631         65
  56.9002         54
  56.9374         59
  56.9745         55
  57.0117         50
  57.0488         56
  57.0860         56
  57.1231         63
  57.1603         67
  57.1974         56
  57.2346         41
  57.2717         69
  57.3089         61
  57.3460         51
  57.3832         60
  57.4203         64
  57.4575         71
  57.4946         72
  57.5318         65
  57.5689         53
  57.6061         61
  57.6433         39
  57.6804         60
  57.7176         60
  57.7547         51
  57.7919         53
  57.8290         62
  57.8662         56
  57.9033         54
  57.9405         79
  57.9776         68
  58.0148         47
  58.0519         68
  58.0891         67
  58.1262         55
  58.1634         52
  58.2005         66
  58.2377         63
  58.2748         48
  58.3120         58
  58.3491         58
  58.3863         60
  58.4234         57
  58.4606         47
  58.4977         55
  58.5349         65
  58.5720         55
  58.6092         55
  58.6463         56
  58.6835         47
  58.7206         45
  58.7578         58
  58.7949         59
  58.8321         64
  58.8692         54
  58.9064         52
  58.9435         53
  58.9807         62
  59.0178         42
  59.0550         56
  59.0921         60
  59.1293         59
  59.1664         49
  59.2036         48
  59.2408         57
  59.2779         60
  59.3151         64
  59.3522         65
  59.3894         58
  59.4265         54
  59.4637         66
  59.5008         53
  59.5380         43
  59.5751         48
  59.6123         50
  59.6494         52
  59.6866         49
  59.7237         60
  59.7609         45
  59.7980         60
  59.8352         58
  59.8723         43
  59.9095         46
  59.9466         67
  59.9838         61
  60.0024         47