File: notebooks/data/xrd_data/ML_20220720_2_SJD_4_LaB6-1min.uxd
; (content of file Y:\Sam\Apurva-07-20-2022\puck4\ML_20220718_2_SJD_0_LaB6-1min.raw)
_FILEVERSION = 3
_SAMPLE = ML_20220718_2_SJD_0_LaB6-1mi
_+SAMPLE =
_SITE = USA
_USER = Administrator
_GONIOMETER_CODE = 20
; Goniometer : D8 theta/2theta, stage : Unknown
_ATTACHMENTS_CODE = 0
_GONIOMETER_RADIUS = 200.5
_FIXED_DIVSLIT = 0.6
_FIXED_SAMPLESLIT = 0
_SOLLER_SLITS = 2
_FIXED_DETSLIT = 9.55
_MONOCHROMATOR = 0
; Incident beam monochromator : None
_SOLLER_SLITS_2 = N
_THIN_FILM = N
_BETA_FILTER = Y
_FIXED_ANTISLIT = 5.89
_ANALYZER_CODE = 0
; Received beam analyzer : None
_DATEMEASURED = "21-Jul-2022 03:02:26"
_WL_UNIT = A
_WL1 = 1.5406
_WL2 = 1.54439
_WL3 = 1.39222
_WLRATIO = 0.5
_ANODE = Cu
_V4_INF_CREATOR = XRDWizard
_V4_INF_CREATOR_VERSION = V2.9.0.22
_V4_INF_WIZARD_VERSION = V2.9.0.22
_V4_INF_WIZARD_ADDINS = V2.9.0.22
_V4_INF_WIZARD_DOCTYPE = XRD
_V4_INF_OSUSER = McQueenLab
_V4_INF_USER = Administrator
_V4_INF_SITE = USA
_V4_INF_SAMPLEID = ML_20220718_2_SJD_0_LaB6-1mi

; Data for range 1
_DRIVE = COUPLED
_STEPTIME = 4.23
_STEPSIZE = 0.0185756
_STEPMODE = C
_START = 5
_THETA = 2.5
_2THETA = 5
_KHI = 0
_PHI = 0
_X = 0
_Y = 0
_Z = 0
_DETECTOR = 5
; Detector type : Unknown
_DETECTORSLIT = unkn
_AUX1 = 0
_AUX2 = 0
_AUX3 = 0
_TIMESTARTED = 15
_TEMP_RATE = -1
_TEMP_DELAY = -1
_KV = 40
_MA = 40
_RANGE_WL = 1.5406
_3DPLANE = 0
_V4_ADDITIONALDETECTOR = 257
_V4_PSD2THETA = 3.4337
_V4_PSDCHANNEL1 = 0
_V4_PSDAPERTURE = 12.68
_V4_PSDTYPE = 5
_V4_PSDFIXED = 0
_V4_COUNTERS_MASK = 4096
_V4_DRIVES_MASK = 0
_V4_ENCODERS_MASK = 0
_2THETACOUNTS = 1
; 2THETA  PSD
   5.0000        114
   5.0372         91
   5.0743         97
   5.1115         91
   5.1486         92
   5.1858         84
   5.2229         71
   5.2601         99
   5.2972         76
   5.3344         86
   5.3715         75
   5.4087         76
   5.4458         84
   5.4830         75
   5.5201         78
   5.5573         78
   5.5944         72
   5.6316         89
   5.6687         97
   5.7059         87
   5.7430         74
   5.7802         82
   5.8173         70
   5.8545         70
   5.8916         58
   5.9288         80
   5.9659         60
   6.0031         75
   6.0402         67
   6.0774         72
   6.1145         63
   6.1517         69
   6.1888         66
   6.2260         72
   6.2631         65
   6.3003         76
   6.3374         58
   6.3746         67
   6.4117         60
   6.4489         74
   6.4860         76
   6.5232         68
   6.5604         62
   6.5975         74
   6.6347         63
   6.6718         54
   6.7090         55
   6.7461         59
   6.7833         64
   6.8204         46
   6.8576         69
   6.8947         74
   6.9319         53
   6.9690         44
   7.0062         64
   7.0433         57
   7.0805         74
   7.1176         56
   7.1548         64
   7.1919         56
   7.2291         62
   7.2662         64
   7.3034         51
   7.3405         62
   7.3777         53
   7.4148         63
   7.4520         61
   7.4891         42
   7.5263         65
   7.5634         69
   7.6006         70
   7.6377         46
   7.6749         58
   7.7120         66
   7.7492         62
   7.7863         50
   7.8235         73
   7.8606         71
   7.8978         65
   7.9349         68
   7.9721         65
   8.0092         52
   8.0464         68
   8.0835         63
   8.1207         67
   8.1579         64
   8.1950         69
   8.2322         62
   8.2693         79
   8.3065         59
   8.3436         59
   8.3808         49
   8.4179         79
   8.4551         65
   8.4922         70
   8.5294         79
   8.5665         66
   8.6037         63
   8.6408         81
   8.6780         79
   8.7151         59
   8.7523         68
   8.7894         92
   8.8266         76
   8.8637         85
   8.9009         71
   8.9380         86
   8.9752         69
   9.0123         81
   9.0495         73
   9.0866         75
   9.1238         57
   9.1609         78
   9.1981         74
   9.2352         65
   9.2724         75
   9.3095         73
   9.3467         76
   9.3838         79
   9.4210         81
   9.4581         76
   9.4953         87
   9.5324         79
   9.5696         79
   9.6067         75
   9.6439         66
   9.6811         77
   9.7182         86
   9.7554         71
   9.7925         86
   9.8297         84
   9.8668         92
   9.9040         85
   9.9411         94
   9.9783         73
  10.0154         87
  10.0526         89
  10.0897         78
  10.1269         91
  10.1640         89
  10.2012         72
  10.2383         83
  10.2755         83
  10.3126         94
  10.3498         73
  10.3869         85
  10.4241         82
  10.4612         90
  10.4984         85
  10.5355         89
  10.5727         95
  10.6098         72
  10.6470         90
  10.6841         83
  10.7213         85
  10.7584         89
  10.7956         84
  10.8327         90
  10.8699         87
  10.9070         79
  10.9442         92
  10.9813         85
  11.0185         81
  11.0556         84
  11.0928         82
  11.1299         86
  11.1671         77
  11.2043         82
  11.2414         97
  11.2786        100
  11.3157         89
  11.3529         73
  11.3900         75
  11.4272         77
  11.4643         69
  11.5015         79
  11.5386         84
  11.5758         91
  11.6129         76
  11.6501         66
  11.6872         72
  11.7244         64
  11.7615         75
  11.7987         83
  11.8358         83
  11.8730         90
  11.9101         88
  11.9473         86
  11.9844         79
  12.0216         86
  12.0587         73
  12.0959         69
  12.1330         72
  12.1702         81
  12.2073         68
  12.2445         84
  12.2816         68
  12.3188         66
  12.3559         77
  12.3931         73
  12.4302         85
  12.4674         80
  12.5045         75
  12.5417         78
  12.5788         74
  12.6160         87
  12.6531         59
  12.6903         66
  12.7274         63
  12.7646         67
  12.8018         77
  12.8389         64
  12.8761         90
  12.9132         76
  12.9504         69
  12.9875         76
  13.0247         81
  13.0618         73
  13.0990         63
  13.1361         64
  13.1733         54
  13.2104         82
  13.2476         74
  13.2847         75
  13.3219         64
  13.3590         64
  13.3962         59
  13.4333         70
  13.4705         70
  13.5076         59
  13.5448         78
  13.5819         76
  13.6191         81
  13.6562         78
  13.6934         65
  13.7305         79
  13.7677         53
  13.8048         68
  13.8420         62
  13.8791         67
  13.9163         85
  13.9534         57
  13.9906         55
  14.0277         56
  14.0649         66
  14.1020         70
  14.1392         57
  14.1763         75
  14.2135         64
  14.2506         54
  14.2878         68
  14.3250         63
  14.3621         65
  14.3993         58
  14.4364         80
  14.4736         70
  14.5107         59
  14.5479         66
  14.5850         78
  14.6222         72
  14.6593         55
  14.6965         64
  14.7336         50
  14.7708         54
  14.8079         69
  14.8451         65
  14.8822         74
  14.9194         65
  14.9565         46
  14.9937         59
  15.0308         66
  15.0680         75
  15.1051         60
  15.1423         48
  15.1794         72
  15.2166         68
  15.2537         48
  15.2909         71
  15.3280         73
  15.3652         65
  15.4023         63
  15.4395         57
  15.4766         64
  15.5138         61
  15.5509         62
  15.5881         61
  15.6252         71
  15.6624         53
  15.6995         78
  15.7367         58
  15.7738         71
  15.8110         60
  15.8482         49
  15.8853         58
  15.9225         57
  15.9596         52
  15.9968         70
  16.0339         61
  16.0711         50
  16.1082         55
  16.1454         67
  16.1825         46
  16.2197         47
  16.2568         47
  16.2940         64
  16.3311         63
  16.3683         56
  16.4054         56
  16.4426         66
  16.4797         68
  16.5169         40
  16.5540         55
  16.5912         56
  16.6283         56
  16.6655         69
  16.7026         51
  16.7398         68
  16.7769         58
  16.8141         61
  16.8512         69
  16.8884         56
  16.9255         64
  16.9627         45
  16.9998         55
  17.0370         51
  17.0741         67
  17.1113         56
  17.1484         60
  17.1856         59
  17.2227         58
  17.2599         61
  17.2970         64
  17.3342         40
  17.3713         63
  17.4085         50
  17.4457         64
  17.4828         52
  17.5200         53
  17.5571         60
  17.5943         59
  17.6314         46
  17.6686         53
  17.7057         62
  17.7429         57
  17.7800         70
  17.8172         66
  17.8543         57
  17.8915         63
  17.9286         59
  17.9658         61
  18.0029         51
  18.0401         54
  18.0772         71
  18.1144         64
  18.1515         60
  18.1887         60
  18.2258         56
  18.2630         57
  18.3001         57
  18.3373         54
  18.3744         57
  18.4116         58
  18.4487         52
  18.4859         59
  18.5230         68
  18.5602         53
  18.5973         51
  18.6345         70
  18.6716         66
  18.7088         69
  18.7459         71
  18.7831         50
  18.8202         57
  18.8574         49
  18.8945         53
  18.9317         63
  18.9689         62
  19.0060         67
  19.0432         65
  19.0803         72
  19.1175         61
  19.1546         53
  19.1918         51
  19.2289         47
  19.2661         71
  19.3032         61
  19.3404         60
  19.3775         55
  19.4147         60
  19.4518         57
  19.4890         73
  19.5261         60
  19.5633         59
  19.6004         63
  19.6376         56
  19.6747         76
  19.7119         79
  19.7490         63
  19.7862         64
  19.8233         47
  19.8605         60
  19.8976         56
  19.9348         62
  19.9719         66
  20.0091         53
  20.0462         64
  20.0834         69
  20.1205         73
  20.1577         61
  20.1948         49
  20.2320         49
  20.2691         72
  20.3063         47
  20.3434         47
  20.3806         71
  20.4177         65
  20.4549         65
  20.4921         76
  20.5292         86
  20.5664         91
  20.6035         78
  20.6407         55
  20.6778         57
  20.7150         66
  20.7521         64
  20.7893         60
  20.8264         74
  20.8636         68
  20.9007         60
  20.9379         58
  20.9750         59
  21.0122         71
  21.0493         72
  21.0865         92
  21.1236         77
  21.1608         94
  21.1979        106
  21.2351        134
  21.2722        107
  21.3094        125
  21.3465        212
  21.3837        132
  21.4208         79
  21.4580         65
  21.4951         72
  21.5323         74
  21.5694         61
  21.6066         60
  21.6437         76
  21.6809         63
  21.7180         67
  21.7552         65
  21.7923         62
  21.8295         55
  21.8666         64
  21.9038         65
  21.9409         73
  21.9781         67
  22.0152         77
  22.0524         67
  22.0896         60
  22.1267         70
  22.1639         67
  22.2010         63
  22.2382         60
  22.2753         70
  22.3125         61
  22.3496         65
  22.3868         60
  22.4239         71
  22.4611         62
  22.4982         74
  22.5354         67
  22.5725         61
  22.6097         79
  22.6468         62
  22.6840         75
  22.7211         59
  22.7583         53
  22.7954         57
  22.8326         73
  22.8697         70
  22.9069         68
  22.9440         77
  22.9812         70
  23.0183         76
  23.0555         88
  23.0926         67
  23.1298         71
  23.1669         64
  23.2041         61
  23.2412         70
  23.2784         73
  23.3155         64
  23.3527         91
  23.3898         55
  23.4270         64
  23.4641         81
  23.5013         69
  23.5384         74
  23.5756         76
  23.6128         73
  23.6499         73
  23.6871         77
  23.7242         74
  23.7614         65
  23.7985         61
  23.8357         62
  23.8728         72
  23.9100         71
  23.9471         62
  23.9843         63
  24.0214         78
  24.0586         72
  24.0957         76
  24.1329         69
  24.1700         77
  24.2072         67
  24.2443         89
  24.2815         98
  24.3186         97
  24.3558         60
  24.3929         53
  24.4301         69
  24.4672         84
  24.5044         76
  24.5415         63
  24.5787         75
  24.6158         82
  24.6530         66
  24.6901         58
  24.7273         68
  24.7644         80
  24.8016         78
  24.8387         70
  24.8759         79
  24.9130         61
  24.9502         68
  24.9873         70
  25.0245         80
  25.0616         71
  25.0988         81
  25.1360         68
  25.1731         66
  25.2103         56
  25.2474         63
  25.2846         79
  25.3217         65
  25.3589         69
  25.3960         66
  25.4332         58
  25.4703         82
  25.5075         76
  25.5446         78
  25.5818         59
  25.6189         87
  25.6561         77
  25.6932         61
  25.7304         67
  25.7675         81
  25.8047         64
  25.8418         76
  25.8790         65
  25.9161         72
  25.9533         78
  25.9904         64
  26.0276         70
  26.0647         64
  26.1019         63
  26.1390         90
  26.1762         80
  26.2133         69
  26.2505         71
  26.2876         69
  26.3248         74
  26.3619         75
  26.3991         73
  26.4362         78
  26.4734         59
  26.5105         65
  26.5477         81
  26.5848         57
  26.6220         81
  26.6591         63
  26.6963         56
  26.7335         63
  26.7706         63
  26.8078         74
  26.8449         65
  26.8821         62
  26.9192         73
  26.9564         67
  26.9935         68
  27.0307         56
  27.0678         73
  27.1050         71
  27.1421         60
  27.1793         80
  27.2164         83
  27.2536         85
  27.2907         87
  27.3279         88
  27.3650         76
  27.4022         74
  27.4393         60
  27.4765         59
  27.5136         63
  27.5508         80
  27.5879         63
  27.6251         66
  27.6622         68
  27.6994         73
  27.7365         62
  27.7737         59
  27.8108         56
  27.8480         70
  27.8851         62
  27.9223         59
  27.9594         67
  27.9966         55
  28.0337         63
  28.0709         61
  28.1080         65
  28.1452         65
  28.1823         43
  28.2195         58
  28.2567         72
  28.2938         58
  28.3310         53
  28.3681         59
  28.4053         77
  28.4424         84
  28.4796         58
  28.5167         67
  28.5539         54
  28.5910         66
  28.6282         57
  28.6653         60
  28.7025         66
  28.7396         62
  28.7768         51
  28.8139         71
  28.8511         61
  28.8882         45
  28.9254         67
  28.9625         57
  28.9997         43
  29.0368         55
  29.0740         59
  29.1111         64
  29.1483         49
  29.1854         59
  29.2226         58
  29.2597         64
  29.2969         69
  29.3340         66
  29.3712         55
  29.4083         61
  29.4455         70
  29.4826         70
  29.5198         49
  29.5569         67
  29.5941         60
  29.6312         56
  29.6684         58
  29.7055         58
  29.7427         73
  29.7799         65
  29.8170         48
  29.8542         51
  29.8913         55
  29.9285         56
  29.9656         46
  30.0028         58
  30.0399         60
  30.0771         54
  30.1142         63
  30.1514         61
  30.1885         53
  30.2257         42
  30.2628         64
  30.3000         67
  30.3371         96
  30.3743        119
  30.4114         81
  30.4486         91
  30.4857         72
  30.5229         62
  30.5600         68
  30.5972         69
  30.6343         63
  30.6715         61
  30.7086         52
  30.7458         51
  30.7829         56
  30.8201         42
  30.8572         51
  30.8944         59
  30.9315         56
  30.9687         45
  31.0058         44
  31.0430         55
  31.0801         43
  31.1173         51
  31.1544         54
  31.1916         57
  31.2287         58
  31.2659         46
  31.3030         56
  31.3402         43
  31.3774         45
  31.4145         57
  31.4517         51
  31.4888         48
  31.5260         53
  31.5631         55
  31.6003         63
  31.6374         58
  31.6746         63
  31.7117         58
  31.7489         39
  31.7860         58
  31.8232         40
  31.8603         51
  31.8975         55
  31.9346         49
  31.9718         36
  32.0089         35
  32.0461         43
  32.0832         46
  32.1204         47
  32.1575         37
  32.1947         45
  32.2318         59
  32.2690         45
  32.3061         36
  32.3433         50
  32.3804         53
  32.4176         48
  32.4547         55
  32.4919         46
  32.5290         55
  32.5662         50
  32.6033         50
  32.6405         41
  32.6776         38
  32.7148         49
  32.7519         38
  32.7891         39
  32.8262         42
  32.8634         44
  32.9006         45
  32.9377         50
  32.9749         55
  33.0120         37
  33.0492         37
  33.0863         41
  33.1235         50
  33.1606         41
  33.1978         47
  33.2349         44
  33.2721         42
  33.3092         34
  33.3464         47
  33.3835         51
  33.4207         37
  33.4578         38
  33.4950         48
  33.5321         39
  33.5693         48
  33.6064         36
  33.6436         41
  33.6807         56
  33.7179         32
  33.7550         34
  33.7922         43
  33.8293         30
  33.8665         44
  33.9036         44
  33.9408         39
  33.9779         53
  34.0151         53
  34.0522         49
  34.0894         60
  34.1265         35
  34.1637         44
  34.2008         35
  34.2380         49
  34.2751         35
  34.3123         50
  34.3494         43
  34.3866         54
  34.4238         48
  34.4609         35
  34.4981         48
  34.5352         47
  34.5724         36
  34.6095         40
  34.6467         48
  34.6838         35
  34.7210         55
  34.7581         48
  34.7953         50
  34.8324         43
  34.8696         55
  34.9067         45
  34.9439         36
  34.9810         39
  35.0182         37
  35.0553         35
  35.0925         37
  35.1296         38
  35.1668         44
  35.2039         39
  35.2411         32
  35.2782         31
  35.3154         46
  35.3525         32
  35.3897         33
  35.4268         35
  35.4640         34
  35.5011         29
  35.5383         36
  35.5754         36
  35.6126         26
  35.6497         38
  35.6869         44
  35.7240         41
  35.7612         46
  35.7983         40
  35.8355         41
  35.8726         27
  35.9098         39
  35.9469         39
  35.9841         32
  36.0213         35
  36.0584         46
  36.0956         29
  36.1327         37
  36.1699         35
  36.2070         35
  36.2442         29
  36.2813         36
  36.3185         37
  36.3556         37
  36.3928         31
  36.4299         28
  36.4671         40
  36.5042         39
  36.5414         37
  36.5785         36
  36.6157         33
  36.6528         40
  36.6900         31
  36.7271         32
  36.7643         29
  36.8014         37
  36.8386         26
  36.8757         25
  36.9129         38
  36.9500         40
  36.9872         31
  37.0243         36
  37.0615         27
  37.0986         41
  37.1358         40
  37.1729         42
  37.2101         51
  37.2472         37
  37.2844         23
  37.3215         32
  37.3587         36
  37.3958         50
  37.4330         53
  37.4701         45
  37.5073         39
  37.5445         38
  37.5816         43
  37.6188         26
  37.6559         32
  37.6931         23
  37.7302         26
  37.7674         35
  37.8045         30
  37.8417         35
  37.8788         39
  37.9160         25
  37.9531         33
  37.9903         23
  38.0274         38
  38.0646         29
  38.1017         34
  38.1389         40
  38.1760         31
  38.2132         31
  38.2503         29
  38.2875         40
  38.3246         25
  38.3618         32
  38.3989         20
  38.4361         35
  38.4732         23
  38.5104         32
  38.5475         36
  38.5847         20
  38.6218         30
  38.6590         38
  38.6961         26
  38.7333         25
  38.7704         38
  38.8076         31
  38.8447         31
  38.8819         21
  38.9190         27
  38.9562         34
  38.9933         29
  39.0305         27
  39.0677         32
  39.1048         25
  39.1420         28
  39.1791         27
  39.2163         29
  39.2534         32
  39.2906         32
  39.3277         33
  39.3649         28
  39.4020         27
  39.4392         27
  39.4763         31
  39.5135         26
  39.5506         27
  39.5878         27
  39.6249         33
  39.6621         29
  39.6992         27
  39.7364         32
  39.7735         23
  39.8107         32
  39.8478         25
  39.8850         25
  39.9221         33
  39.9593         35
  39.9964         36
  40.0336         38
  40.0707         27
  40.1079         32
  40.1450         27
  40.1822         31
  40.2193         24
  40.2565         12
  40.2936         29
  40.3308         34
  40.3679         35
  40.4051         16
  40.4422         27
  40.4794         40
  40.5165         19
  40.5537         15
  40.5908         19
  40.6280         34
  40.6652         52
  40.7023         31
  40.7395         23
  40.7766         30
  40.8138         34
  40.8509         23
  40.8881         28
  40.9252         32
  40.9624         28
  40.9995         36
  41.0367         35
  41.0738         26
  41.1110         18
  41.1481         32
  41.1853         30
  41.2224         16
  41.2596         22
  41.2967         27
  41.3339         31
  41.3710         24
  41.4082         31
  41.4453         22
  41.4825         24
  41.5196         21
  41.5568         29
  41.5939         25
  41.6311         27
  41.6682         26
  41.7054         28
  41.7425         26
  41.7797         32
  41.8168         27
  41.8540         28
  41.8911         29
  41.9283         31
  41.9654         34
  42.0026         27
  42.0397         17
  42.0769         32
  42.1140         30
  42.1512         26
  42.1884         29
  42.2255         28
  42.2627         32
  42.2998         28
  42.3370         23
  42.3741         25
  42.4113         27
  42.4484         32
  42.4856         26
  42.5227         38
  42.5599         33
  42.5970         19
  42.6342         28
  42.6713         22
  42.7085         21
  42.7456         22
  42.7828         29
  42.8199         21
  42.8571         26
  42.8942         30
  42.9314         19
  42.9685         18
  43.0057         25
  43.0428         24
  43.0800         19
  43.1171         24
  43.1543         23
  43.1914         22
  43.2286         34
  43.2657         28
  43.3029         32
  43.3400         30
  43.3772         23
  43.4143         28
  43.4515         40
  43.4886         51
  43.5258         35
  43.5629         27
  43.6001         40
  43.6372         36
  43.6744         31
  43.7116         28
  43.7487         32
  43.7859         25
  43.8230         19
  43.8602         18
  43.8973         20
  43.9345         33
  43.9716         22
  44.0088         28
  44.0459         24
  44.0831         22
  44.1202         22
  44.1574         25
  44.1945         22
  44.2317         26
  44.2688         38
  44.3060         24
  44.3431         21
  44.3803         39
  44.4174         25
  44.4546         21
  44.4917         21
  44.5289         17
  44.5660         30
  44.6032         33
  44.6403         26
  44.6775         28
  44.7146         30
  44.7518         29
  44.7889         18
  44.8261         24
  44.8632         23
  44.9004         24
  44.9375         29
  44.9747         22
  45.0118         24
  45.0490         21
  45.0861         33
  45.1233         29
  45.1604         23
  45.1976         27
  45.2347         26
  45.2719         27
  45.3091         25
  45.3462         27
  45.3834         21
  45.4205         26
  45.4577         33
  45.4948         24
  45.5320         22
  45.5691         23
  45.6063         28
  45.6434         28
  45.6806         19
  45.7177         20
  45.7549         16
  45.7920         21
  45.8292         22
  45.8663         27
  45.9035         21
  45.9406         29
  45.9778         17
  46.0149         15
  46.0521         25
  46.0892         20
  46.1264         24
  46.1635         22
  46.2007         23
  46.2378         26
  46.2750         24
  46.3121         24
  46.3493         25
  46.3864         31
  46.4236         19
  46.4607         23
  46.4979         19
  46.5350         22
  46.5722         24
  46.6093         21
  46.6465         24
  46.6836         13
  46.7208         25
  46.7579         21
  46.7951         24
  46.8323         18
  46.8694         26
  46.9066         24
  46.9437         31
  46.9809         30
  47.0180         32
  47.0552         24
  47.0923         23
  47.1295         28
  47.1666         27
  47.2038         26
  47.2409         18
  47.2781         17
  47.3152         26
  47.3524         26
  47.3895         26
  47.4267         34
  47.4638         19
  47.5010         25
  47.5381         25
  47.5753         27
  47.6124         32
  47.6496         19
  47.6867         28
  47.7239         19
  47.7610         21
  47.7982         23
  47.8353         19
  47.8725         29
  47.9096         23
  47.9468         22
  47.9839         15
  48.0211         21
  48.0582         20
  48.0954         26
  48.1325         26
  48.1697         23
  48.2068         26
  48.2440         22
  48.2811         19
  48.3183         23
  48.3555         26
  48.3926         22
  48.4298         17
  48.4669         21
  48.5041         24
  48.5412         32
  48.5784         21
  48.6155         26
  48.6527         27
  48.6898         15
  48.7270         18
  48.7641         27
  48.8013         26
  48.8384         20
  48.8756         23
  48.9127         39
  48.9499         44
  48.9870         37
  49.0242         27
  49.0613         35
  49.0985         32
  49.1356         29
  49.1728         20
  49.2099         16
  49.2471         33
  49.2842         19
  49.3214         13
  49.3585         26
  49.3957         29
  49.4328         32
  49.4700         26
  49.5071         19
  49.5443         26
  49.5814         26
  49.6186         36
  49.6557         25
  49.6929         18
  49.7300         17
  49.7672         24
  49.8043         26
  49.8415         22
  49.8786         17
  49.9158         20
  49.9530         22
  49.9901         17
  50.0273         20
  50.0644         29
  50.1016         25
  50.1387         22
  50.1759         27
  50.2130         19
  50.2502         24
  50.2873         30
  50.3245         26
  50.3616         25
  50.3988         14
  50.4359         17
  50.4731         25
  50.5102         20
  50.5474         21
  50.5845         26
  50.6217         26
  50.6588         20
  50.6960         16
  50.7331         21
  50.7703         18
  50.8074         15
  50.8446         23
  50.8817         16
  50.9189         25
  50.9560         27
  50.9932         18
  51.0303         26
  51.0675         26
  51.1046         26
  51.1418         22
  51.1789         23
  51.2161         16
  51.2532         21
  51.2904         18
  51.3275         19
  51.3647         29
  51.4018         24
  51.4390         24
  51.4762         31
  51.5133         21
  51.5505         26
  51.5876         22
  51.6248         27
  51.6619         17
  51.6991         28
  51.7362         22
  51.7734         26
  51.8105         30
  51.8477         23
  51.8848         21
  51.9220         28
  51.9591         20
  51.9963         22
  52.0334         19
  52.0706         22
  52.1077         19
  52.1449         23
  52.1820         16
  52.2192         13
  52.2563         19
  52.2935         22
  52.3306         16
  52.3678         15
  52.4049         25
  52.4421         23
  52.4792         26
  52.5164         26
  52.5535         14
  52.5907         21
  52.6278         23
  52.6650         19
  52.7021         24
  52.7393         22
  52.7764         23
  52.8136         10
  52.8507         24
  52.8879         17
  52.9250         21
  52.9622         27
  52.9994         27
  53.0365         26
  53.0737         22
  53.1108         16
  53.1480         21
  53.1851         28
  53.2223         19
  53.2594         28
  53.2966         17
  53.3337         22
  53.3709         16
  53.4080         29
  53.4452         15
  53.4823         21
  53.5195         24
  53.5566         19
  53.5938         19
  53.6309         19
  53.6681         19
  53.7052         20
  53.7424         16
  53.7795         27
  53.8167         25
  53.8538         21
  53.8910         19
  53.9281         26
  53.9653         33
  54.0024         30
  54.0396         24
  54.0767         18
  54.1139         22
  54.1510         33
  54.1882         18
  54.2253         25
  54.2625         29
  54.2996         22
  54.3368         12
  54.3739         20
  54.4111         16
  54.4482         20
  54.4854         13
  54.5225         24
  54.5597         24
  54.5969         21
  54.6340         24
  54.6712         13
  54.7083         16
  54.7455         20
  54.7826         22
  54.8198         26
  54.8569         22
  54.8941         25
  54.9312         24
  54.9684         19
  55.0055         14
  55.0427         24
  55.0798         17
  55.1170         22
  55.1541         18
  55.1913         13
  55.2284         25
  55.2656         17
  55.3027         21
  55.3399         31
  55.3770         22
  55.4142         22
  55.4513         20
  55.4885         12
  55.5256         21
  55.5628         23
  55.5999         20
  55.6371         25
  55.6742         22
  55.7114         25
  55.7485         19
  55.7857         18
  55.8228         25
  55.8600         10
  55.8971         25
  55.9343         26
  55.9714         23
  56.0086         16
  56.0457         17
  56.0829         23
  56.1201         22
  56.1572         15
  56.1944         23
  56.2315         26
  56.2687         24
  56.3058         25
  56.3430         21
  56.3801         20
  56.4173         20
  56.4544         21
  56.4916         24
  56.5287         19
  56.5659         21
  56.6030         23
  56.6402         21
  56.6773         21
  56.7145         13
  56.7516         27
  56.7888         15
  56.8259         21
  56.8631         20
  56.9002         26
  56.9374         23
  56.9745         11
  57.0117         18
  57.0488         17
  57.0860         25
  57.1231         16
  57.1603         20
  57.1974         16
  57.2346         33
  57.2717         16
  57.3089         25
  57.3460         17
  57.3832         18
  57.4203         13
  57.4575         19
  57.4946         16
  57.5318         18
  57.5689         21
  57.6061         26
  57.6433         18
  57.6804         15
  57.7176         12
  57.7547         30
  57.7919         16
  57.8290         29
  57.8662         24
  57.9033         25
  57.9405         10
  57.9776         16
  58.0148         17
  58.0519         22
  58.0891         15
  58.1262         21
  58.1634         16
  58.2005         15
  58.2377         18
  58.2748         20
  58.3120         27
  58.3491         22
  58.3863         13
  58.4234         19
  58.4606         22
  58.4977         19
  58.5349         18
  58.5720         20
  58.6092         28
  58.6463         19
  58.6835         15
  58.7206         25
  58.7578         16
  58.7949         19
  58.8321         21
  58.8692         15
  58.9064         26
  58.9435         21
  58.9807         24
  59.0178         26
  59.0550         25
  59.0921         17
  59.1293         22
  59.1664         25
  59.2036         26
  59.2408         22
  59.2779         24
  59.3151         15
  59.3522         12
  59.3894         22
  59.4265         15
  59.4637         19
  59.5008         21
  59.5380         28
  59.5751         26
  59.6123         23
  59.6494         27
  59.6866         22
  59.7237         25
  59.7609         32
  59.7980         25
  59.8352         22
  59.8723         28
  59.9095         13
  59.9466         18
  59.9838         17
  60.0024         18