File: notebooks/data/xrd_data/ML_20220718_57_SJD_4_LaB6-2min.csv
;,2THETA,
5.0000,139
5.0372,127
5.0743,130
5.1115,116
5.1486,108
5.1858,135
5.2229,118
5.2601,127
5.2972,107
5.3344,115
5.3715,105
5.4087,113
5.4458,112
5.4830,121
5.5201,122
5.5573,103
5.5944,114
5.6316,94
5.6687,113
5.7059,120
5.7430,120
5.7802,112
5.8173,92
5.8545,107
5.8916,125
5.9288,83
5.9659,88
6.0031,103
6.0402,84
6.0774,95
6.1145,98
6.1517,95
6.1888,94
6.2260,92
6.2631,100
6.3003,85
6.3374,93
6.3746,88
6.4117,83
6.4489,97
6.4860,97
6.5232,74
6.5604,89
6.5975,91
6.6347,77
6.6718,72
6.7090,89
6.7461,66
6.7833,104
6.8204,91
6.8576,94
6.8947,79
6.9319,96
6.9690,77
7.0062,97
7.0433,69
7.0805,80
7.1176,75
7.1548,76
7.1919,85
7.2291,93
7.2662,66
7.3034,77
7.3405,68
7.3777,69
7.4148,79
7.4520,71
7.4891,87
7.5263,84
7.5634,96
7.6006,88
7.6377,80
7.6749,87
7.7120,79
7.7492,94
7.7863,70
7.8235,70
7.8606,95
7.8978,83
7.9349,85
7.9721,86
8.0092,107
8.0464,83
8.0835,93
8.1207,88
8.1579,78
8.1950,79
8.2322,92
8.2693,81
8.3065,74
8.3436,70
8.3808,100
8.4179,111
8.4551,79
8.4922,94
8.5294,106
8.5665,78
8.6037,95
8.6408,93
8.6780,95
8.7151,95
8.7523,107
8.7894,89
8.8266,72
8.8637,96
8.9009,100
8.9380,121
8.9752,100
9.0123,104
9.0495,115
9.0866,119
9.1238,125
9.1609,119
9.1981,98
9.2352,91
9.2724,110
9.3095,110
9.3467,116
9.3838,107
9.4210,104
9.4581,130
9.4953,96
9.5324,111
9.5696,112
9.6067,119
9.6439,98
9.6811,113
9.7182,119
9.7554,126
9.7925,117
9.8297,116
9.8668,106
9.9040,113
9.9411,143
9.9783,133
10.0154,115
10.0526,112
10.0897,122
10.1269,109
10.1640,116
10.2012,131
10.2383,131
10.2755,116
10.3126,127
10.3498,107
10.3869,115
10.4241,117
10.4612,142
10.4984,117
10.5355,112
10.5727,123
10.6098,139
10.6470,120
10.6841,109
10.7213,113
10.7584,119
10.7956,115
10.8327,129
10.8699,114
10.9070,125
10.9442,109
10.9813,130
11.0185,112
11.0556,106
11.0928,127
11.1299,112
11.1671,141
11.2043,124
11.2414,119
11.2786,118
11.3157,111
11.3529,119
11.3900,126
11.4272,119
11.4643,92
11.5015,104
11.5386,99
11.5758,118
11.6129,113
11.6501,109
11.6872,105
11.7244,100
11.7615,114
11.7987,116
11.8358,102
11.8730,107
11.9101,105
11.9473,124
11.9844,101
12.0216,95
12.0587,108
12.0959,101
12.1330,113
12.1702,114
12.2073,105
12.2445,101
12.2816,93
12.3188,111
12.3559,104
12.3931,100
12.4302,112
12.4674,97
12.5045,95
12.5417,115
12.5788,102
12.6160,102
12.6531,105
12.6903,94
12.7274,94
12.7646,100
12.8018,86
12.8389,91
12.8761,100
12.9132,107
12.9504,107
12.9875,94
13.0247,90
13.0618,82
13.0990,115
13.1361,100
13.1733,106
13.2104,105
13.2476,104
13.2847,93
13.3219,92
13.3590,94
13.3962,102
13.4333,114
13.4705,102
13.5076,112
13.5448,97
13.5819,91
13.6191,94
13.6562,105
13.6934,92
13.7305,91
13.7677,86
13.8048,100
13.8420,104
13.8791,85
13.9163,93
13.9534,93
13.9906,89
14.0277,80
14.0649,103
14.1020,87
14.1392,104
14.1763,95
14.2135,102
14.2506,96
14.2878,82
14.3250,83
14.3621,87
14.3993,75
14.4364,82
14.4736,74
14.5107,87
14.5479,77
14.5850,81
14.6222,93
14.6593,67
14.6965,67
14.7336,81
14.7708,86
14.8079,88
14.8451,89
14.8822,64
14.9194,71
14.9565,75
14.9937,83
15.0308,86
15.0680,81
15.1051,103
15.1423,77
15.1794,77
15.2166,75
15.2537,90
15.2909,78
15.3280,76
15.3652,95
15.4023,66
15.4395,65
15.4766,75
15.5138,73
15.5509,93
15.5881,73
15.6252,84
15.6624,77
15.6995,95
15.7367,73
15.7738,70
15.8110,86
15.8482,75
15.8853,70
15.9225,92
15.9596,91
15.9968,88
16.0339,79
16.0711,66
16.1082,84
16.1454,81
16.1825,101
16.2197,70
16.2568,70
16.2940,67
16.3311,80
16.3683,79
16.4054,73
16.4426,94
16.4797,84
16.5169,70
16.5540,77
16.5912,72
16.6283,64
16.6655,80
16.7026,83
16.7398,88
16.7769,97
16.8141,89
16.8512,92
16.8884,75
16.9255,82
16.9627,82
16.9998,84
17.0370,56
17.0741,65
17.1113,75
17.1484,79
17.1856,89
17.2227,82
17.2599,78
17.2970,93
17.3342,77
17.3713,72
17.4085,84
17.4457,80
17.4828,65
17.5200,70
17.5571,77
17.5943,79
17.6314,77
17.6686,96
17.7057,74
17.7429,84
17.7800,68
17.8172,77
17.8543,75
17.8915,96
17.9286,81
17.9658,110
18.0029,77
18.0401,77
18.0772,96
18.1144,89
18.1515,83
18.1887,82
18.2258,94
18.2630,89
18.3001,59
18.3373,78
18.3744,88
18.4116,64
18.4487,77
18.4859,94
18.5230,82
18.5602,86
18.5973,71
18.6345,74
18.6716,82
18.7088,91
18.7459,82
18.7831,96
18.8202,98
18.8574,89
18.8945,69
18.9317,90
18.9689,89
19.0060,87
19.0432,65
19.0803,77
19.1175,93
19.1546,98
19.1918,94
19.2289,74
19.2661,90
19.3032,77
19.3404,71
19.3775,82
19.4147,94
19.4518,88
19.4890,81
19.5261,82
19.5633,91
19.6004,82
19.6376,94
19.6747,84
19.7119,104
19.7490,102
19.7862,82
19.8233,103
19.8605,84
19.8976,90
19.9348,70
19.9719,83
20.0091,101
20.0462,87
20.0834,112
20.1205,97
20.1577,81
20.1948,99
20.2320,94
20.2691,86
20.3063,95
20.3434,97
20.3806,95
20.4177,95
20.4549,102
20.4921,92
20.5292,103
20.5664,87
20.6035,86
20.6407,99
20.6778,86
20.7150,78
20.7521,89
20.7893,82
20.8264,102
20.8636,92
20.9007,95
20.9379,100
20.9750,88
21.0122,104
21.0493,102
21.0865,98
21.1236,114
21.1608,116
21.1979,140
21.2351,182
21.2722,141
21.3094,157
21.3465,256
21.3837,195
21.4208,169
21.4580,95
21.4951,111
21.5323,93
21.5694,99
21.6066,96
21.6437,106
21.6809,95
21.7180,104
21.7552,112
21.7923,99
21.8295,101
21.8666,98
21.9038,107
21.9409,96
21.9781,91
22.0152,97
22.0524,81
22.0896,85
22.1267,116
22.1639,103
22.2010,104
22.2382,105
22.2753,116
22.3125,111
22.3496,77
22.3868,111
22.4239,108
22.4611,96
22.4982,101
22.5354,110
22.5725,102
22.6097,103
22.6468,124
22.6840,109
22.7211,110
22.7583,95
22.7954,99
22.8326,81
22.8697,112
22.9069,103
22.9440,89
22.9812,100
23.0183,125
23.0555,98
23.0926,82
23.1298,103
23.1669,97
23.2041,98
23.2412,106
23.2784,110
23.3155,105
23.3527,101
23.3898,100
23.4270,103
23.4641,74
23.5013,92
23.5384,107
23.5756,83
23.6128,101
23.6499,102
23.6871,95
23.7242,82
23.7614,112
23.7985,100
23.8357,109
23.8728,103
23.9100,102
23.9471,100
23.9843,96
24.0214,106
24.0586,106
24.0957,107
24.1329,93
24.1700,113
24.2072,112
24.2443,118
24.2815,122
24.3186,114
24.3558,89
24.3929,105
24.4301,98
24.4672,106
24.5044,114
24.5415,85
24.5787,80
24.6158,122
24.6530,102
24.6901,98
24.7273,103
24.7644,95
24.8016,115
24.8387,121
24.8759,108
24.9130,83
24.9502,83
24.9873,90
25.0245,104
25.0616,88
25.0988,83
25.1360,111
25.1731,102
25.2103,111
25.2474,97
25.2846,89
25.3217,79
25.3589,109
25.3960,121
25.4332,92
25.4703,86
25.5075,87
25.5446,79
25.5818,81
25.6189,88
25.6561,94
25.6932,107
25.7304,115
25.7675,96
25.8047,93
25.8418,84
25.8790,100
25.9161,82
25.9533,106
25.9904,96
26.0276,96
26.0647,106
26.1019,87
26.1390,87
26.1762,112
26.2133,85
26.2505,93
26.2876,100
26.3248,107
26.3619,91
26.3991,81
26.4362,101
26.4734,110
26.5105,63
26.5477,92
26.5848,82
26.6220,88
26.6591,91
26.6963,96
26.7335,109
26.7706,83
26.8078,88
26.8449,91
26.8821,73
26.9192,96
26.9564,84
26.9935,80
27.0307,96
27.0678,100
27.1050,105
27.1421,109
27.1793,112
27.2164,114
27.2536,105
27.2907,117
27.3279,95
27.3650,87
27.4022,96
27.4393,95
27.4765,91
27.5136,96
27.5508,91
27.5879,93
27.6251,86
27.6622,85
27.6994,87
27.7365,78
27.7737,95
27.8108,83
27.8480,89
27.8851,91
27.9223,90
27.9594,95
27.9966,93
28.0337,75
28.0709,83
28.1080,72
28.1452,92
28.1823,95
28.2195,87
28.2567,94
28.2938,89
28.3310,77
28.3681,83
28.4053,86
28.4424,93
28.4796,76
28.5167,83
28.5539,92
28.5910,87
28.6282,79
28.6653,74
28.7025,69
28.7396,85
28.7768,86
28.8139,92
28.8511,86
28.8882,93
28.9254,88
28.9625,99
28.9997,101
29.0368,83
29.0740,68
29.1111,79
29.1483,75
29.1854,90
29.2226,73
29.2597,88
29.2969,104
29.3340,76
29.3712,83
29.4083,73
29.4455,61
29.4826,92
29.5198,67
29.5569,85
29.5941,72
29.6312,79
29.6684,55
29.7055,94
29.7427,75
29.7799,78
29.8170,75
29.8542,78
29.8913,79
29.9285,78
29.9656,75
30.0028,78
30.0399,70
30.0771,79
30.1142,88
30.1514,72
30.1885,78
30.2257,86
30.2628,68
30.3000,86
30.3371,88
30.3743,167
30.4114,135
30.4486,108
30.4857,117
30.5229,91
30.5600,84
30.5972,72
30.6343,71
30.6715,69
30.7086,73
30.7458,86
30.7829,56
30.8201,85
30.8572,84
30.8944,66
30.9315,92
30.9687,72
31.0058,73
31.0430,58
31.0801,82
31.1173,67
31.1544,67
31.1916,72
31.2287,72
31.2659,69
31.3030,63
31.3402,79
31.3774,69
31.4145,53
31.4517,71
31.4888,72
31.5260,71
31.5631,56
31.6003,60
31.6374,69
31.6746,65
31.7117,57
31.7489,66
31.7860,75
31.8232,67
31.8603,59
31.8975,44
31.9346,66
31.9718,61
32.0089,66
32.0461,63
32.0832,62
32.1204,62
32.1575,63
32.1947,72
32.2318,55
32.2690,83
32.3061,95
32.3433,66
32.3804,73
32.4176,66
32.4547,75
32.4919,77
32.5290,62
32.5662,61
32.6033,68
32.6405,85
32.6776,75
32.7148,45
32.7519,76
32.7891,52
32.8262,54
32.8634,56
32.9006,49
32.9377,56
32.9749,49
33.0120,58
33.0492,59
33.0863,75
33.1235,46
33.1606,59
33.1978,54
33.2349,61
33.2721,54
33.3092,66
33.3464,50
33.3835,55
33.4207,59
33.4578,50
33.4950,59
33.5321,53
33.5693,51
33.6064,51
33.6436,56
33.6807,49
33.7179,49
33.7550,79
33.7922,57
33.8293,51
33.8665,56
33.9036,60
33.9408,68
33.9779,62
34.0151,55
34.0522,58
34.0894,54
34.1265,57
34.1637,65
34.2008,54
34.2380,54
34.2751,46
34.3123,52
34.3494,51
34.3866,62
34.4238,53
34.4609,51
34.4981,47
34.5352,45
34.5724,55
34.6095,65
34.6467,63
34.6838,70
34.7210,78
34.7581,64
34.7953,74
34.8324,75
34.8696,63
34.9067,67
34.9439,57
34.9810,58
35.0182,59
35.0553,55
35.0925,49
35.1296,60
35.1668,57
35.2039,50
35.2411,46
35.2782,56
35.3154,51
35.3525,65
35.3897,44
35.4268,52
35.4640,52
35.5011,46
35.5383,66
35.5754,54
35.6126,56
35.6497,47
35.6869,49
35.7240,45
35.7612,59
35.7983,44
35.8355,44
35.8726,42
35.9098,51
35.9469,51
35.9841,42
36.0213,49
36.0584,52
36.0956,43
36.1327,45
36.1699,39
36.2070,51
36.2442,56
36.2813,53
36.3185,46
36.3556,51
36.3928,41
36.4299,45
36.4671,47
36.5042,48
36.5414,42
36.5785,41
36.6157,53
36.6528,38
36.6900,41
36.7271,40
36.7643,52
36.8014,57
36.8386,53
36.8757,51
36.9129,51
36.9500,38
36.9872,47
37.0243,58
37.0615,44
37.0986,32
37.1358,48
37.1729,33
37.2101,39
37.2472,47
37.2844,54
37.3215,39
37.3587,43
37.3958,50
37.4330,81
37.4701,71
37.5073,57
37.5445,64
37.5816,47
37.6188,60
37.6559,38
37.6931,47
37.7302,46
37.7674,41
37.8045,33
37.8417,42
37.8788,37
37.9160,55
37.9531,50
37.9903,42
38.0274,51
38.0646,34
38.1017,35
38.1389,34
38.1760,43
38.2132,49
38.2503,45
38.2875,34
38.3246,42
38.3618,47
38.3989,39
38.4361,31
38.4732,49
38.5104,45
38.5475,49
38.5847,40
38.6218,39
38.6590,42
38.6961,51
38.7333,37
38.7704,42
38.8076,36
38.8447,45
38.8819,51
38.9190,48
38.9562,28
38.9933,36
39.0305,39
39.0677,32
39.1048,45
39.1420,33
39.1791,43
39.2163,29
39.2534,47
39.2906,43
39.3277,43
39.3649,30
39.4020,45
39.4392,45
39.4763,47
39.5135,47
39.5506,28
39.5878,37
39.6249,36
39.6621,37
39.6992,30
39.7364,41
39.7735,33
39.8107,32
39.8478,44
39.8850,42
39.9221,34
39.9593,35
39.9964,39
40.0336,49
40.0707,47
40.1079,40
40.1450,37
40.1822,38
40.2193,37
40.2565,36
40.2936,40
40.3308,37
40.3679,35
40.4051,41
40.4422,33
40.4794,43
40.5165,48
40.5537,44
40.5908,40
40.6280,42
40.6652,50
40.7023,44
40.7395,42
40.7766,35
40.8138,33
40.8509,50
40.8881,34
40.9252,47
40.9624,54
40.9995,40
41.0367,36
41.0738,43
41.1110,41
41.1481,34
41.1853,43
41.2224,28
41.2596,35
41.2967,29
41.3339,49
41.3710,32
41.4082,29
41.4453,43
41.4825,37
41.5196,39
41.5568,47
41.5939,33
41.6311,37
41.6682,47
41.7054,34
41.7425,32
41.7797,22
41.8168,30
41.8540,34
41.8911,31
41.9283,30
41.9654,41
42.0026,48
42.0397,39
42.0769,40
42.1140,44
42.1512,35
42.1884,28
42.2255,42
42.2627,36
42.2998,29
42.3370,35
42.3741,35
42.4113,40
42.4484,27
42.4856,34
42.5227,48
42.5599,44
42.5970,42
42.6342,44
42.6713,48
42.7085,41
42.7456,46
42.7828,32
42.8199,26
42.8571,29
42.8942,41
42.9314,39
42.9685,32
43.0057,35
43.0428,35
43.0800,35
43.1171,45
43.1543,38
43.1914,44
43.2286,51
43.2657,39
43.3029,44
43.3400,52
43.3772,45
43.4143,37
43.4515,49
43.4886,55
43.5258,57
43.5629,39
43.6001,48
43.6372,55
43.6744,41
43.7116,41
43.7487,41
43.7859,38
43.8230,25
43.8602,43
43.8973,35
43.9345,31
43.9716,35
44.0088,38
44.0459,45
44.0831,40
44.1202,32
44.1574,35
44.1945,38
44.2317,41
44.2688,27
44.3060,32
44.3431,32
44.3803,31
44.4174,33
44.4546,40
44.4917,39
44.5289,46
44.5660,34
44.6032,52
44.6403,48
44.6775,33
44.7146,48
44.7518,29
44.7889,40
44.8261,37
44.8632,26
44.9004,38
44.9375,31
44.9747,41
45.0118,32
45.0490,48
45.0861,29
45.1233,33
45.1604,33
45.1976,33
45.2347,35
45.2719,26
45.3091,30
45.3462,32
45.3834,33
45.4205,28
45.4577,41
45.4948,31
45.5320,46
45.5691,40
45.6063,33
45.6434,27
45.6806,36
45.7177,28
45.7549,32
45.7920,41
45.8292,30
45.8663,40
45.9035,30
45.9406,30
45.9778,30
46.0149,29
46.0521,27
46.0892,37
46.1264,28
46.1635,28
46.2007,30
46.2378,36
46.2750,27
46.3121,43
46.3493,28
46.3864,31
46.4236,30
46.4607,34
46.4979,29
46.5350,34
46.5722,32
46.6093,39
46.6465,38
46.6836,43
46.7208,42
46.7579,35
46.7951,31
46.8323,43
46.8694,35
46.9066,27
46.9437,37
46.9809,22
47.0180,26
47.0552,38
47.0923,31
47.1295,34
47.1666,33
47.2038,30
47.2409,31
47.2781,23
47.3152,33
47.3524,28
47.3895,28
47.4267,28
47.4638,31
47.5010,29
47.5381,29
47.5753,38
47.6124,30
47.6496,35
47.6867,31
47.7239,35
47.7610,32
47.7982,37
47.8353,29
47.8725,35
47.9096,30
47.9468,29
47.9839,28
48.0211,30
48.0582,33
48.0954,34
48.1325,40
48.1697,29
48.2068,34
48.2440,43
48.2811,35
48.3183,29
48.3555,44
48.3926,29
48.4298,33
48.4669,30
48.5041,33
48.5412,21
48.5784,30
48.6155,28
48.6527,17
48.6898,40
48.7270,22
48.7641,46
48.8013,28
48.8384,25
48.8756,32
48.9127,38
48.9499,58
48.9870,49
49.0242,50
49.0613,43
49.0985,47
49.1356,35
49.1728,34
49.2099,27
49.2471,33
49.2842,27
49.3214,39
49.3585,35
49.3957,34
49.4328,28
49.4700,32
49.5071,28
49.5443,35
49.5814,26
49.6186,37
49.6557,25
49.6929,23
49.7300,27
49.7672,35
49.8043,23
49.8415,31
49.8786,42
49.9158,34
49.9530,37
49.9901,32
50.0273,26
50.0644,34
50.1016,37
50.1387,35
50.1759,23
50.2130,37
50.2502,33
50.2873,27
50.3245,29
50.3616,32
50.3988,35
50.4359,39
50.4731,33
50.5102,28
50.5474,19
50.5845,35
50.6217,30
50.6588,40
50.6960,23
50.7331,36
50.7703,32
50.8074,24
50.8446,39
50.8817,40
50.9189,26
50.9560,24
50.9932,33
51.0303,23
51.0675,30
51.1046,26
51.1418,38
51.1789,27
51.2161,22
51.2532,33
51.2904,29
51.3275,34
51.3647,37
51.4018,36
51.4390,32
51.4762,22
51.5133,30
51.5505,32
51.5876,26
51.6248,22
51.6619,26
51.6991,33
51.7362,25
51.7734,29
51.8105,30
51.8477,37
51.8848,33
51.9220,28
51.9591,29
51.9963,31
52.0334,27
52.0706,36
52.1077,30
52.1449,24
52.1820,26
52.2192,21
52.2563,29
52.2935,23
52.3306,23
52.3678,30
52.4049,32
52.4421,26
52.4792,30
52.5164,27
52.5535,29
52.5907,16
52.6278,32
52.6650,26
52.7021,32
52.7393,25
52.7764,24
52.8136,26
52.8507,23
52.8879,39
52.9250,26
52.9622,21
52.9994,33
53.0365,26
53.0737,28
53.1108,18
53.1480,38
53.1851,27
53.2223,23
53.2594,30
53.2966,36
53.3337,27
53.3709,27
53.4080,32
53.4452,30
53.4823,22
53.5195,30
53.5566,17
53.5938,22
53.6309,32
53.6681,28
53.7052,33
53.7424,30
53.7795,34
53.8167,38
53.8538,26
53.8910,28
53.9281,33
53.9653,37
54.0024,37
54.0396,33
54.0767,27
54.1139,33
54.1510,34
54.1882,25
54.2253,45
54.2625,34
54.2996,29
54.3368,23
54.3739,24
54.4111,18
54.4482,39
54.4854,36
54.5225,23
54.5597,21
54.5969,22
54.6340,33
54.6712,26
54.7083,28
54.7455,30
54.7826,31
54.8198,29
54.8569,20
54.8941,37
54.9312,31
54.9684,32
55.0055,21
55.0427,28
55.0798,18
55.1170,15
55.1541,28
55.1913,24
55.2284,26
55.2656,23
55.3027,26
55.3399,28
55.3770,24
55.4142,22
55.4513,20
55.4885,27
55.5256,17
55.5628,26
55.5999,23
55.6371,27
55.6742,34
55.7114,30
55.7485,29
55.7857,27
55.8228,32
55.8600,23
55.8971,27
55.9343,30
55.9714,30
56.0086,30
56.0457,26
56.0829,30
56.1201,29
56.1572,31
56.1944,22
56.2315,41
56.2687,36
56.3058,27
56.3430,34
56.3801,34
56.4173,29
56.4544,26
56.4916,28
56.5287,25
56.5659,28
56.6030,29
56.6402,34
56.6773,29
56.7145,21
56.7516,29
56.7888,34
56.8259,28
56.8631,25
56.9002,23
56.9374,33
56.9745,30
57.0117,24
57.0488,34
57.0860,17
57.1231,25
57.1603,25
57.1974,34
57.2346,24
57.2717,30
57.3089,22
57.3460,33
57.3832,27
57.4203,25
57.4575,28
57.4946,23
57.5318,22
57.5689,26
57.6061,34
57.6433,15
57.6804,23
57.7176,34
57.7547,25
57.7919,22
57.8290,36
57.8662,24
57.9033,20
57.9405,32
57.9776,33
58.0148,30
58.0519,25
58.0891,27
58.1262,21
58.1634,21
58.2005,31
58.2377,30
58.2748,31
58.3120,33
58.3491,27
58.3863,22
58.4234,27
58.4606,33
58.4977,44
58.5349,19
58.5720,24
58.6092,22
58.6463,26
58.6835,24
58.7206,25
58.7578,22
58.7949,20
58.8321,31
58.8692,36
58.9064,25
58.9435,28
58.9807,24
59.0178,21
59.0550,23
59.0921,23
59.1293,24
59.1664,31
59.2036,19
59.2408,29
59.2779,26
59.3151,35
59.3522,33
59.3894,28
59.4265,27
59.4637,22
59.5008,24
59.5380,23
59.5751,26
59.6123,28
59.6494,24
59.6866,27
59.7237,33
59.7609,29
59.7980,31
59.8352,24
59.8723,21
59.9095,23
59.9466,22
59.9838,25
60.0024,18