File: notebooks/data/xrd_data/ML_20220720_6_SJD_4_LaB6-1min.csv
;,2THETA,
5.0000,89
5.0372,88
5.0743,87
5.1115,73
5.1486,99
5.1858,97
5.2229,79
5.2601,81
5.2972,93
5.3344,83
5.3715,90
5.4087,83
5.4458,87
5.4830,93
5.5201,70
5.5573,108
5.5944,71
5.6316,70
5.6687,80
5.7059,86
5.7430,64
5.7802,61
5.8173,86
5.8545,80
5.8916,53
5.9288,67
5.9659,69
6.0031,66
6.0402,69
6.0774,66
6.1145,74
6.1517,59
6.1888,64
6.2260,70
6.2631,70
6.3003,51
6.3374,80
6.3746,63
6.4117,47
6.4489,64
6.4860,64
6.5232,52
6.5604,63
6.5975,51
6.6347,55
6.6718,72
6.7090,60
6.7461,61
6.7833,48
6.8204,60
6.8576,56
6.8947,63
6.9319,65
6.9690,64
7.0062,61
7.0433,68
7.0805,71
7.1176,52
7.1548,46
7.1919,61
7.2291,54
7.2662,56
7.3034,67
7.3405,64
7.3777,59
7.4148,59
7.4520,50
7.4891,62
7.5263,56
7.5634,58
7.6006,73
7.6377,68
7.6749,69
7.7120,62
7.7492,70
7.7863,65
7.8235,63
7.8606,75
7.8978,69
7.9349,60
7.9721,63
8.0092,60
8.0464,61
8.0835,73
8.1207,80
8.1579,78
8.1950,54
8.2322,64
8.2693,63
8.3065,65
8.3436,72
8.3808,70
8.4179,69
8.4551,67
8.4922,73
8.5294,73
8.5665,56
8.6037,62
8.6408,78
8.6780,90
8.7151,73
8.7523,78
8.7894,70
8.8266,73
8.8637,90
8.9009,71
8.9380,63
8.9752,52
9.0123,68
9.0495,81
9.0866,81
9.1238,81
9.1609,74
9.1981,82
9.2352,69
9.2724,71
9.3095,64
9.3467,72
9.3838,53
9.4210,90
9.4581,76
9.4953,104
9.5324,83
9.5696,73
9.6067,86
9.6439,72
9.6811,78
9.7182,89
9.7554,76
9.7925,70
9.8297,90
9.8668,86
9.9040,98
9.9411,85
9.9783,71
10.0154,91
10.0526,83
10.0897,84
10.1269,77
10.1640,74
10.2012,66
10.2383,96
10.2755,88
10.3126,74
10.3498,84
10.3869,99
10.4241,77
10.4612,85
10.4984,82
10.5355,81
10.5727,80
10.6098,92
10.6470,91
10.6841,84
10.7213,102
10.7584,89
10.7956,71
10.8327,95
10.8699,80
10.9070,81
10.9442,76
10.9813,84
11.0185,79
11.0556,92
11.0928,89
11.1299,88
11.1671,97
11.2043,84
11.2414,95
11.2786,68
11.3157,68
11.3529,94
11.3900,90
11.4272,78
11.4643,97
11.5015,73
11.5386,84
11.5758,100
11.6129,85
11.6501,77
11.6872,77
11.7244,84
11.7615,75
11.7987,87
11.8358,94
11.8730,73
11.9101,81
11.9473,92
11.9844,95
12.0216,74
12.0587,75
12.0959,76
12.1330,87
12.1702,85
12.2073,75
12.2445,91
12.2816,84
12.3188,60
12.3559,86
12.3931,74
12.4302,61
12.4674,76
12.5045,85
12.5417,77
12.5788,76
12.6160,77
12.6531,64
12.6903,76
12.7274,69
12.7646,85
12.8018,86
12.8389,74
12.8761,60
12.9132,66
12.9504,68
12.9875,67
13.0247,66
13.0618,78
13.0990,75
13.1361,88
13.1733,64
13.2104,69
13.2476,73
13.2847,83
13.3219,74
13.3590,73
13.3962,56
13.4333,81
13.4705,61
13.5076,67
13.5448,77
13.5819,74
13.6191,76
13.6562,60
13.6934,64
13.7305,59
13.7677,71
13.8048,63
13.8420,64
13.8791,73
13.9163,50
13.9534,73
13.9906,52
14.0277,57
14.0649,70
14.1020,63
14.1392,67
14.1763,65
14.2135,53
14.2506,63
14.2878,62
14.3250,76
14.3621,65
14.3993,64
14.4364,73
14.4736,57
14.5107,58
14.5479,51
14.5850,63
14.6222,63
14.6593,75
14.6965,59
14.7336,66
14.7708,73
14.8079,57
14.8451,64
14.8822,49
14.9194,59
14.9565,61
14.9937,62
15.0308,53
15.0680,58
15.1051,62
15.1423,77
15.1794,65
15.2166,65
15.2537,60
15.2909,74
15.3280,58
15.3652,61
15.4023,60
15.4395,52
15.4766,45
15.5138,56
15.5509,58
15.5881,66
15.6252,63
15.6624,57
15.6995,55
15.7367,58
15.7738,67
15.8110,67
15.8482,52
15.8853,64
15.9225,64
15.9596,50
15.9968,53
16.0339,68
16.0711,68
16.1082,43
16.1454,68
16.1825,58
16.2197,72
16.2568,62
16.2940,58
16.3311,62
16.3683,66
16.4054,61
16.4426,53
16.4797,61
16.5169,67
16.5540,67
16.5912,59
16.6283,73
16.6655,56
16.7026,67
16.7398,66
16.7769,57
16.8141,63
16.8512,59
16.8884,53
16.9255,42
16.9627,62
16.9998,57
17.0370,75
17.0741,71
17.1113,48
17.1484,64
17.1856,50
17.2227,68
17.2599,60
17.2970,47
17.3342,60
17.3713,65
17.4085,54
17.4457,61
17.4828,52
17.5200,57
17.5571,63
17.5943,63
17.6314,51
17.6686,63
17.7057,61
17.7429,71
17.7800,55
17.8172,46
17.8543,59
17.8915,61
17.9286,63
17.9658,66
18.0029,60
18.0401,82
18.0772,44
18.1144,61
18.1515,51
18.1887,54
18.2258,54
18.2630,55
18.3001,71
18.3373,53
18.3744,72
18.4116,55
18.4487,59
18.4859,55
18.5230,69
18.5602,53
18.5973,52
18.6345,59
18.6716,64
18.7088,62
18.7459,63
18.7831,61
18.8202,59
18.8574,64
18.8945,66
18.9317,52
18.9689,76
19.0060,53
19.0432,55
19.0803,64
19.1175,46
19.1546,61
19.1918,72
19.2289,58
19.2661,62
19.3032,67
19.3404,65
19.3775,56
19.4147,55
19.4518,64
19.4890,76
19.5261,67
19.5633,61
19.6004,56
19.6376,80
19.6747,71
19.7119,72
19.7490,66
19.7862,72
19.8233,68
19.8605,67
19.8976,55
19.9348,59
19.9719,74
20.0091,71
20.0462,71
20.0834,75
20.1205,70
20.1577,67
20.1948,60
20.2320,57
20.2691,73
20.3063,52
20.3434,83
20.3806,67
20.4177,77
20.4549,72
20.4921,65
20.5292,67
20.5664,61
20.6035,78
20.6407,68
20.6778,63
20.7150,61
20.7521,55
20.7893,58
20.8264,65
20.8636,76
20.9007,54
20.9379,74
20.9750,63
21.0122,80
21.0493,58
21.0865,70
21.1236,68
21.1608,88
21.1979,107
21.2351,113
21.2722,94
21.3094,141
21.3465,163
21.3837,115
21.4208,99
21.4580,83
21.4951,64
21.5323,75
21.5694,60
21.6066,75
21.6437,70
21.6809,63
21.7180,76
21.7552,69
21.7923,63
21.8295,88
21.8666,65
21.9038,83
21.9409,68
21.9781,69
22.0152,65
22.0524,66
22.0896,80
22.1267,59
22.1639,65
22.2010,76
22.2382,75
22.2753,69
22.3125,77
22.3496,61
22.3868,77
22.4239,68
22.4611,60
22.4982,59
22.5354,66
22.5725,82
22.6097,68
22.6468,79
22.6840,67
22.7211,72
22.7583,70
22.7954,76
22.8326,76
22.8697,65
22.9069,77
22.9440,60
22.9812,83
23.0183,84
23.0555,75
23.0926,72
23.1298,73
23.1669,65
23.2041,68
23.2412,60
23.2784,60
23.3155,81
23.3527,60
23.3898,74
23.4270,72
23.4641,66
23.5013,62
23.5384,78
23.5756,55
23.6128,62
23.6499,91
23.6871,56
23.7242,61
23.7614,63
23.7985,90
23.8357,71
23.8728,66
23.9100,58
23.9471,80
23.9843,63
24.0214,79
24.0586,83
24.0957,50
24.1329,74
24.1700,76
24.2072,83
24.2443,77
24.2815,85
24.3186,77
24.3558,83
24.3929,80
24.4301,69
24.4672,66
24.5044,85
24.5415,68
24.5787,65
24.6158,83
24.6530,62
24.6901,61
24.7273,71
24.7644,60
24.8016,63
24.8387,81
24.8759,83
24.9130,60
24.9502,76
24.9873,66
25.0245,66
25.0616,74
25.0988,59
25.1360,74
25.1731,67
25.2103,63
25.2474,63
25.2846,63
25.3217,77
25.3589,72
25.3960,66
25.4332,67
25.4703,82
25.5075,85
25.5446,62
25.5818,69
25.6189,68
25.6561,69
25.6932,73
25.7304,64
25.7675,62
25.8047,63
25.8418,55
25.8790,67
25.9161,74
25.9533,67
25.9904,56
26.0276,85
26.0647,78
26.1019,66
26.1390,85
26.1762,77
26.2133,76
26.2505,67
26.2876,93
26.3248,63
26.3619,73
26.3991,64
26.4362,70
26.4734,60
26.5105,76
26.5477,57
26.5848,63
26.6220,62
26.6591,66
26.6963,60
26.7335,66
26.7706,69
26.8078,51
26.8449,71
26.8821,64
26.9192,76
26.9564,76
26.9935,51
27.0307,64
27.0678,67
27.1050,69
27.1421,82
27.1793,86
27.2164,82
27.2536,90
27.2907,65
27.3279,82
27.3650,84
27.4022,70
27.4393,72
27.4765,56
27.5136,41
27.5508,64
27.5879,60
27.6251,60
27.6622,57
27.6994,70
27.7365,70
27.7737,55
27.8108,63
27.8480,60
27.8851,64
27.9223,72
27.9594,60
27.9966,57
28.0337,62
28.0709,62
28.1080,62
28.1452,63
28.1823,64
28.2195,55
28.2567,56
28.2938,63
28.3310,48
28.3681,70
28.4053,54
28.4424,49
28.4796,54
28.5167,43
28.5539,63
28.5910,68
28.6282,54
28.6653,70
28.7025,62
28.7396,63
28.7768,67
28.8139,56
28.8511,69
28.8882,63
28.9254,64
28.9625,50
28.9997,65
29.0368,63
29.0740,52
29.1111,51
29.1483,60
29.1854,68
29.2226,49
29.2597,59
29.2969,49
29.3340,55
29.3712,50
29.4083,58
29.4455,59
29.4826,48
29.5198,67
29.5569,48
29.5941,49
29.6312,68
29.6684,50
29.7055,65
29.7427,69
29.7799,54
29.8170,70
29.8542,63
29.8913,65
29.9285,50
29.9656,46
30.0028,59
30.0399,58
30.0771,51
30.1142,75
30.1514,63
30.1885,52
30.2257,51
30.2628,56
30.3000,53
30.3371,87
30.3743,114
30.4114,73
30.4486,95
30.4857,55
30.5229,61
30.5600,60
30.5972,52
30.6343,60
30.6715,47
30.7086,46
30.7458,39
30.7829,68
30.8201,56
30.8572,46
30.8944,61
30.9315,49
30.9687,46
31.0058,53
31.0430,52
31.0801,49
31.1173,42
31.1544,50
31.1916,57
31.2287,64
31.2659,55
31.3030,49
31.3402,58
31.3774,49
31.4145,51
31.4517,51
31.4888,58
31.5260,56
31.5631,44
31.6003,50
31.6374,41
31.6746,37
31.7117,61
31.7489,38
31.7860,44
31.8232,53
31.8603,67
31.8975,57
31.9346,40
31.9718,42
32.0089,58
32.0461,49
32.0832,35
32.1204,38
32.1575,59
32.1947,51
32.2318,45
32.2690,52
32.3061,41
32.3433,55
32.3804,56
32.4176,55
32.4547,51
32.4919,63
32.5290,69
32.5662,65
32.6033,59
32.6405,45
32.6776,36
32.7148,57
32.7519,43
32.7891,56
32.8262,46
32.8634,51
32.9006,46
32.9377,50
32.9749,44
33.0120,41
33.0492,53
33.0863,33
33.1235,36
33.1606,39
33.1978,49
33.2349,60
33.2721,48
33.3092,37
33.3464,35
33.3835,44
33.4207,47
33.4578,42
33.4950,41
33.5321,31
33.5693,40
33.6064,51
33.6436,37
33.6807,41
33.7179,36
33.7550,39
33.7922,48
33.8293,39
33.8665,37
33.9036,51
33.9408,36
33.9779,38
34.0151,55
34.0522,42
34.0894,47
34.1265,36
34.1637,38
34.2008,45
34.2380,33
34.2751,46
34.3123,53
34.3494,37
34.3866,45
34.4238,48
34.4609,46
34.4981,38
34.5352,43
34.5724,38
34.6095,42
34.6467,34
34.6838,55
34.7210,65
34.7581,62
34.7953,43
34.8324,41
34.8696,42
34.9067,46
34.9439,46
34.9810,41
35.0182,36
35.0553,42
35.0925,34
35.1296,29
35.1668,39
35.2039,38
35.2411,37
35.2782,32
35.3154,26
35.3525,46
35.3897,38
35.4268,31
35.4640,31
35.5011,37
35.5383,31
35.5754,36
35.6126,42
35.6497,41
35.6869,34
35.7240,34
35.7612,39
35.7983,41
35.8355,37
35.8726,44
35.9098,32
35.9469,41
35.9841,35
36.0213,30
36.0584,42
36.0956,29
36.1327,26
36.1699,26
36.2070,27
36.2442,40
36.2813,28
36.3185,38
36.3556,39
36.3928,38
36.4299,29
36.4671,30
36.5042,33
36.5414,30
36.5785,27
36.6157,35
36.6528,29
36.6900,21
36.7271,29
36.7643,43
36.8014,36
36.8386,40
36.8757,30
36.9129,36
36.9500,37
36.9872,31
37.0243,29
37.0615,35
37.0986,24
37.1358,41
37.1729,41
37.2101,26
37.2472,38
37.2844,23
37.3215,33
37.3587,29
37.3958,44
37.4330,54
37.4701,42
37.5073,39
37.5445,45
37.5816,26
37.6188,35
37.6559,21
37.6931,27
37.7302,31
37.7674,25
37.8045,31
37.8417,28
37.8788,29
37.9160,40
37.9531,34
37.9903,22
38.0274,27
38.0646,24
38.1017,24
38.1389,24
38.1760,33
38.2132,26
38.2503,24
38.2875,19
38.3246,30
38.3618,28
38.3989,33
38.4361,32
38.4732,22
38.5104,31
38.5475,29
38.5847,35
38.6218,30
38.6590,25
38.6961,25
38.7333,34
38.7704,39
38.8076,35
38.8447,30
38.8819,38
38.9190,25
38.9562,15
38.9933,27
39.0305,24
39.0677,26
39.1048,22
39.1420,26
39.1791,35
39.2163,28
39.2534,29
39.2906,30
39.3277,28
39.3649,51
39.4020,29
39.4392,25
39.4763,22
39.5135,31
39.5506,28
39.5878,34
39.6249,33
39.6621,34
39.6992,30
39.7364,18
39.7735,40
39.8107,34
39.8478,23
39.8850,25
39.9221,38
39.9593,19
39.9964,34
40.0336,32
40.0707,22
40.1079,29
40.1450,31
40.1822,21
40.2193,38
40.2565,32
40.2936,27
40.3308,31
40.3679,28
40.4051,30
40.4422,31
40.4794,30
40.5165,30
40.5537,35
40.5908,29
40.6280,20
40.6652,20
40.7023,33
40.7395,20
40.7766,14
40.8138,33
40.8509,29
40.8881,46
40.9252,32
40.9624,29
40.9995,27
41.0367,28
41.0738,23
41.1110,28
41.1481,29
41.1853,29
41.2224,21
41.2596,20
41.2967,28
41.3339,31
41.3710,29
41.4082,22
41.4453,25
41.4825,23
41.5196,28
41.5568,36
41.5939,26
41.6311,24
41.6682,17
41.7054,28
41.7425,20
41.7797,24
41.8168,27
41.8540,23
41.8911,29
41.9283,31
41.9654,20
42.0026,21
42.0397,28
42.0769,23
42.1140,19
42.1512,22
42.1884,34
42.2255,33
42.2627,28
42.2998,25
42.3370,22
42.3741,31
42.4113,29
42.4484,18
42.4856,20
42.5227,27
42.5599,29
42.5970,31
42.6342,27
42.6713,36
42.7085,18
42.7456,25
42.7828,35
42.8199,34
42.8571,27
42.8942,25
42.9314,27
42.9685,30
43.0057,27
43.0428,23
43.0800,30
43.1171,29
43.1543,28
43.1914,23
43.2286,32
43.2657,42
43.3029,27
43.3400,31
43.3772,29
43.4143,21
43.4515,38
43.4886,49
43.5258,43
43.5629,23
43.6001,40
43.6372,37
43.6744,25
43.7116,31
43.7487,24
43.7859,23
43.8230,34
43.8602,33
43.8973,24
43.9345,33
43.9716,18
44.0088,25
44.0459,18
44.0831,28
44.1202,20
44.1574,32
44.1945,30
44.2317,27
44.2688,13
44.3060,28
44.3431,33
44.3803,31
44.4174,28
44.4546,23
44.4917,27
44.5289,28
44.5660,24
44.6032,28
44.6403,31
44.6775,22
44.7146,23
44.7518,24
44.7889,23
44.8261,26
44.8632,21
44.9004,23
44.9375,33
44.9747,25
45.0118,31
45.0490,25
45.0861,21
45.1233,31
45.1604,24
45.1976,27
45.2347,26
45.2719,28
45.3091,14
45.3462,30
45.3834,31
45.4205,32
45.4577,25
45.4948,19
45.5320,17
45.5691,31
45.6063,24
45.6434,26
45.6806,27
45.7177,16
45.7549,26
45.7920,21
45.8292,16
45.8663,24
45.9035,33
45.9406,23
45.9778,22
46.0149,28
46.0521,23
46.0892,21
46.1264,25
46.1635,26
46.2007,33
46.2378,23
46.2750,29
46.3121,14
46.3493,18
46.3864,27
46.4236,18
46.4607,19
46.4979,27
46.5350,23
46.5722,21
46.6093,21
46.6465,29
46.6836,26
46.7208,21
46.7579,23
46.7951,23
46.8323,14
46.8694,27
46.9066,33
46.9437,20
46.9809,22
47.0180,19
47.0552,21
47.0923,29
47.1295,21
47.1666,24
47.2038,18
47.2409,16
47.2781,17
47.3152,21
47.3524,23
47.3895,18
47.4267,26
47.4638,20
47.5010,25
47.5381,31
47.5753,24
47.6124,24
47.6496,18
47.6867,32
47.7239,19
47.7610,24
47.7982,26
47.8353,29
47.8725,23
47.9096,28
47.9468,29
47.9839,32
48.0211,18
48.0582,30
48.0954,31
48.1325,24
48.1697,22
48.2068,31
48.2440,16
48.2811,25
48.3183,25
48.3555,23
48.3926,23
48.4298,22
48.4669,25
48.5041,27
48.5412,21
48.5784,28
48.6155,25
48.6527,25
48.6898,19
48.7270,21
48.7641,29
48.8013,18
48.8384,18
48.8756,34
48.9127,38
48.9499,51
48.9870,24
49.0242,29
49.0613,40
49.0985,36
49.1356,22
49.1728,25
49.2099,30
49.2471,20
49.2842,18
49.3214,29
49.3585,24
49.3957,29
49.4328,18
49.4700,20
49.5071,13
49.5443,12
49.5814,25
49.6186,17
49.6557,22
49.6929,16
49.7300,24
49.7672,19
49.8043,25
49.8415,18
49.8786,19
49.9158,18
49.9530,31
49.9901,26
50.0273,27
50.0644,17
50.1016,20
50.1387,20
50.1759,25
50.2130,28
50.2502,25
50.2873,25
50.3245,25
50.3616,29
50.3988,23
50.4359,22
50.4731,26
50.5102,27
50.5474,23
50.5845,28
50.6217,17
50.6588,31
50.6960,14
50.7331,20
50.7703,22
50.8074,20
50.8446,29
50.8817,23
50.9189,14
50.9560,22
50.9932,20
51.0303,24
51.0675,21
51.1046,25
51.1418,29
51.1789,19
51.2161,24
51.2532,24
51.2904,23
51.3275,22
51.3647,28
51.4018,21
51.4390,28
51.4762,31
51.5133,36
51.5505,24
51.5876,25
51.6248,18
51.6619,17
51.6991,22
51.7362,25
51.7734,17
51.8105,19
51.8477,34
51.8848,24
51.9220,27
51.9591,33
51.9963,23
52.0334,24
52.0706,24
52.1077,18
52.1449,26
52.1820,22
52.2192,25
52.2563,28
52.2935,13
52.3306,22
52.3678,21
52.4049,19
52.4421,23
52.4792,30
52.5164,27
52.5535,18
52.5907,16
52.6278,15
52.6650,20
52.7021,23
52.7393,31
52.7764,23
52.8136,19
52.8507,21
52.8879,26
52.9250,15
52.9622,21
52.9994,26
53.0365,23
53.0737,13
53.1108,27
53.1480,23
53.1851,21
53.2223,16
53.2594,15
53.2966,19
53.3337,26
53.3709,23
53.4080,31
53.4452,21
53.4823,14
53.5195,26
53.5566,26
53.5938,17
53.6309,19
53.6681,21
53.7052,19
53.7424,21
53.7795,13
53.8167,23
53.8538,22
53.8910,23
53.9281,34
53.9653,23
54.0024,33
54.0396,24
54.0767,21
54.1139,32
54.1510,20
54.1882,21
54.2253,24
54.2625,23
54.2996,18
54.3368,23
54.3739,25
54.4111,20
54.4482,19
54.4854,21
54.5225,22
54.5597,22
54.5969,14
54.6340,23
54.6712,20
54.7083,12
54.7455,22
54.7826,17
54.8198,22
54.8569,15
54.8941,18
54.9312,14
54.9684,24
55.0055,10
55.0427,28
55.0798,21
55.1170,17
55.1541,20
55.1913,13
55.2284,22
55.2656,20
55.3027,16
55.3399,21
55.3770,20
55.4142,19
55.4513,23
55.4885,9
55.5256,23
55.5628,21
55.5999,21
55.6371,14
55.6742,25
55.7114,10
55.7485,26
55.7857,23
55.8228,16
55.8600,13
55.8971,22
55.9343,22
55.9714,18
56.0086,15
56.0457,25
56.0829,22
56.1201,21
56.1572,21
56.1944,30
56.2315,22
56.2687,27
56.3058,27
56.3430,25
56.3801,32
56.4173,18
56.4544,21
56.4916,28
56.5287,21
56.5659,19
56.6030,9
56.6402,21
56.6773,21
56.7145,15
56.7516,24
56.7888,20
56.8259,25
56.8631,20
56.9002,20
56.9374,20
56.9745,17
57.0117,16
57.0488,20
57.0860,30
57.1231,19
57.1603,21
57.1974,18
57.2346,25
57.2717,15
57.3089,17
57.3460,31
57.3832,23
57.4203,17
57.4575,12
57.4946,13
57.5318,10
57.5689,21
57.6061,22
57.6433,25
57.6804,12
57.7176,27
57.7547,15
57.7919,24
57.8290,12
57.8662,20
57.9033,26
57.9405,25
57.9776,19
58.0148,28
58.0519,18
58.0891,25
58.1262,17
58.1634,19
58.2005,14
58.2377,13
58.2748,20
58.3120,22
58.3491,20
58.3863,17
58.4234,22
58.4606,16
58.4977,22
58.5349,18
58.5720,22
58.6092,21
58.6463,23
58.6835,27
58.7206,23
58.7578,29
58.7949,21
58.8321,22
58.8692,19
58.9064,15
58.9435,18
58.9807,11
59.0178,19
59.0550,17
59.0921,21
59.1293,14
59.1664,29
59.2036,29
59.2408,19
59.2779,23
59.3151,15
59.3522,15
59.3894,20
59.4265,19
59.4637,22
59.5008,23
59.5380,25
59.5751,17
59.6123,25
59.6494,28
59.6866,18
59.7237,15
59.7609,20
59.7980,16
59.8352,15
59.8723,21
59.9095,20
59.9466,16
59.9838,12
60.0024,19