File: notebooks/data/xrd_data/ML_20220720_29_SJD_4_LaB6-1min.uxd
; (content of file Y:\Sam\Apurva-07-20-2022\puck2\ML_20220720_29_SJD_0_LaB6-1min.raw)
_FILEVERSION = 3
_SAMPLE = ML_20220720_29_SJD_0_LaB6-1min
_+SAMPLE =
_SITE = USA
_USER = Administrator
_GONIOMETER_CODE = 20
; Goniometer : D8 theta/2theta, stage : Unknown
_ATTACHMENTS_CODE = 0
_GONIOMETER_RADIUS = 200.5
_FIXED_DIVSLIT = 0.6
_FIXED_SAMPLESLIT = 0
_SOLLER_SLITS = 2
_FIXED_DETSLIT = 9.55
_MONOCHROMATOR = 0
; Incident beam monochromator : None
_SOLLER_SLITS_2 = N
_THIN_FILM = N
_BETA_FILTER = Y
_FIXED_ANTISLIT = 5.89
_ANALYZER_CODE = 0
; Received beam analyzer : None
_DATEMEASURED = "25-Jul-2022 18:40:31"
_WL_UNIT = A
_WL1 = 1.5406
_WL2 = 1.54439
_WL3 = 1.39222
_WLRATIO = 0.5
_ANODE = Cu
_V4_INF_CREATOR = XRDWizard
_V4_INF_CREATOR_VERSION = V2.9.0.22
_V4_INF_WIZARD_VERSION = V2.9.0.22
_V4_INF_WIZARD_ADDINS = V2.9.0.22
_V4_INF_WIZARD_DOCTYPE = XRD
_V4_INF_OSUSER = McQueenLab
_V4_INF_USER = Administrator
_V4_INF_SITE = USA
_V4_INF_SAMPLEID = ML_20220720_29_SJD_0_LaB6-1min

; Data for range 1
_DRIVE = COUPLED
_STEPTIME = 4.23
_STEPSIZE = 0.0185756
_STEPMODE = C
_START = 5
_THETA = 2.5
_2THETA = 5
_KHI = 0
_PHI = 0
_X = 0
_Y = 0
_Z = 0
_DETECTOR = 5
; Detector type : Unknown
_DETECTORSLIT = unkn
_AUX1 = 0
_AUX2 = 0
_AUX3 = 0
_TIMESTARTED = 15
_TEMP_RATE = -1
_TEMP_DELAY = -1
_KV = 40
_MA = 40
_RANGE_WL = 1.5406
_3DPLANE = 0
_V4_ADDITIONALDETECTOR = 257
_V4_PSD2THETA = 3.4372
_V4_PSDCHANNEL1 = 0
_V4_PSDAPERTURE = 12.68
_V4_PSDTYPE = 5
_V4_PSDFIXED = 0
_V4_COUNTERS_MASK = 4096
_V4_DRIVES_MASK = 0
_V4_ENCODERS_MASK = 0
_2THETACOUNTS = 1
; 2THETA  PSD
   5.0000        104
   5.0372        118
   5.0743         91
   5.1115         81
   5.1486         88
   5.1858         79
   5.2229         88
   5.2601        109
   5.2972        104
   5.3344        101
   5.3715         94
   5.4087         87
   5.4458         82
   5.4830         83
   5.5201         89
   5.5573         88
   5.5944         89
   5.6316         76
   5.6687         61
   5.7059         67
   5.7430         71
   5.7802         78
   5.8173         86
   5.8545         89
   5.8916         67
   5.9288         65
   5.9659         64
   6.0031         77
   6.0402         60
   6.0774         75
   6.1145         67
   6.1517         76
   6.1888         70
   6.2260         75
   6.2631         62
   6.3003         80
   6.3374         72
   6.3746         80
   6.4117         55
   6.4489         65
   6.4860         67
   6.5232         71
   6.5604         65
   6.5975         59
   6.6347         59
   6.6718         57
   6.7090         61
   6.7461         68
   6.7833         53
   6.8204         45
   6.8576         57
   6.8947         60
   6.9319         78
   6.9690         57
   7.0062         67
   7.0433         67
   7.0805         54
   7.1176         74
   7.1548         54
   7.1919         58
   7.2291         55
   7.2662         62
   7.3034         49
   7.3405         66
   7.3777         56
   7.4148         52
   7.4520         61
   7.4891         67
   7.5263         59
   7.5634         67
   7.6006         63
   7.6377         72
   7.6749         64
   7.7120         63
   7.7492         61
   7.7863         69
   7.8235         69
   7.8606         65
   7.8978         63
   7.9349         72
   7.9721         67
   8.0092         53
   8.0464         70
   8.0835         55
   8.1207         73
   8.1579         78
   8.1950         71
   8.2322         65
   8.2693         64
   8.3065         63
   8.3436         58
   8.3808         65
   8.4179         66
   8.4551         65
   8.4922         75
   8.5294         86
   8.5665         64
   8.6037         65
   8.6408         76
   8.6780         61
   8.7151         70
   8.7523         64
   8.7894         83
   8.8266         75
   8.8637         66
   8.9009         78
   8.9380         73
   8.9752         69
   9.0123         88
   9.0495         69
   9.0866         81
   9.1238         79
   9.1609         94
   9.1981         80
   9.2352         81
   9.2724         90
   9.3095         82
   9.3467         76
   9.3838         85
   9.4210         79
   9.4581         71
   9.4953         93
   9.5324         81
   9.5696         86
   9.6067         67
   9.6439         85
   9.6811         76
   9.7182         81
   9.7554         80
   9.7925         82
   9.8297        101
   9.8668         69
   9.9040         87
   9.9411         84
   9.9783         95
  10.0154         77
  10.0526         93
  10.0897         89
  10.1269         82
  10.1640         78
  10.2012         91
  10.2383         90
  10.2755        108
  10.3126         78
  10.3498         92
  10.3869         85
  10.4241         92
  10.4612         88
  10.4984         88
  10.5355         87
  10.5727         75
  10.6098         97
  10.6470         87
  10.6841        107
  10.7213         99
  10.7584         94
  10.7956         92
  10.8327         87
  10.8699         86
  10.9070         69
  10.9442         77
  10.9813         84
  11.0185         84
  11.0556         93
  11.0928         90
  11.1299         86
  11.1671         88
  11.2043         72
  11.2414         81
  11.2786         75
  11.3157         87
  11.3529         89
  11.3900         69
  11.4272         81
  11.4643        105
  11.5015         74
  11.5386         84
  11.5758         91
  11.6129         94
  11.6501         75
  11.6872         74
  11.7244         90
  11.7615         72
  11.7987         88
  11.8358         81
  11.8730         83
  11.9101         99
  11.9473         79
  11.9844         93
  12.0216         72
  12.0587         81
  12.0959         82
  12.1330         83
  12.1702         76
  12.2073         72
  12.2445         76
  12.2816         77
  12.3188         78
  12.3559         78
  12.3931         76
  12.4302         77
  12.4674         96
  12.5045         75
  12.5417         78
  12.5788         87
  12.6160         70
  12.6531         85
  12.6903         85
  12.7274         72
  12.7646         68
  12.8018         88
  12.8389         80
  12.8761         85
  12.9132         62
  12.9504         77
  12.9875         93
  13.0247         71
  13.0618         66
  13.0990         73
  13.1361         86
  13.1733         58
  13.2104         71
  13.2476         77
  13.2847         63
  13.3219         76
  13.3590         87
  13.3962         72
  13.4333         69
  13.4705         82
  13.5076         64
  13.5448         74
  13.5819         63
  13.6191         72
  13.6562         89
  13.6934         64
  13.7305         72
  13.7677         74
  13.8048         65
  13.8420         65
  13.8791         67
  13.9163         68
  13.9534         62
  13.9906         66
  14.0277         65
  14.0649         51
  14.1020         71
  14.1392         78
  14.1763         67
  14.2135         47
  14.2506         66
  14.2878         65
  14.3250         64
  14.3621         70
  14.3993         63
  14.4364         58
  14.4736         59
  14.5107         76
  14.5479         58
  14.5850         64
  14.6222         45
  14.6593         60
  14.6965         65
  14.7336         68
  14.7708         59
  14.8079         53
  14.8451         63
  14.8822         58
  14.9194         66
  14.9565         68
  14.9937         67
  15.0308         57
  15.0680         54
  15.1051         70
  15.1423         61
  15.1794         56
  15.2166         61
  15.2537         59
  15.2909         68
  15.3280         58
  15.3652         60
  15.4023         76
  15.4395         60
  15.4766         60
  15.5138         54
  15.5509         59
  15.5881         66
  15.6252         72
  15.6624         65
  15.6995         70
  15.7367         47
  15.7738         47
  15.8110         55
  15.8482         59
  15.8853         69
  15.9225         46
  15.9596         57
  15.9968         65
  16.0339         78
  16.0711         47
  16.1082         54
  16.1454         48
  16.1825         49
  16.2197         75
  16.2568         61
  16.2940         65
  16.3311         61
  16.3683         58
  16.4054         57
  16.4426         50
  16.4797         48
  16.5169         54
  16.5540         69
  16.5912         52
  16.6283         56
  16.6655         45
  16.7026         53
  16.7398         66
  16.7769         46
  16.8141         58
  16.8512         66
  16.8884         65
  16.9255         60
  16.9627         53
  16.9998         64
  17.0370         51
  17.0741         51
  17.1113         70
  17.1484         62
  17.1856         58
  17.2227         56
  17.2599         74
  17.2970         67
  17.3342         69
  17.3713         74
  17.4085         49
  17.4457         65
  17.4828         55
  17.5200         66
  17.5571         46
  17.5943         53
  17.6314         46
  17.6686         65
  17.7057         70
  17.7429         51
  17.7800         59
  17.8172         62
  17.8543         44
  17.8915         64
  17.9286         56
  17.9658         50
  18.0029         56
  18.0401         72
  18.0772         49
  18.1144         62
  18.1515         52
  18.1887         63
  18.2258         67
  18.2630         49
  18.3001         64
  18.3373         67
  18.3744         78
  18.4116         63
  18.4487         72
  18.4859         65
  18.5230         60
  18.5602         63
  18.5973         59
  18.6345         66
  18.6716         67
  18.7088         44
  18.7459         51
  18.7831         64
  18.8202         67
  18.8574         60
  18.8945         72
  18.9317         67
  18.9689         68
  19.0060         70
  19.0432         64
  19.0803         64
  19.1175         48
  19.1546         67
  19.1918         52
  19.2289         65
  19.2661         64
  19.3032         64
  19.3404         63
  19.3775         60
  19.4147         58
  19.4518         88
  19.4890         62
  19.5261         69
  19.5633         59
  19.6004         59
  19.6376         70
  19.6747         78
  19.7119         69
  19.7490         69
  19.7862         67
  19.8233         79
  19.8605         61
  19.8976         69
  19.9348         60
  19.9719         63
  20.0091         78
  20.0462         76
  20.0834         75
  20.1205         75
  20.1577         75
  20.1948         69
  20.2320         73
  20.2691         70
  20.3063         66
  20.3434         64
  20.3806         83
  20.4177         75
  20.4549         85
  20.4921         57
  20.5292         80
  20.5664         81
  20.6035         59
  20.6407         71
  20.6778         61
  20.7150         71
  20.7521         62
  20.7893         62
  20.8264         69
  20.8636         57
  20.9007         74
  20.9379         61
  20.9750         64
  21.0122         60
  21.0493         82
  21.0865         82
  21.1236         85
  21.1608         79
  21.1979        102
  21.2351        142
  21.2722        112
  21.3094        127
  21.3465        194
  21.3837        150
  21.4208        118
  21.4580        106
  21.4951         71
  21.5323         88
  21.5694         67
  21.6066         71
  21.6437         73
  21.6809         73
  21.7180         67
  21.7552         80
  21.7923         50
  21.8295         69
  21.8666         72
  21.9038         64
  21.9409         67
  21.9781         71
  22.0152         63
  22.0524         64
  22.0896         84
  22.1267         74
  22.1639         81
  22.2010         78
  22.2382         76
  22.2753         69
  22.3125         67
  22.3496         58
  22.3868         71
  22.4239         72
  22.4611         61
  22.4982         89
  22.5354         69
  22.5725         67
  22.6097         86
  22.6468         88
  22.6840         82
  22.7211         61
  22.7583         67
  22.7954         78
  22.8326         79
  22.8697         70
  22.9069         73
  22.9440         67
  22.9812         94
  23.0183         61
  23.0555         80
  23.0926         76
  23.1298         57
  23.1669         78
  23.2041         64
  23.2412         74
  23.2784         65
  23.3155         94
  23.3527         84
  23.3898         71
  23.4270         67
  23.4641         79
  23.5013         78
  23.5384         59
  23.5756         86
  23.6128         79
  23.6499         76
  23.6871         75
  23.7242         86
  23.7614         69
  23.7985         74
  23.8357         70
  23.8728         67
  23.9100         80
  23.9471         79
  23.9843         84
  24.0214         89
  24.0586         77
  24.0957         84
  24.1329         85
  24.1700         95
  24.2072         80
  24.2443         80
  24.2815         75
  24.3186         68
  24.3558         72
  24.3929         82
  24.4301         85
  24.4672         69
  24.5044         73
  24.5415         72
  24.5787         68
  24.6158         77
  24.6530         74
  24.6901         77
  24.7273         62
  24.7644         77
  24.8016         73
  24.8387         77
  24.8759         71
  24.9130         81
  24.9502         71
  24.9873         72
  25.0245         74
  25.0616         89
  25.0988         82
  25.1360         73
  25.1731         78
  25.2103         67
  25.2474         76
  25.2846         58
  25.3217         57
  25.3589         67
  25.3960         62
  25.4332         74
  25.4703         64
  25.5075         79
  25.5446         74
  25.5818         72
  25.6189         76
  25.6561         87
  25.6932         71
  25.7304         70
  25.7675         56
  25.8047         75
  25.8418         78
  25.8790         69
  25.9161         68
  25.9533         72
  25.9904         70
  26.0276         71
  26.0647         59
  26.1019         65
  26.1390         68
  26.1762         70
  26.2133         90
  26.2505         60
  26.2876         71
  26.3248         66
  26.3619         57
  26.3991         79
  26.4362         59
  26.4734         66
  26.5105         76
  26.5477         57
  26.5848         67
  26.6220         62
  26.6591         55
  26.6963         77
  26.7335         63
  26.7706         60
  26.8078         74
  26.8449         65
  26.8821         65
  26.9192         59
  26.9564         66
  26.9935         63
  27.0307         71
  27.0678         75
  27.1050         80
  27.1421         67
  27.1793         92
  27.2164        102
  27.2536         97
  27.2907         78
  27.3279         67
  27.3650         69
  27.4022         74
  27.4393         62
  27.4765         62
  27.5136         65
  27.5508         60
  27.5879         60
  27.6251         69
  27.6622         69
  27.6994         71
  27.7365         75
  27.7737         55
  27.8108         68
  27.8480         56
  27.8851         58
  27.9223         66
  27.9594         63
  27.9966         54
  28.0337         48
  28.0709         70
  28.1080         70
  28.1452         69
  28.1823         67
  28.2195         61
  28.2567         53
  28.2938         64
  28.3310         79
  28.3681         60
  28.4053         51
  28.4424         61
  28.4796         66
  28.5167         60
  28.5539         60
  28.5910         57
  28.6282         69
  28.6653         48
  28.7025         41
  28.7396         50
  28.7768         56
  28.8139         65
  28.8511         52
  28.8882         56
  28.9254         63
  28.9625         59
  28.9997         57
  29.0368         59
  29.0740         65
  29.1111         58
  29.1483         69
  29.1854         48
  29.2226         56
  29.2597         52
  29.2969         76
  29.3340         56
  29.3712         58
  29.4083         56
  29.4455         50
  29.4826         53
  29.5198         44
  29.5569         67
  29.5941         57
  29.6312         62
  29.6684         58
  29.7055         46
  29.7427         60
  29.7799         49
  29.8170         56
  29.8542         60
  29.8913         48
  29.9285         49
  29.9656         51
  30.0028         52
  30.0399         61
  30.0771         48
  30.1142         62
  30.1514         56
  30.1885         61
  30.2257         67
  30.2628         62
  30.3000         58
  30.3371         70
  30.3743        110
  30.4114         99
  30.4486         93
  30.4857         81
  30.5229         66
  30.5600         70
  30.5972         57
  30.6343         52
  30.6715         68
  30.7086         43
  30.7458         40
  30.7829         53
  30.8201         60
  30.8572         62
  30.8944         59
  30.9315         56
  30.9687         48
  31.0058         61
  31.0430         53
  31.0801         57
  31.1173         49
  31.1544         44
  31.1916         40
  31.2287         50
  31.2659         44
  31.3030         41
  31.3402         52
  31.3774         60
  31.4145         60
  31.4517         50
  31.4888         52
  31.5260         53
  31.5631         59
  31.6003         40
  31.6374         47
  31.6746         56
  31.7117         46
  31.7489         49
  31.7860         34
  31.8232         55
  31.8603         66
  31.8975         51
  31.9346         72
  31.9718         36
  32.0089         53
  32.0461         39
  32.0832         55
  32.1204         44
  32.1575         48
  32.1947         49
  32.2318         48
  32.2690         51
  32.3061         40
  32.3433         41
  32.3804         56
  32.4176         50
  32.4547         52
  32.4919         57
  32.5290         60
  32.5662         55
  32.6033         57
  32.6405         45
  32.6776         49
  32.7148         49
  32.7519         55
  32.7891         49
  32.8262         47
  32.8634         41
  32.9006         37
  32.9377         39
  32.9749         44
  33.0120         35
  33.0492         46
  33.0863         60
  33.1235         37
  33.1606         54
  33.1978         48
  33.2349         46
  33.2721         57
  33.3092         45
  33.3464         45
  33.3835         49
  33.4207         46
  33.4578         39
  33.4950         33
  33.5321         53
  33.5693         44
  33.6064         42
  33.6436         38
  33.6807         33
  33.7179         38
  33.7550         49
  33.7922         46
  33.8293         43
  33.8665         47
  33.9036         39
  33.9408         44
  33.9779         39
  34.0151         44
  34.0522         31
  34.0894         44
  34.1265         42
  34.1637         40
  34.2008         40
  34.2380         32
  34.2751         33
  34.3123         27
  34.3494         44
  34.3866         46
  34.4238         45
  34.4609         55
  34.4981         41
  34.5352         46
  34.5724         39
  34.6095         52
  34.6467         49
  34.6838         51
  34.7210         59
  34.7581         71
  34.7953         49
  34.8324         51
  34.8696         45
  34.9067         38
  34.9439         39
  34.9810         36
  35.0182         34
  35.0553         32
  35.0925         29
  35.1296         34
  35.1668         45
  35.2039         39
  35.2411         38
  35.2782         44
  35.3154         38
  35.3525         37
  35.3897         43
  35.4268         45
  35.4640         36
  35.5011         47
  35.5383         43
  35.5754         46
  35.6126         40
  35.6497         37
  35.6869         36
  35.7240         17
  35.7612         37
  35.7983         39
  35.8355         28
  35.8726         37
  35.9098         32
  35.9469         49
  35.9841         31
  36.0213         32
  36.0584         31
  36.0956         38
  36.1327         53
  36.1699         27
  36.2070         40
  36.2442         40
  36.2813         33
  36.3185         31
  36.3556         34
  36.3928         34
  36.4299         37
  36.4671         37
  36.5042         24
  36.5414         40
  36.5785         29
  36.6157         55
  36.6528         36
  36.6900         22
  36.7271         27
  36.7643         37
  36.8014         43
  36.8386         28
  36.8757         34
  36.9129         44
  36.9500         30
  36.9872         43
  37.0243         37
  37.0615         31
  37.0986         41
  37.1358         38
  37.1729         25
  37.2101         36
  37.2472         39
  37.2844         37
  37.3215         42
  37.3587         40
  37.3958         37
  37.4330         44
  37.4701         40
  37.5073         39
  37.5445         45
  37.5816         41
  37.6188         35
  37.6559         30
  37.6931         30
  37.7302         30
  37.7674         34
  37.8045         29
  37.8417         40
  37.8788         24
  37.9160         47
  37.9531         26
  37.9903         36
  38.0274         33
  38.0646         33
  38.1017         34
  38.1389         35
  38.1760         32
  38.2132         24
  38.2503         41
  38.2875         33
  38.3246         25
  38.3618         38
  38.3989         30
  38.4361         34
  38.4732         31
  38.5104         35
  38.5475         21
  38.5847         37
  38.6218         33
  38.6590         31
  38.6961         28
  38.7333         32
  38.7704         27
  38.8076         28
  38.8447         22
  38.8819         45
  38.9190         42
  38.9562         33
  38.9933         38
  39.0305         29
  39.0677         32
  39.1048         31
  39.1420         33
  39.1791         22
  39.2163         29
  39.2534         33
  39.2906         25
  39.3277         34
  39.3649         25
  39.4020         31
  39.4392         24
  39.4763         28
  39.5135         33
  39.5506         28
  39.5878         32
  39.6249         31
  39.6621         35
  39.6992         34
  39.7364         23
  39.7735         27
  39.8107         36
  39.8478         41
  39.8850         34
  39.9221         38
  39.9593         33
  39.9964         22
  40.0336         30
  40.0707         35
  40.1079         30
  40.1450         34
  40.1822         34
  40.2193         33
  40.2565         23
  40.2936         22
  40.3308         28
  40.3679         34
  40.4051         36
  40.4422         26
  40.4794         32
  40.5165         35
  40.5537         20
  40.5908         16
  40.6280         29
  40.6652         38
  40.7023         24
  40.7395         28
  40.7766         20
  40.8138         29
  40.8509         25
  40.8881         26
  40.9252         22
  40.9624         34
  40.9995         31
  41.0367         25
  41.0738         27
  41.1110         31
  41.1481         29
  41.1853         37
  41.2224         26
  41.2596         34
  41.2967         37
  41.3339         32
  41.3710         25
  41.4082         27
  41.4453         22
  41.4825         28
  41.5196         21
  41.5568         24
  41.5939         22
  41.6311         32
  41.6682         30
  41.7054         19
  41.7425         26
  41.7797         22
  41.8168         24
  41.8540         31
  41.8911         26
  41.9283         29
  41.9654         24
  42.0026         39
  42.0397         19
  42.0769         31
  42.1140         24
  42.1512         36
  42.1884         26
  42.2255         30
  42.2627         35
  42.2998         26
  42.3370         33
  42.3741         30
  42.4113         20
  42.4484         32
  42.4856         22
  42.5227         33
  42.5599         32
  42.5970         32
  42.6342         33
  42.6713         18
  42.7085         27
  42.7456         28
  42.7828         20
  42.8199         22
  42.8571         29
  42.8942         31
  42.9314         19
  42.9685         23
  43.0057         35
  43.0428         27
  43.0800         30
  43.1171         33
  43.1543         27
  43.1914         26
  43.2286         28
  43.2657         35
  43.3029         28
  43.3400         31
  43.3772         38
  43.4143         31
  43.4515         40
  43.4886         48
  43.5258         42
  43.5629         27
  43.6001         52
  43.6372         34
  43.6744         21
  43.7116         31
  43.7487         30
  43.7859         22
  43.8230         23
  43.8602         22
  43.8973         24
  43.9345         25
  43.9716         24
  44.0088         29
  44.0459         26
  44.0831         17
  44.1202         29
  44.1574         18
  44.1945         31
  44.2317         30
  44.2688         28
  44.3060         29
  44.3431         38
  44.3803         20
  44.4174         30
  44.4546         27
  44.4917         24
  44.5289         31
  44.5660         39
  44.6032         22
  44.6403         26
  44.6775         30
  44.7146         27
  44.7518         30
  44.7889         22
  44.8261         30
  44.8632         27
  44.9004         29
  44.9375         30
  44.9747         21
  45.0118         25
  45.0490         28
  45.0861         24
  45.1233         21
  45.1604         21
  45.1976         28
  45.2347         28
  45.2719         24
  45.3091         28
  45.3462         28
  45.3834         21
  45.4205         20
  45.4577         25
  45.4948         20
  45.5320         26
  45.5691         21
  45.6063         28
  45.6434         32
  45.6806         23
  45.7177         28
  45.7549         29
  45.7920         22
  45.8292         21
  45.8663         29
  45.9035         22
  45.9406         21
  45.9778         20
  46.0149         31
  46.0521         27
  46.0892         25
  46.1264         23
  46.1635         24
  46.2007         23
  46.2378         11
  46.2750         26
  46.3121         35
  46.3493         21
  46.3864         20
  46.4236         37
  46.4607         21
  46.4979         24
  46.5350         23
  46.5722         25
  46.6093         17
  46.6465         22
  46.6836         19
  46.7208         25
  46.7579         25
  46.7951         22
  46.8323         30
  46.8694         26
  46.9066         26
  46.9437         21
  46.9809         28
  47.0180         18
  47.0552         27
  47.0923         22
  47.1295         21
  47.1666         25
  47.2038         21
  47.2409         27
  47.2781         18
  47.3152         22
  47.3524         29
  47.3895         21
  47.4267         22
  47.4638         20
  47.5010         20
  47.5381         26
  47.5753         17
  47.6124         24
  47.6496         31
  47.6867         27
  47.7239         23
  47.7610         18
  47.7982         24
  47.8353         19
  47.8725         37
  47.9096         19
  47.9468         30
  47.9839         21
  48.0211         13
  48.0582         27
  48.0954         21
  48.1325         22
  48.1697         29
  48.2068         15
  48.2440         23
  48.2811         27
  48.3183         25
  48.3555         23
  48.3926         14
  48.4298         33
  48.4669         29
  48.5041         27
  48.5412         21
  48.5784         24
  48.6155         28
  48.6527         20
  48.6898         28
  48.7270         30
  48.7641         25
  48.8013         23
  48.8384         19
  48.8756         29
  48.9127         29
  48.9499         50
  48.9870         41
  49.0242         33
  49.0613         27
  49.0985         33
  49.1356         22
  49.1728         18
  49.2099         29
  49.2471         30
  49.2842         21
  49.3214         24
  49.3585         25
  49.3957         19
  49.4328         19
  49.4700         22
  49.5071         23
  49.5443         28
  49.5814         22
  49.6186         23
  49.6557         24
  49.6929         21
  49.7300         18
  49.7672         22
  49.8043         18
  49.8415         17
  49.8786         21
  49.9158         19
  49.9530         20
  49.9901         27
  50.0273         15
  50.0644         19
  50.1016         17
  50.1387         22
  50.1759         33
  50.2130         26
  50.2502         27
  50.2873         36
  50.3245         20
  50.3616         12
  50.3988         24
  50.4359         25
  50.4731         24
  50.5102         23
  50.5474         18
  50.5845         31
  50.6217         26
  50.6588         17
  50.6960         23
  50.7331         15
  50.7703         31
  50.8074         19
  50.8446         21
  50.8817         25
  50.9189         25
  50.9560         24
  50.9932         18
  51.0303         17
  51.0675         31
  51.1046         24
  51.1418         23
  51.1789         21
  51.2161         24
  51.2532         21
  51.2904         20
  51.3275         13
  51.3647         18
  51.4018         23
  51.4390         23
  51.4762         19
  51.5133         23
  51.5505         24
  51.5876         18
  51.6248         24
  51.6619         23
  51.6991         19
  51.7362         25
  51.7734         20
  51.8105         22
  51.8477         23
  51.8848         26
  51.9220         25
  51.9591         17
  51.9963         24
  52.0334         22
  52.0706         18
  52.1077         29
  52.1449         15
  52.1820         21
  52.2192         20
  52.2563         24
  52.2935         20
  52.3306         20
  52.3678         25
  52.4049         20
  52.4421         22
  52.4792         25
  52.5164         19
  52.5535         20
  52.5907         21
  52.6278         17
  52.6650         17
  52.7021         21
  52.7393         25
  52.7764         22
  52.8136         23
  52.8507         12
  52.8879         15
  52.9250         25
  52.9622         21
  52.9994         18
  53.0365         24
  53.0737         25
  53.1108         16
  53.1480         29
  53.1851         16
  53.2223         19
  53.2594         33
  53.2966         25
  53.3337         17
  53.3709         27
  53.4080         35
  53.4452         16
  53.4823         16
  53.5195         12
  53.5566         22
  53.5938         18
  53.6309         27
  53.6681         15
  53.7052         20
  53.7424         15
  53.7795         19
  53.8167         24
  53.8538         20
  53.8910         27
  53.9281         26
  53.9653         25
  54.0024         27
  54.0396         22
  54.0767         28
  54.1139         37
  54.1510         22
  54.1882         27
  54.2253         17
  54.2625         19
  54.2996         17
  54.3368         18
  54.3739         23
  54.4111         29
  54.4482         22
  54.4854         24
  54.5225         18
  54.5597         17
  54.5969         20
  54.6340         24
  54.6712         19
  54.7083         12
  54.7455         18
  54.7826         19
  54.8198         22
  54.8569         27
  54.8941         25
  54.9312         22
  54.9684         26
  55.0055         21
  55.0427         19
  55.0798         20
  55.1170         32
  55.1541         21
  55.1913         15
  55.2284         25
  55.2656         14
  55.3027         19
  55.3399         23
  55.3770         16
  55.4142         23
  55.4513         23
  55.4885         22
  55.5256         14
  55.5628         18
  55.5999         25
  55.6371         26
  55.6742         19
  55.7114         19
  55.7485         27
  55.7857         22
  55.8228         20
  55.8600         20
  55.8971         22
  55.9343         25
  55.9714         20
  56.0086         19
  56.0457         25
  56.0829         19
  56.1201         25
  56.1572         27
  56.1944         22
  56.2315         19
  56.2687         27
  56.3058         27
  56.3430         24
  56.3801         32
  56.4173         18
  56.4544         19
  56.4916         23
  56.5287         17
  56.5659         20
  56.6030         18
  56.6402         30
  56.6773         19
  56.7145         22
  56.7516         20
  56.7888         18
  56.8259         17
  56.8631         15
  56.9002         19
  56.9374         23
  56.9745         21
  57.0117         26
  57.0488         18
  57.0860         19
  57.1231         22
  57.1603         13
  57.1974         25
  57.2346         17
  57.2717         22
  57.3089         21
  57.3460         22
  57.3832         22
  57.4203         24
  57.4575         16
  57.4946         16
  57.5318         16
  57.5689         24
  57.6061         18
  57.6433         15
  57.6804         23
  57.7176         21
  57.7547         21
  57.7919         24
  57.8290         26
  57.8662         23
  57.9033         21
  57.9405         17
  57.9776         17
  58.0148         22
  58.0519         22
  58.0891         25
  58.1262         19
  58.1634         21
  58.2005         16
  58.2377         17
  58.2748         14
  58.3120         18
  58.3491         12
  58.3863         23
  58.4234         14
  58.4606         24
  58.4977         16
  58.5349         24
  58.5720         14
  58.6092         15
  58.6463         23
  58.6835         20
  58.7206         21
  58.7578         21
  58.7949         18
  58.8321         15
  58.8692         20
  58.9064         19
  58.9435         20
  58.9807         20
  59.0178         25
  59.0550         20
  59.0921         23
  59.1293         26
  59.1664         35
  59.2036         24
  59.2408         23
  59.2779         24
  59.3151         15
  59.3522         17
  59.3894         18
  59.4265         17
  59.4637         15
  59.5008         17
  59.5380         11
  59.5751         12
  59.6123         23
  59.6494         23
  59.6866         21
  59.7237         21
  59.7609         15
  59.7980         15
  59.8352         14
  59.8723         13
  59.9095         26
  59.9466         20
  59.9838         22
  60.0024         19