File: notebooks/data/xrd_data/ML_20220720_3_SJD_4_LaB6-1min.csv
;,2THETA,
5.0000,98
5.0372,91
5.0743,104
5.1115,99
5.1486,91
5.1858,78
5.2229,92
5.2601,81
5.2972,96
5.3344,86
5.3715,76
5.4087,89
5.4458,85
5.4830,77
5.5201,75
5.5573,74
5.5944,78
5.6316,74
5.6687,62
5.7059,78
5.7430,70
5.7802,65
5.8173,70
5.8545,74
5.8916,64
5.9288,73
5.9659,56
6.0031,73
6.0402,59
6.0774,65
6.1145,59
6.1517,69
6.1888,67
6.2260,68
6.2631,72
6.3003,65
6.3374,61
6.3746,65
6.4117,63
6.4489,69
6.4860,71
6.5232,65
6.5604,65
6.5975,64
6.6347,57
6.6718,51
6.7090,56
6.7461,53
6.7833,69
6.8204,64
6.8576,65
6.8947,63
6.9319,82
6.9690,60
7.0062,53
7.0433,60
7.0805,54
7.1176,59
7.1548,53
7.1919,54
7.2291,50
7.2662,51
7.3034,56
7.3405,47
7.3777,70
7.4148,57
7.4520,59
7.4891,58
7.5263,46
7.5634,56
7.6006,52
7.6377,80
7.6749,61
7.7120,64
7.7492,69
7.7863,68
7.8235,61
7.8606,91
7.8978,80
7.9349,52
7.9721,64
8.0092,50
8.0464,59
8.0835,72
8.1207,48
8.1579,63
8.1950,71
8.2322,59
8.2693,69
8.3065,64
8.3436,68
8.3808,64
8.4179,74
8.4551,75
8.4922,81
8.5294,93
8.5665,74
8.6037,82
8.6408,65
8.6780,75
8.7151,63
8.7523,64
8.7894,67
8.8266,61
8.8637,79
8.9009,82
8.9380,80
8.9752,87
9.0123,82
9.0495,76
9.0866,73
9.1238,64
9.1609,68
9.1981,96
9.2352,78
9.2724,77
9.3095,66
9.3467,82
9.3838,92
9.4210,97
9.4581,80
9.4953,82
9.5324,65
9.5696,71
9.6067,71
9.6439,87
9.6811,86
9.7182,69
9.7554,74
9.7925,67
9.8297,65
9.8668,92
9.9040,88
9.9411,77
9.9783,74
10.0154,69
10.0526,67
10.0897,93
10.1269,84
10.1640,88
10.2012,80
10.2383,82
10.2755,91
10.3126,90
10.3498,91
10.3869,89
10.4241,76
10.4612,77
10.4984,76
10.5355,62
10.5727,82
10.6098,81
10.6470,86
10.6841,74
10.7213,94
10.7584,95
10.7956,75
10.8327,90
10.8699,92
10.9070,84
10.9442,74
10.9813,74
11.0185,86
11.0556,75
11.0928,82
11.1299,87
11.1671,115
11.2043,82
11.2414,76
11.2786,78
11.3157,99
11.3529,77
11.3900,87
11.4272,69
11.4643,87
11.5015,83
11.5386,68
11.5758,83
11.6129,65
11.6501,84
11.6872,99
11.7244,80
11.7615,94
11.7987,83
11.8358,89
11.8730,84
11.9101,65
11.9473,90
11.9844,79
12.0216,79
12.0587,65
12.0959,90
12.1330,76
12.1702,90
12.2073,65
12.2445,74
12.2816,67
12.3188,61
12.3559,82
12.3931,64
12.4302,71
12.4674,83
12.5045,77
12.5417,82
12.5788,74
12.6160,88
12.6531,69
12.6903,94
12.7274,74
12.7646,65
12.8018,78
12.8389,57
12.8761,68
12.9132,69
12.9504,80
12.9875,69
13.0247,75
13.0618,67
13.0990,84
13.1361,70
13.1733,78
13.2104,63
13.2476,86
13.2847,61
13.3219,62
13.3590,70
13.3962,72
13.4333,78
13.4705,62
13.5076,72
13.5448,56
13.5819,68
13.6191,60
13.6562,75
13.6934,79
13.7305,56
13.7677,77
13.8048,65
13.8420,66
13.8791,59
13.9163,76
13.9534,66
13.9906,55
14.0277,57
14.0649,68
14.1020,78
14.1392,61
14.1763,67
14.2135,58
14.2506,66
14.2878,75
14.3250,69
14.3621,82
14.3993,52
14.4364,49
14.4736,74
14.5107,70
14.5479,70
14.5850,46
14.6222,67
14.6593,49
14.6965,57
14.7336,46
14.7708,59
14.8079,58
14.8451,64
14.8822,64
14.9194,52
14.9565,67
14.9937,52
15.0308,62
15.0680,70
15.1051,50
15.1423,69
15.1794,46
15.2166,73
15.2537,85
15.2909,49
15.3280,59
15.3652,56
15.4023,65
15.4395,65
15.4766,65
15.5138,57
15.5509,67
15.5881,75
15.6252,58
15.6624,75
15.6995,56
15.7367,52
15.7738,56
15.8110,59
15.8482,68
15.8853,58
15.9225,62
15.9596,56
15.9968,72
16.0339,49
16.0711,60
16.1082,67
16.1454,50
16.1825,60
16.2197,68
16.2568,61
16.2940,56
16.3311,54
16.3683,65
16.4054,50
16.4426,65
16.4797,61
16.5169,52
16.5540,41
16.5912,55
16.6283,73
16.6655,56
16.7026,58
16.7398,49
16.7769,56
16.8141,51
16.8512,55
16.8884,42
16.9255,60
16.9627,47
16.9998,52
17.0370,56
17.0741,65
17.1113,72
17.1484,49
17.1856,64
17.2227,65
17.2599,60
17.2970,69
17.3342,42
17.3713,68
17.4085,61
17.4457,65
17.4828,61
17.5200,55
17.5571,53
17.5943,66
17.6314,67
17.6686,56
17.7057,81
17.7429,59
17.7800,45
17.8172,49
17.8543,61
17.8915,46
17.9286,60
17.9658,62
18.0029,51
18.0401,56
18.0772,53
18.1144,54
18.1515,68
18.1887,67
18.2258,53
18.2630,52
18.3001,55
18.3373,53
18.3744,69
18.4116,60
18.4487,71
18.4859,61
18.5230,56
18.5602,51
18.5973,46
18.6345,68
18.6716,68
18.7088,55
18.7459,69
18.7831,64
18.8202,59
18.8574,47
18.8945,71
18.9317,73
18.9689,62
19.0060,52
19.0432,58
19.0803,67
19.1175,71
19.1546,63
19.1918,38
19.2289,58
19.2661,77
19.3032,50
19.3404,68
19.3775,53
19.4147,68
19.4518,57
19.4890,73
19.5261,64
19.5633,69
19.6004,60
19.6376,56
19.6747,62
19.7119,67
19.7490,62
19.7862,79
19.8233,74
19.8605,74
19.8976,53
19.9348,71
19.9719,57
20.0091,56
20.0462,65
20.0834,58
20.1205,56
20.1577,63
20.1948,61
20.2320,64
20.2691,58
20.3063,85
20.3434,66
20.3806,57
20.4177,62
20.4549,60
20.4921,77
20.5292,87
20.5664,69
20.6035,80
20.6407,65
20.6778,65
20.7150,62
20.7521,68
20.7893,74
20.8264,70
20.8636,74
20.9007,50
20.9379,75
20.9750,69
21.0122,75
21.0493,64
21.0865,80
21.1236,78
21.1608,105
21.1979,112
21.2351,118
21.2722,127
21.3094,157
21.3465,190
21.3837,125
21.4208,104
21.4580,71
21.4951,73
21.5323,66
21.5694,72
21.6066,72
21.6437,63
21.6809,69
21.7180,77
21.7552,82
21.7923,68
21.8295,73
21.8666,64
21.9038,66
21.9409,79
21.9781,63
22.0152,57
22.0524,73
22.0896,73
22.1267,70
22.1639,87
22.2010,58
22.2382,67
22.2753,82
22.3125,74
22.3496,68
22.3868,60
22.4239,65
22.4611,78
22.4982,81
22.5354,79
22.5725,65
22.6097,67
22.6468,74
22.6840,60
22.7211,73
22.7583,74
22.7954,74
22.8326,79
22.8697,67
22.9069,72
22.9440,67
22.9812,60
23.0183,80
23.0555,67
23.0926,81
23.1298,64
23.1669,61
23.2041,73
23.2412,71
23.2784,86
23.3155,75
23.3527,62
23.3898,98
23.4270,64
23.4641,68
23.5013,60
23.5384,69
23.5756,76
23.6128,74
23.6499,89
23.6871,71
23.7242,78
23.7614,66
23.7985,63
23.8357,80
23.8728,81
23.9100,93
23.9471,82
23.9843,64
24.0214,63
24.0586,75
24.0957,64
24.1329,64
24.1700,63
24.2072,80
24.2443,75
24.2815,93
24.3186,77
24.3558,73
24.3929,71
24.4301,80
24.4672,65
24.5044,59
24.5415,78
24.5787,93
24.6158,68
24.6530,73
24.6901,83
24.7273,64
24.7644,71
24.8016,72
24.8387,72
24.8759,62
24.9130,74
24.9502,74
24.9873,77
25.0245,75
25.0616,79
25.0988,61
25.1360,64
25.1731,74
25.2103,65
25.2474,56
25.2846,78
25.3217,72
25.3589,74
25.3960,57
25.4332,63
25.4703,71
25.5075,72
25.5446,75
25.5818,74
25.6189,74
25.6561,79
25.6932,62
25.7304,80
25.7675,60
25.8047,73
25.8418,67
25.8790,59
25.9161,73
25.9533,76
25.9904,80
26.0276,60
26.0647,66
26.1019,84
26.1390,64
26.1762,73
26.2133,65
26.2505,83
26.2876,57
26.3248,64
26.3619,59
26.3991,67
26.4362,67
26.4734,79
26.5105,68
26.5477,66
26.5848,63
26.6220,72
26.6591,69
26.6963,78
26.7335,71
26.7706,53
26.8078,66
26.8449,85
26.8821,64
26.9192,65
26.9564,78
26.9935,59
27.0307,76
27.0678,64
27.1050,86
27.1421,80
27.1793,80
27.2164,81
27.2536,74
27.2907,92
27.3279,55
27.3650,70
27.4022,70
27.4393,71
27.4765,70
27.5136,80
27.5508,53
27.5879,57
27.6251,60
27.6622,67
27.6994,83
27.7365,55
27.7737,58
27.8108,72
27.8480,54
27.8851,49
27.9223,68
27.9594,77
27.9966,53
28.0337,66
28.0709,58
28.1080,80
28.1452,53
28.1823,62
28.2195,60
28.2567,70
28.2938,67
28.3310,60
28.3681,73
28.4053,58
28.4424,76
28.4796,57
28.5167,54
28.5539,56
28.5910,66
28.6282,60
28.6653,54
28.7025,55
28.7396,69
28.7768,50
28.8139,51
28.8511,66
28.8882,64
28.9254,67
28.9625,51
28.9997,52
29.0368,51
29.0740,62
29.1111,53
29.1483,46
29.1854,50
29.2226,66
29.2597,64
29.2969,64
29.3340,62
29.3712,62
29.4083,50
29.4455,58
29.4826,69
29.5198,45
29.5569,66
29.5941,44
29.6312,57
29.6684,51
29.7055,54
29.7427,55
29.7799,52
29.8170,49
29.8542,62
29.8913,54
29.9285,63
29.9656,44
30.0028,49
30.0399,53
30.0771,44
30.1142,58
30.1514,64
30.1885,44
30.2257,54
30.2628,44
30.3000,60
30.3371,96
30.3743,123
30.4114,87
30.4486,97
30.4857,67
30.5229,57
30.5600,55
30.5972,62
30.6343,52
30.6715,55
30.7086,75
30.7458,52
30.7829,48
30.8201,71
30.8572,49
30.8944,68
30.9315,42
30.9687,51
31.0058,51
31.0430,46
31.0801,52
31.1173,46
31.1544,55
31.1916,57
31.2287,44
31.2659,56
31.3030,59
31.3402,53
31.3774,48
31.4145,60
31.4517,50
31.4888,53
31.5260,51
31.5631,43
31.6003,42
31.6374,49
31.6746,56
31.7117,39
31.7489,59
31.7860,36
31.8232,49
31.8603,50
31.8975,46
31.9346,53
31.9718,44
32.0089,44
32.0461,49
32.0832,56
32.1204,41
32.1575,53
32.1947,51
32.2318,56
32.2690,44
32.3061,35
32.3433,51
32.3804,50
32.4176,58
32.4547,47
32.4919,40
32.5290,60
32.5662,58
32.6033,50
32.6405,48
32.6776,47
32.7148,40
32.7519,59
32.7891,42
32.8262,50
32.8634,43
32.9006,45
32.9377,40
32.9749,48
33.0120,51
33.0492,52
33.0863,47
33.1235,63
33.1606,45
33.1978,34
33.2349,45
33.2721,45
33.3092,52
33.3464,46
33.3835,37
33.4207,42
33.4578,51
33.4950,36
33.5321,45
33.5693,42
33.6064,42
33.6436,39
33.6807,39
33.7179,40
33.7550,44
33.7922,51
33.8293,34
33.8665,45
33.9036,52
33.9408,43
33.9779,41
34.0151,39
34.0522,50
34.0894,39
34.1265,37
34.1637,53
34.2008,46
34.2380,39
34.2751,42
34.3123,44
34.3494,42
34.3866,40
34.4238,37
34.4609,44
34.4981,38
34.5352,54
34.5724,50
34.6095,42
34.6467,44
34.6838,47
34.7210,60
34.7581,53
34.7953,58
34.8324,42
34.8696,46
34.9067,42
34.9439,37
34.9810,43
35.0182,32
35.0553,31
35.0925,36
35.1296,47
35.1668,33
35.2039,37
35.2411,36
35.2782,31
35.3154,44
35.3525,39
35.3897,42
35.4268,45
35.4640,38
35.5011,30
35.5383,35
35.5754,43
35.6126,31
35.6497,44
35.6869,33
35.7240,43
35.7612,46
35.7983,40
35.8355,34
35.8726,43
35.9098,43
35.9469,34
35.9841,25
36.0213,38
36.0584,40
36.0956,49
36.1327,38
36.1699,25
36.2070,28
36.2442,37
36.2813,31
36.3185,41
36.3556,37
36.3928,33
36.4299,50
36.4671,40
36.5042,29
36.5414,34
36.5785,35
36.6157,33
36.6528,31
36.6900,39
36.7271,29
36.7643,23
36.8014,25
36.8386,25
36.8757,27
36.9129,39
36.9500,36
36.9872,35
37.0243,24
37.0615,33
37.0986,36
37.1358,37
37.1729,26
37.2101,33
37.2472,30
37.2844,40
37.3215,31
37.3587,31
37.3958,43
37.4330,52
37.4701,44
37.5073,44
37.5445,31
37.5816,40
37.6188,34
37.6559,31
37.6931,39
37.7302,28
37.7674,42
37.8045,38
37.8417,25
37.8788,38
37.9160,26
37.9531,32
37.9903,38
38.0274,21
38.0646,42
38.1017,31
38.1389,25
38.1760,44
38.2132,29
38.2503,22
38.2875,32
38.3246,27
38.3618,31
38.3989,25
38.4361,35
38.4732,31
38.5104,29
38.5475,35
38.5847,39
38.6218,34
38.6590,25
38.6961,33
38.7333,43
38.7704,25
38.8076,25
38.8447,29
38.8819,24
38.9190,32
38.9562,27
38.9933,30
39.0305,31
39.0677,23
39.1048,19
39.1420,26
39.1791,28
39.2163,27
39.2534,25
39.2906,30
39.3277,25
39.3649,23
39.4020,27
39.4392,39
39.4763,18
39.5135,28
39.5506,24
39.5878,24
39.6249,27
39.6621,23
39.6992,29
39.7364,30
39.7735,28
39.8107,37
39.8478,33
39.8850,44
39.9221,21
39.9593,36
39.9964,26
40.0336,27
40.0707,22
40.1079,27
40.1450,22
40.1822,32
40.2193,30
40.2565,36
40.2936,39
40.3308,25
40.3679,22
40.4051,31
40.4422,24
40.4794,29
40.5165,24
40.5537,23
40.5908,32
40.6280,24
40.6652,27
40.7023,30
40.7395,29
40.7766,30
40.8138,33
40.8509,27
40.8881,33
40.9252,29
40.9624,33
40.9995,27
41.0367,34
41.0738,26
41.1110,33
41.1481,27
41.1853,27
41.2224,32
41.2596,31
41.2967,27
41.3339,26
41.3710,27
41.4082,38
41.4453,22
41.4825,27
41.5196,26
41.5568,20
41.5939,30
41.6311,29
41.6682,21
41.7054,33
41.7425,27
41.7797,19
41.8168,28
41.8540,34
41.8911,26
41.9283,30
41.9654,23
42.0026,35
42.0397,31
42.0769,28
42.1140,26
42.1512,23
42.1884,31
42.2255,28
42.2627,25
42.2998,37
42.3370,26
42.3741,17
42.4113,26
42.4484,31
42.4856,31
42.5227,25
42.5599,32
42.5970,26
42.6342,34
42.6713,19
42.7085,26
42.7456,26
42.7828,33
42.8199,25
42.8571,22
42.8942,29
42.9314,28
42.9685,23
43.0057,27
43.0428,28
43.0800,27
43.1171,25
43.1543,34
43.1914,25
43.2286,34
43.2657,31
43.3029,30
43.3400,36
43.3772,32
43.4143,32
43.4515,36
43.4886,58
43.5258,38
43.5629,41
43.6001,33
43.6372,26
43.6744,28
43.7116,36
43.7487,24
43.7859,20
43.8230,28
43.8602,20
43.8973,25
43.9345,29
43.9716,28
44.0088,19
44.0459,28
44.0831,39
44.1202,33
44.1574,31
44.1945,28
44.2317,27
44.2688,24
44.3060,27
44.3431,32
44.3803,31
44.4174,37
44.4546,17
44.4917,20
44.5289,25
44.5660,20
44.6032,32
44.6403,36
44.6775,29
44.7146,27
44.7518,32
44.7889,28
44.8261,33
44.8632,38
44.9004,32
44.9375,14
44.9747,23
45.0118,22
45.0490,31
45.0861,18
45.1233,27
45.1604,21
45.1976,26
45.2347,19
45.2719,22
45.3091,27
45.3462,25
45.3834,29
45.4205,19
45.4577,30
45.4948,30
45.5320,16
45.5691,20
45.6063,33
45.6434,20
45.6806,23
45.7177,25
45.7549,21
45.7920,34
45.8292,28
45.8663,19
45.9035,26
45.9406,21
45.9778,31
46.0149,32
46.0521,15
46.0892,31
46.1264,26
46.1635,13
46.2007,22
46.2378,26
46.2750,24
46.3121,28
46.3493,23
46.3864,18
46.4236,28
46.4607,23
46.4979,22
46.5350,28
46.5722,22
46.6093,14
46.6465,30
46.6836,21
46.7208,30
46.7579,22
46.7951,29
46.8323,21
46.8694,13
46.9066,34
46.9437,28
46.9809,26
47.0180,27
47.0552,24
47.0923,20
47.1295,20
47.1666,25
47.2038,24
47.2409,26
47.2781,19
47.3152,24
47.3524,25
47.3895,34
47.4267,31
47.4638,28
47.5010,22
47.5381,25
47.5753,18
47.6124,25
47.6496,23
47.6867,18
47.7239,21
47.7610,20
47.7982,28
47.8353,24
47.8725,23
47.9096,33
47.9468,24
47.9839,21
48.0211,12
48.0582,14
48.0954,32
48.1325,19
48.1697,21
48.2068,32
48.2440,22
48.2811,29
48.3183,24
48.3555,25
48.3926,25
48.4298,25
48.4669,22
48.5041,26
48.5412,20
48.5784,28
48.6155,26
48.6527,26
48.6898,22
48.7270,19
48.7641,31
48.8013,21
48.8384,26
48.8756,24
48.9127,29
48.9499,29
48.9870,23
49.0242,27
49.0613,36
49.0985,24
49.1356,20
49.1728,26
49.2099,27
49.2471,30
49.2842,19
49.3214,23
49.3585,19
49.3957,24
49.4328,28
49.4700,21
49.5071,19
49.5443,22
49.5814,20
49.6186,23
49.6557,15
49.6929,24
49.7300,22
49.7672,26
49.8043,20
49.8415,26
49.8786,31
49.9158,18
49.9530,27
49.9901,24
50.0273,22
50.0644,17
50.1016,19
50.1387,20
50.1759,22
50.2130,23
50.2502,24
50.2873,20
50.3245,29
50.3616,22
50.3988,29
50.4359,20
50.4731,23
50.5102,30
50.5474,27
50.5845,22
50.6217,31
50.6588,19
50.6960,19
50.7331,24
50.7703,25
50.8074,19
50.8446,18
50.8817,17
50.9189,28
50.9560,24
50.9932,25
51.0303,17
51.0675,15
51.1046,25
51.1418,19
51.1789,19
51.2161,30
51.2532,22
51.2904,25
51.3275,23
51.3647,29
51.4018,27
51.4390,32
51.4762,28
51.5133,17
51.5505,27
51.5876,26
51.6248,26
51.6619,38
51.6991,16
51.7362,12
51.7734,25
51.8105,29
51.8477,28
51.8848,25
51.9220,21
51.9591,24
51.9963,24
52.0334,29
52.0706,27
52.1077,22
52.1449,17
52.1820,13
52.2192,18
52.2563,27
52.2935,21
52.3306,20
52.3678,23
52.4049,32
52.4421,24
52.4792,16
52.5164,22
52.5535,18
52.5907,19
52.6278,17
52.6650,18
52.7021,32
52.7393,25
52.7764,21
52.8136,18
52.8507,21
52.8879,15
52.9250,21
52.9622,25
52.9994,31
53.0365,22
53.0737,15
53.1108,26
53.1480,23
53.1851,21
53.2223,24
53.2594,23
53.2966,23
53.3337,19
53.3709,26
53.4080,21
53.4452,13
53.4823,14
53.5195,30
53.5566,13
53.5938,17
53.6309,15
53.6681,26
53.7052,14
53.7424,24
53.7795,19
53.8167,19
53.8538,20
53.8910,23
53.9281,24
53.9653,26
54.0024,28
54.0396,18
54.0767,17
54.1139,22
54.1510,23
54.1882,31
54.2253,26
54.2625,20
54.2996,22
54.3368,26
54.3739,23
54.4111,17
54.4482,23
54.4854,20
54.5225,14
54.5597,25
54.5969,19
54.6340,21
54.6712,22
54.7083,19
54.7455,25
54.7826,23
54.8198,22
54.8569,23
54.8941,22
54.9312,17
54.9684,19
55.0055,24
55.0427,26
55.0798,14
55.1170,23
55.1541,30
55.1913,29
55.2284,19
55.2656,12
55.3027,23
55.3399,15
55.3770,19
55.4142,23
55.4513,21
55.4885,12
55.5256,19
55.5628,26
55.5999,19
55.6371,26
55.6742,14
55.7114,16
55.7485,29
55.7857,21
55.8228,20
55.8600,13
55.8971,30
55.9343,30
55.9714,24
56.0086,25
56.0457,22
56.0829,22
56.1201,24
56.1572,33
56.1944,30
56.2315,24
56.2687,21
56.3058,21
56.3430,29
56.3801,23
56.4173,23
56.4544,18
56.4916,20
56.5287,22
56.5659,22
56.6030,28
56.6402,22
56.6773,18
56.7145,23
56.7516,20
56.7888,15
56.8259,18
56.8631,16
56.9002,21
56.9374,22
56.9745,18
57.0117,22
57.0488,22
57.0860,20
57.1231,27
57.1603,24
57.1974,20
57.2346,12
57.2717,19
57.3089,14
57.3460,16
57.3832,21
57.4203,22
57.4575,24
57.4946,21
57.5318,19
57.5689,17
57.6061,18
57.6433,19
57.6804,26
57.7176,29
57.7547,22
57.7919,23
57.8290,20
57.8662,19
57.9033,16
57.9405,28
57.9776,28
58.0148,20
58.0519,13
58.0891,18
58.1262,18
58.1634,18
58.2005,27
58.2377,17
58.2748,24
58.3120,16
58.3491,22
58.3863,16
58.4234,20
58.4606,17
58.4977,18
58.5349,15
58.5720,20
58.6092,17
58.6463,13
58.6835,16
58.7206,17
58.7578,16
58.7949,20
58.8321,23
58.8692,15
58.9064,24
58.9435,16
58.9807,12
59.0178,21
59.0550,12
59.0921,20
59.1293,22
59.1664,18
59.2036,23
59.2408,23
59.2779,12
59.3151,20
59.3522,16
59.3894,20
59.4265,16
59.4637,18
59.5008,24
59.5380,22
59.5751,20
59.6123,17
59.6494,19
59.6866,22
59.7237,18
59.7609,16
59.7980,20
59.8352,11
59.8723,25
59.9095,16
59.9466,21
59.9838,12
60.0024,21