File: notebooks/data/xrd_data/ML_20220720_30_SJD_4_LaB6-1min.csv
;,2THETA,
5.0000,98
5.0372,89
5.0743,86
5.1115,88
5.1486,115
5.1858,105
5.2229,85
5.2601,77
5.2972,78
5.3344,81
5.3715,98
5.4087,86
5.4458,89
5.4830,68
5.5201,76
5.5573,80
5.5944,81
5.6316,86
5.6687,98
5.7059,79
5.7430,98
5.7802,84
5.8173,74
5.8545,68
5.8916,77
5.9288,64
5.9659,66
6.0031,73
6.0402,73
6.0774,72
6.1145,67
6.1517,62
6.1888,79
6.2260,63
6.2631,84
6.3003,51
6.3374,76
6.3746,72
6.4117,67
6.4489,72
6.4860,68
6.5232,80
6.5604,69
6.5975,55
6.6347,64
6.6718,56
6.7090,70
6.7461,54
6.7833,46
6.8204,56
6.8576,61
6.8947,61
6.9319,66
6.9690,65
7.0062,39
7.0433,70
7.0805,62
7.1176,54
7.1548,67
7.1919,66
7.2291,55
7.2662,63
7.3034,62
7.3405,57
7.3777,72
7.4148,56
7.4520,55
7.4891,60
7.5263,70
7.5634,62
7.6006,73
7.6377,74
7.6749,53
7.7120,56
7.7492,75
7.7863,75
7.8235,57
7.8606,82
7.8978,72
7.9349,78
7.9721,76
8.0092,77
8.0464,73
8.0835,56
8.1207,54
8.1579,70
8.1950,73
8.2322,88
8.2693,63
8.3065,72
8.3436,84
8.3808,80
8.4179,55
8.4551,60
8.4922,83
8.5294,53
8.5665,81
8.6037,89
8.6408,92
8.6780,72
8.7151,64
8.7523,81
8.7894,80
8.8266,72
8.8637,76
8.9009,74
8.9380,89
8.9752,57
9.0123,67
9.0495,74
9.0866,83
9.1238,84
9.1609,76
9.1981,68
9.2352,82
9.2724,88
9.3095,76
9.3467,90
9.3838,76
9.4210,97
9.4581,82
9.4953,86
9.5324,86
9.5696,71
9.6067,76
9.6439,74
9.6811,82
9.7182,92
9.7554,70
9.7925,102
9.8297,88
9.8668,94
9.9040,100
9.9411,97
9.9783,106
10.0154,95
10.0526,78
10.0897,98
10.1269,91
10.1640,60
10.2012,73
10.2383,100
10.2755,80
10.3126,90
10.3498,81
10.3869,94
10.4241,89
10.4612,86
10.4984,78
10.5355,89
10.5727,91
10.6098,119
10.6470,99
10.6841,84
10.7213,89
10.7584,93
10.7956,74
10.8327,91
10.8699,98
10.9070,90
10.9442,83
10.9813,73
11.0185,92
11.0556,87
11.0928,87
11.1299,94
11.1671,104
11.2043,89
11.2414,87
11.2786,105
11.3157,85
11.3529,87
11.3900,70
11.4272,97
11.4643,94
11.5015,79
11.5386,104
11.5758,89
11.6129,73
11.6501,91
11.6872,88
11.7244,82
11.7615,81
11.7987,88
11.8358,85
11.8730,78
11.9101,78
11.9473,91
11.9844,65
12.0216,83
12.0587,88
12.0959,84
12.1330,78
12.1702,82
12.2073,82
12.2445,72
12.2816,104
12.3188,82
12.3559,94
12.3931,86
12.4302,80
12.4674,78
12.5045,78
12.5417,82
12.5788,86
12.6160,71
12.6531,91
12.6903,74
12.7274,79
12.7646,82
12.8018,68
12.8389,86
12.8761,74
12.9132,77
12.9504,81
12.9875,76
13.0247,82
13.0618,73
13.0990,63
13.1361,70
13.1733,74
13.2104,75
13.2476,70
13.2847,84
13.3219,86
13.3590,70
13.3962,64
13.4333,77
13.4705,72
13.5076,62
13.5448,68
13.5819,66
13.6191,66
13.6562,71
13.6934,73
13.7305,76
13.7677,68
13.8048,58
13.8420,56
13.8791,74
13.9163,62
13.9534,72
13.9906,81
14.0277,73
14.0649,61
14.1020,76
14.1392,55
14.1763,64
14.2135,70
14.2506,61
14.2878,79
14.3250,64
14.3621,62
14.3993,69
14.4364,68
14.4736,68
14.5107,68
14.5479,66
14.5850,55
14.6222,65
14.6593,63
14.6965,63
14.7336,59
14.7708,63
14.8079,55
14.8451,57
14.8822,59
14.9194,70
14.9565,69
14.9937,80
15.0308,65
15.0680,58
15.1051,44
15.1423,66
15.1794,55
15.2166,48
15.2537,65
15.2909,58
15.3280,59
15.3652,73
15.4023,72
15.4395,70
15.4766,75
15.5138,61
15.5509,53
15.5881,73
15.6252,67
15.6624,59
15.6995,73
15.7367,57
15.7738,48
15.8110,61
15.8482,66
15.8853,66
15.9225,62
15.9596,57
15.9968,58
16.0339,48
16.0711,57
16.1082,43
16.1454,69
16.1825,63
16.2197,68
16.2568,75
16.2940,52
16.3311,64
16.3683,62
16.4054,59
16.4426,56
16.4797,62
16.5169,50
16.5540,67
16.5912,59
16.6283,72
16.6655,58
16.7026,59
16.7398,61
16.7769,55
16.8141,62
16.8512,54
16.8884,69
16.9255,57
16.9627,48
16.9998,70
17.0370,46
17.0741,60
17.1113,67
17.1484,57
17.1856,72
17.2227,68
17.2599,62
17.2970,54
17.3342,58
17.3713,62
17.4085,53
17.4457,70
17.4828,76
17.5200,64
17.5571,63
17.5943,62
17.6314,61
17.6686,56
17.7057,61
17.7429,43
17.7800,56
17.8172,62
17.8543,56
17.8915,53
17.9286,56
17.9658,59
18.0029,45
18.0401,73
18.0772,63
18.1144,70
18.1515,69
18.1887,60
18.2258,49
18.2630,70
18.3001,55
18.3373,65
18.3744,60
18.4116,55
18.4487,66
18.4859,48
18.5230,61
18.5602,52
18.5973,49
18.6345,68
18.6716,64
18.7088,57
18.7459,74
18.7831,60
18.8202,60
18.8574,72
18.8945,54
18.9317,46
18.9689,55
19.0060,61
19.0432,63
19.0803,73
19.1175,54
19.1546,71
19.1918,63
19.2289,73
19.2661,70
19.3032,61
19.3404,51
19.3775,59
19.4147,58
19.4518,64
19.4890,59
19.5261,71
19.5633,67
19.6004,69
19.6376,43
19.6747,63
19.7119,50
19.7490,71
19.7862,70
19.8233,68
19.8605,68
19.8976,77
19.9348,54
19.9719,85
20.0091,75
20.0462,63
20.0834,58
20.1205,62
20.1577,63
20.1948,79
20.2320,66
20.2691,72
20.3063,66
20.3434,57
20.3806,62
20.4177,68
20.4549,70
20.4921,73
20.5292,64
20.5664,73
20.6035,76
20.6407,63
20.6778,67
20.7150,73
20.7521,69
20.7893,74
20.8264,63
20.8636,87
20.9007,81
20.9379,61
20.9750,76
21.0122,71
21.0493,72
21.0865,81
21.1236,69
21.1608,73
21.1979,103
21.2351,119
21.2722,131
21.3094,114
21.3465,166
21.3837,144
21.4208,145
21.4580,86
21.4951,74
21.5323,72
21.5694,63
21.6066,81
21.6437,68
21.6809,76
21.7180,83
21.7552,74
21.7923,51
21.8295,68
21.8666,68
21.9038,80
21.9409,93
21.9781,62
22.0152,65
22.0524,66
22.0896,59
22.1267,45
22.1639,68
22.2010,70
22.2382,73
22.2753,87
22.3125,88
22.3496,64
22.3868,74
22.4239,82
22.4611,70
22.4982,73
22.5354,62
22.5725,91
22.6097,64
22.6468,76
22.6840,70
22.7211,73
22.7583,58
22.7954,74
22.8326,74
22.8697,70
22.9069,71
22.9440,64
22.9812,69
23.0183,59
23.0555,74
23.0926,62
23.1298,78
23.1669,71
23.2041,73
23.2412,66
23.2784,76
23.3155,77
23.3527,69
23.3898,98
23.4270,60
23.4641,75
23.5013,65
23.5384,76
23.5756,80
23.6128,89
23.6499,80
23.6871,66
23.7242,80
23.7614,84
23.7985,77
23.8357,95
23.8728,75
23.9100,76
23.9471,76
23.9843,71
24.0214,69
24.0586,65
24.0957,69
24.1329,80
24.1700,71
24.2072,92
24.2443,67
24.2815,102
24.3186,76
24.3558,83
24.3929,79
24.4301,78
24.4672,66
24.5044,71
24.5415,63
24.5787,68
24.6158,72
24.6530,71
24.6901,83
24.7273,71
24.7644,58
24.8016,72
24.8387,78
24.8759,86
24.9130,74
24.9502,67
24.9873,68
25.0245,61
25.0616,61
25.0988,60
25.1360,75
25.1731,81
25.2103,70
25.2474,57
25.2846,54
25.3217,74
25.3589,66
25.3960,88
25.4332,82
25.4703,68
25.5075,86
25.5446,73
25.5818,82
25.6189,76
25.6561,74
25.6932,59
25.7304,72
25.7675,63
25.8047,76
25.8418,59
25.8790,74
25.9161,76
25.9533,64
25.9904,97
26.0276,73
26.0647,60
26.1019,74
26.1390,64
26.1762,79
26.2133,74
26.2505,69
26.2876,63
26.3248,69
26.3619,58
26.3991,71
26.4362,70
26.4734,62
26.5105,65
26.5477,87
26.5848,70
26.6220,72
26.6591,74
26.6963,64
26.7335,70
26.7706,60
26.8078,67
26.8449,72
26.8821,60
26.9192,72
26.9564,60
26.9935,67
27.0307,72
27.0678,63
27.1050,74
27.1421,74
27.1793,73
27.2164,103
27.2536,87
27.2907,75
27.3279,65
27.3650,68
27.4022,76
27.4393,75
27.4765,66
27.5136,66
27.5508,62
27.5879,70
27.6251,60
27.6622,56
27.6994,66
27.7365,67
27.7737,67
27.8108,72
27.8480,66
27.8851,64
27.9223,55
27.9594,64
27.9966,63
28.0337,82
28.0709,71
28.1080,59
28.1452,61
28.1823,66
28.2195,53
28.2567,65
28.2938,68
28.3310,57
28.3681,49
28.4053,55
28.4424,51
28.4796,57
28.5167,49
28.5539,73
28.5910,62
28.6282,52
28.6653,48
28.7025,45
28.7396,62
28.7768,72
28.8139,64
28.8511,73
28.8882,56
28.9254,48
28.9625,61
28.9997,59
29.0368,60
29.0740,75
29.1111,67
29.1483,49
29.1854,56
29.2226,66
29.2597,71
29.2969,56
29.3340,59
29.3712,54
29.4083,67
29.4455,68
29.4826,51
29.5198,52
29.5569,51
29.5941,68
29.6312,48
29.6684,60
29.7055,56
29.7427,55
29.7799,52
29.8170,72
29.8542,63
29.8913,45
29.9285,54
29.9656,54
30.0028,57
30.0399,70
30.0771,57
30.1142,65
30.1514,57
30.1885,68
30.2257,73
30.2628,68
30.3000,66
30.3371,69
30.3743,116
30.4114,105
30.4486,86
30.4857,88
30.5229,65
30.5600,72
30.5972,60
30.6343,64
30.6715,50
30.7086,64
30.7458,49
30.7829,54
30.8201,52
30.8572,61
30.8944,50
30.9315,52
30.9687,48
31.0058,60
31.0430,53
31.0801,59
31.1173,56
31.1544,44
31.1916,61
31.2287,50
31.2659,50
31.3030,35
31.3402,54
31.3774,51
31.4145,51
31.4517,51
31.4888,55
31.5260,52
31.5631,51
31.6003,66
31.6374,56
31.6746,50
31.7117,39
31.7489,42
31.7860,57
31.8232,54
31.8603,52
31.8975,52
31.9346,43
31.9718,52
32.0089,54
32.0461,44
32.0832,59
32.1204,53
32.1575,49
32.1947,38
32.2318,44
32.2690,55
32.3061,56
32.3433,59
32.3804,45
32.4176,50
32.4547,53
32.4919,61
32.5290,63
32.5662,42
32.6033,42
32.6405,41
32.6776,41
32.7148,73
32.7519,40
32.7891,44
32.8262,54
32.8634,39
32.9006,32
32.9377,61
32.9749,38
33.0120,36
33.0492,55
33.0863,55
33.1235,42
33.1606,38
33.1978,50
33.2349,43
33.2721,52
33.3092,42
33.3464,50
33.3835,39
33.4207,43
33.4578,41
33.4950,41
33.5321,38
33.5693,51
33.6064,51
33.6436,43
33.6807,46
33.7179,50
33.7550,49
33.7922,37
33.8293,43
33.8665,39
33.9036,36
33.9408,49
33.9779,43
34.0151,39
34.0522,45
34.0894,41
34.1265,54
34.1637,34
34.2008,38
34.2380,31
34.2751,36
34.3123,42
34.3494,42
34.3866,42
34.4238,41
34.4609,33
34.4981,38
34.5352,41
34.5724,35
34.6095,60
34.6467,54
34.6838,47
34.7210,55
34.7581,59
34.7953,36
34.8324,59
34.8696,55
34.9067,45
34.9439,39
34.9810,47
35.0182,38
35.0553,48
35.0925,43
35.1296,37
35.1668,41
35.2039,35
35.2411,41
35.2782,29
35.3154,37
35.3525,50
35.3897,36
35.4268,37
35.4640,36
35.5011,41
35.5383,38
35.5754,50
35.6126,34
35.6497,35
35.6869,43
35.7240,33
35.7612,25
35.7983,46
35.8355,29
35.8726,31
35.9098,40
35.9469,32
35.9841,34
36.0213,45
36.0584,39
36.0956,25
36.1327,33
36.1699,36
36.2070,35
36.2442,21
36.2813,28
36.3185,31
36.3556,38
36.3928,39
36.4299,38
36.4671,47
36.5042,33
36.5414,42
36.5785,34
36.6157,38
36.6528,50
36.6900,32
36.7271,16
36.7643,26
36.8014,39
36.8386,36
36.8757,37
36.9129,41
36.9500,39
36.9872,36
37.0243,26
37.0615,29
37.0986,27
37.1358,30
37.1729,30
37.2101,28
37.2472,43
37.2844,40
37.3215,42
37.3587,46
37.3958,49
37.4330,72
37.4701,46
37.5073,34
37.5445,45
37.5816,43
37.6188,32
37.6559,40
37.6931,26
37.7302,29
37.7674,37
37.8045,30
37.8417,26
37.8788,34
37.9160,37
37.9531,34
37.9903,29
38.0274,28
38.0646,28
38.1017,26
38.1389,44
38.1760,26
38.2132,22
38.2503,32
38.2875,36
38.3246,25
38.3618,25
38.3989,27
38.4361,22
38.4732,30
38.5104,30
38.5475,30
38.5847,28
38.6218,28
38.6590,34
38.6961,34
38.7333,34
38.7704,41
38.8076,43
38.8447,26
38.8819,30
38.9190,25
38.9562,25
38.9933,31
39.0305,25
39.0677,34
39.1048,40
39.1420,29
39.1791,21
39.2163,34
39.2534,26
39.2906,30
39.3277,31
39.3649,27
39.4020,26
39.4392,21
39.4763,34
39.5135,24
39.5506,26
39.5878,30
39.6249,33
39.6621,33
39.6992,28
39.7364,26
39.7735,33
39.8107,17
39.8478,37
39.8850,27
39.9221,33
39.9593,32
39.9964,30
40.0336,29
40.0707,24
40.1079,22
40.1450,23
40.1822,35
40.2193,21
40.2565,23
40.2936,32
40.3308,33
40.3679,33
40.4051,20
40.4422,30
40.4794,25
40.5165,23
40.5537,26
40.5908,26
40.6280,22
40.6652,29
40.7023,20
40.7395,23
40.7766,38
40.8138,22
40.8509,33
40.8881,28
40.9252,28
40.9624,25
40.9995,41
41.0367,25
41.0738,28
41.1110,25
41.1481,24
41.1853,29
41.2224,26
41.2596,27
41.2967,27
41.3339,28
41.3710,20
41.4082,14
41.4453,23
41.4825,32
41.5196,29
41.5568,38
41.5939,29
41.6311,36
41.6682,28
41.7054,18
41.7425,38
41.7797,22
41.8168,35
41.8540,28
41.8911,34
41.9283,24
41.9654,24
42.0026,30
42.0397,30
42.0769,36
42.1140,23
42.1512,31
42.1884,21
42.2255,35
42.2627,24
42.2998,32
42.3370,29
42.3741,31
42.4113,31
42.4484,31
42.4856,34
42.5227,27
42.5599,31
42.5970,29
42.6342,27
42.6713,24
42.7085,26
42.7456,22
42.7828,27
42.8199,20
42.8571,23
42.8942,25
42.9314,34
42.9685,25
43.0057,22
43.0428,29
43.0800,29
43.1171,30
43.1543,29
43.1914,29
43.2286,44
43.2657,25
43.3029,30
43.3400,33
43.3772,39
43.4143,27
43.4515,36
43.4886,40
43.5258,44
43.5629,33
43.6001,36
43.6372,43
43.6744,29
43.7116,26
43.7487,33
43.7859,25
43.8230,33
43.8602,32
43.8973,32
43.9345,29
43.9716,24
44.0088,25
44.0459,25
44.0831,28
44.1202,37
44.1574,23
44.1945,32
44.2317,34
44.2688,36
44.3060,26
44.3431,23
44.3803,28
44.4174,35
44.4546,28
44.4917,29
44.5289,22
44.5660,34
44.6032,23
44.6403,28
44.6775,31
44.7146,22
44.7518,31
44.7889,30
44.8261,31
44.8632,24
44.9004,23
44.9375,31
44.9747,28
45.0118,26
45.0490,28
45.0861,22
45.1233,32
45.1604,22
45.1976,37
45.2347,27
45.2719,31
45.3091,23
45.3462,31
45.3834,30
45.4205,34
45.4577,32
45.4948,25
45.5320,22
45.5691,27
45.6063,29
45.6434,19
45.6806,27
45.7177,25
45.7549,26
45.7920,25
45.8292,28
45.8663,27
45.9035,25
45.9406,39
45.9778,28
46.0149,15
46.0521,27
46.0892,27
46.1264,14
46.1635,29
46.2007,15
46.2378,24
46.2750,19
46.3121,26
46.3493,28
46.3864,9
46.4236,18
46.4607,25
46.4979,25
46.5350,22
46.5722,23
46.6093,23
46.6465,22
46.6836,20
46.7208,24
46.7579,30
46.7951,30
46.8323,19
46.8694,21
46.9066,19
46.9437,24
46.9809,26
47.0180,24
47.0552,20
47.0923,25
47.1295,30
47.1666,26
47.2038,21
47.2409,26
47.2781,25
47.3152,33
47.3524,24
47.3895,24
47.4267,24
47.4638,19
47.5010,22
47.5381,22
47.5753,17
47.6124,21
47.6496,30
47.6867,24
47.7239,30
47.7610,27
47.7982,28
47.8353,22
47.8725,22
47.9096,15
47.9468,25
47.9839,28
48.0211,24
48.0582,26
48.0954,21
48.1325,27
48.1697,18
48.2068,18
48.2440,22
48.2811,24
48.3183,16
48.3555,19
48.3926,26
48.4298,28
48.4669,18
48.5041,33
48.5412,24
48.5784,27
48.6155,22
48.6527,29
48.6898,25
48.7270,25
48.7641,24
48.8013,28
48.8384,28
48.8756,21
48.9127,33
48.9499,41
48.9870,35
49.0242,34
49.0613,32
49.0985,37
49.1356,22
49.1728,21
49.2099,22
49.2471,22
49.2842,18
49.3214,26
49.3585,30
49.3957,22
49.4328,19
49.4700,23
49.5071,18
49.5443,18
49.5814,26
49.6186,22
49.6557,27
49.6929,28
49.7300,19
49.7672,21
49.8043,25
49.8415,15
49.8786,17
49.9158,24
49.9530,18
49.9901,32
50.0273,24
50.0644,26
50.1016,26
50.1387,28
50.1759,26
50.2130,25
50.2502,20
50.2873,26
50.3245,23
50.3616,28
50.3988,30
50.4359,25
50.4731,29
50.5102,33
50.5474,18
50.5845,24
50.6217,21
50.6588,23
50.6960,36
50.7331,27
50.7703,27
50.8074,26
50.8446,23
50.8817,17
50.9189,15
50.9560,22
50.9932,24
51.0303,29
51.0675,17
51.1046,17
51.1418,23
51.1789,24
51.2161,30
51.2532,30
51.2904,23
51.3275,25
51.3647,22
51.4018,22
51.4390,27
51.4762,26
51.5133,28
51.5505,16
51.5876,25
51.6248,27
51.6619,23
51.6991,24
51.7362,23
51.7734,25
51.8105,21
51.8477,27
51.8848,25
51.9220,22
51.9591,22
51.9963,25
52.0334,24
52.0706,26
52.1077,36
52.1449,16
52.1820,13
52.2192,20
52.2563,18
52.2935,30
52.3306,30
52.3678,22
52.4049,22
52.4421,29
52.4792,25
52.5164,17
52.5535,9
52.5907,23
52.6278,16
52.6650,19
52.7021,20
52.7393,30
52.7764,12
52.8136,21
52.8507,20
52.8879,22
52.9250,19
52.9622,27
52.9994,21
53.0365,18
53.0737,20
53.1108,22
53.1480,24
53.1851,14
53.2223,26
53.2594,23
53.2966,26
53.3337,15
53.3709,24
53.4080,16
53.4452,18
53.4823,14
53.5195,25
53.5566,30
53.5938,19
53.6309,18
53.6681,28
53.7052,26
53.7424,24
53.7795,21
53.8167,25
53.8538,20
53.8910,20
53.9281,20
53.9653,27
54.0024,28
54.0396,19
54.0767,18
54.1139,31
54.1510,25
54.1882,25
54.2253,25
54.2625,19
54.2996,24
54.3368,16
54.3739,18
54.4111,21
54.4482,19
54.4854,24
54.5225,15
54.5597,11
54.5969,14
54.6340,20
54.6712,21
54.7083,18
54.7455,14
54.7826,17
54.8198,25
54.8569,26
54.8941,18
54.9312,19
54.9684,16
55.0055,24
55.0427,31
55.0798,15
55.1170,17
55.1541,21
55.1913,24
55.2284,21
55.2656,17
55.3027,19
55.3399,17
55.3770,12
55.4142,14
55.4513,18
55.4885,33
55.5256,19
55.5628,23
55.5999,17
55.6371,13
55.6742,14
55.7114,21
55.7485,17
55.7857,20
55.8228,15
55.8600,21
55.8971,24
55.9343,23
55.9714,11
56.0086,29
56.0457,25
56.0829,17
56.1201,26
56.1572,21
56.1944,18
56.2315,27
56.2687,17
56.3058,16
56.3430,29
56.3801,21
56.4173,22
56.4544,14
56.4916,20
56.5287,20
56.5659,23
56.6030,27
56.6402,15
56.6773,12
56.7145,19
56.7516,23
56.7888,25
56.8259,15
56.8631,17
56.9002,22
56.9374,25
56.9745,15
57.0117,22
57.0488,14
57.0860,26
57.1231,15
57.1603,14
57.1974,14
57.2346,19
57.2717,25
57.3089,12
57.3460,28
57.3832,25
57.4203,20
57.4575,25
57.4946,20
57.5318,16
57.5689,23
57.6061,15
57.6433,20
57.6804,28
57.7176,20
57.7547,21
57.7919,15
57.8290,28
57.8662,18
57.9033,24
57.9405,21
57.9776,33
58.0148,15
58.0519,25
58.0891,14
58.1262,21
58.1634,30
58.2005,19
58.2377,23
58.2748,23
58.3120,28
58.3491,13
58.3863,13
58.4234,23
58.4606,21
58.4977,18
58.5349,24
58.5720,31
58.6092,23
58.6463,26
58.6835,27
58.7206,24
58.7578,26
58.7949,17
58.8321,15
58.8692,19
58.9064,32
58.9435,15
58.9807,21
59.0178,21
59.0550,23
59.0921,22
59.1293,21
59.1664,19
59.2036,16
59.2408,26
59.2779,18
59.3151,15
59.3522,18
59.3894,28
59.4265,10
59.4637,19
59.5008,20
59.5380,19
59.5751,23
59.6123,21
59.6494,27
59.6866,18
59.7237,24
59.7609,21
59.7980,23
59.8352,24
59.8723,23
59.9095,21
59.9466,16
59.9838,17
60.0024,15