File: notebooks/data/xrd_data/ML_20220718_14_SJD_4_LaB6-2min.uxd
; (content of file Y:\Sam\Apurva-07-20-2022\puck4\ML_20220718_14_SJD_0_LaB6-2min.raw)
_FILEVERSION = 3
_SAMPLE = ML_20220718_14_SJD_0_LaB6-2min
_+SAMPLE =
_SITE = USA
_USER = Administrator
_GONIOMETER_CODE = 20
; Goniometer : D8 theta/2theta, stage : Unknown
_ATTACHMENTS_CODE = 0
_GONIOMETER_RADIUS = 200.5
_FIXED_DIVSLIT = 0.6
_FIXED_SAMPLESLIT = 0
_SOLLER_SLITS = 2
_FIXED_DETSLIT = 9.55
_MONOCHROMATOR = 0
; Incident beam monochromator : None
_SOLLER_SLITS_2 = N
_THIN_FILM = N
_BETA_FILTER = Y
_FIXED_ANTISLIT = 5.89
_ANALYZER_CODE = 0
; Received beam analyzer : None
_DATEMEASURED = "26-Jul-2022 09:51:52"
_WL_UNIT = A
_WL1 = 1.5406
_WL2 = 1.54439
_WL3 = 1.39222
_WLRATIO = 0.5
_ANODE = Cu
_V4_INF_CREATOR = XRDWizard
_V4_INF_CREATOR_VERSION = V2.9.0.22
_V4_INF_WIZARD_VERSION = V2.9.0.22
_V4_INF_WIZARD_ADDINS = V2.9.0.22
_V4_INF_WIZARD_DOCTYPE = XRD
_V4_INF_OSUSER = McQueenLab
_V4_INF_USER = Administrator
_V4_INF_SITE = USA
_V4_INF_SAMPLEID = ML_20220718_14_SJD_0_LaB6-2min

; Data for range 1
_DRIVE = COUPLED
_STEPTIME = 5.64
_STEPSIZE = 0.0185756
_STEPMODE = C
_START = 5
_THETA = 2.5
_2THETA = 5
_KHI = 0
_PHI = 0
_X = 0
_Y = 0
_Z = 0
_DETECTOR = 5
; Detector type : Unknown
_DETECTORSLIT = unkn
_AUX1 = 0
_AUX2 = 0
_AUX3 = 0
_TIMESTARTED = 15
_TEMP_RATE = -1
_TEMP_DELAY = -1
_KV = 40
_MA = 40
_RANGE_WL = 1.5406
_3DPLANE = 0
_V4_ADDITIONALDETECTOR = 257
_V4_PSD2THETA = 3.371
_V4_PSDCHANNEL1 = 0
_V4_PSDAPERTURE = 12.68
_V4_PSDTYPE = 5
_V4_PSDFIXED = 0
_V4_COUNTERS_MASK = 4096
_V4_DRIVES_MASK = 0
_V4_ENCODERS_MASK = 0
_2THETACOUNTS = 1
; 2THETA  PSD
   5.0000        130
   5.0372        141
   5.0743        125
   5.1115        128
   5.1486        131
   5.1858        119
   5.2229        124
   5.2601        127
   5.2972        127
   5.3344         95
   5.3715        130
   5.4087        118
   5.4458        120
   5.4830        102
   5.5201        110
   5.5573        118
   5.5944        118
   5.6316        106
   5.6687        112
   5.7059        103
   5.7430         92
   5.7802        103
   5.8173        118
   5.8545         91
   5.8916         75
   5.9288         97
   5.9659         97
   6.0031         98
   6.0402         99
   6.0774        107
   6.1145        111
   6.1517         97
   6.1888         98
   6.2260         99
   6.2631         83
   6.3003         96
   6.3374         85
   6.3746         90
   6.4117         93
   6.4489         95
   6.4860         78
   6.5232         79
   6.5604         86
   6.5975         80
   6.6347         79
   6.6718         98
   6.7090         57
   6.7461         85
   6.7833         79
   6.8204         81
   6.8576         90
   6.8947         76
   6.9319         78
   6.9690         75
   7.0062         91
   7.0433         86
   7.0805         90
   7.1176         81
   7.1548         66
   7.1919         82
   7.2291         69
   7.2662         92
   7.3034         84
   7.3405         91
   7.3777         87
   7.4148         83
   7.4520         71
   7.4891         79
   7.5263         97
   7.5634         82
   7.6006        103
   7.6377         94
   7.6749         74
   7.7120         76
   7.7492         90
   7.7863         97
   7.8235         76
   7.8606         94
   7.8978         80
   7.9349         90
   7.9721         81
   8.0092         90
   8.0464         90
   8.0835         89
   8.1207         91
   8.1579         78
   8.1950         83
   8.2322         91
   8.2693        100
   8.3065         85
   8.3436         88
   8.3808         88
   8.4179        104
   8.4551         93
   8.4922        103
   8.5294         90
   8.5665         93
   8.6037        114
   8.6408         92
   8.6780        108
   8.7151         93
   8.7523         95
   8.7894        112
   8.8266        100
   8.8637         99
   8.9009        101
   8.9380         83
   8.9752        101
   9.0123         92
   9.0495        105
   9.0866        118
   9.1238        112
   9.1609        102
   9.1981        118
   9.2352        110
   9.2724        125
   9.3095        122
   9.3467        122
   9.3838        115
   9.4210         97
   9.4581         98
   9.4953        123
   9.5324        114
   9.5696         92
   9.6067        119
   9.6439        110
   9.6811        126
   9.7182        113
   9.7554        121
   9.7925        130
   9.8297        105
   9.8668        121
   9.9040        110
   9.9411        128
   9.9783        115
  10.0154        110
  10.0526        119
  10.0897        110
  10.1269        128
  10.1640        130
  10.2012        131
  10.2383        109
  10.2755        115
  10.3126         98
  10.3498        114
  10.3869        112
  10.4241        147
  10.4612        124
  10.4984        113
  10.5355         94
  10.5727        109
  10.6098        117
  10.6470        139
  10.6841        121
  10.7213         95
  10.7584        126
  10.7956        109
  10.8327        121
  10.8699        107
  10.9070        129
  10.9442        105
  10.9813        131
  11.0185        130
  11.0556        121
  11.0928        110
  11.1299        119
  11.1671        113
  11.2043        120
  11.2414        104
  11.2786        123
  11.3157         99
  11.3529         90
  11.3900        115
  11.4272        123
  11.4643         99
  11.5015        109
  11.5386        112
  11.5758        113
  11.6129        119
  11.6501        108
  11.6872        124
  11.7244        115
  11.7615        110
  11.7987        113
  11.8358        114
  11.8730        118
  11.9101        113
  11.9473        120
  11.9844        129
  12.0216        122
  12.0587        104
  12.0959        129
  12.1330        100
  12.1702        120
  12.2073        122
  12.2445        128
  12.2816         81
  12.3188        129
  12.3559         92
  12.3931        109
  12.4302         93
  12.4674        106
  12.5045        114
  12.5417        108
  12.5788        105
  12.6160        111
  12.6531         98
  12.6903        104
  12.7274        107
  12.7646        135
  12.8018        108
  12.8389        103
  12.8761         89
  12.9132        100
  12.9504        108
  12.9875         99
  13.0247        111
  13.0618         89
  13.0990         98
  13.1361         95
  13.1733         98
  13.2104        104
  13.2476        102
  13.2847         81
  13.3219         99
  13.3590         98
  13.3962        100
  13.4333         92
  13.4705         95
  13.5076        106
  13.5448         93
  13.5819        124
  13.6191         91
  13.6562         87
  13.6934         97
  13.7305         82
  13.7677         92
  13.8048        104
  13.8420        100
  13.8791         97
  13.9163         78
  13.9534         83
  13.9906         84
  14.0277         81
  14.0649         96
  14.1020         88
  14.1392         86
  14.1763         85
  14.2135         93
  14.2506         91
  14.2878         80
  14.3250         97
  14.3621         99
  14.3993         96
  14.4364         96
  14.4736         65
  14.5107         76
  14.5479         93
  14.5850         97
  14.6222         86
  14.6593         82
  14.6965         91
  14.7336         83
  14.7708         95
  14.8079         90
  14.8451         76
  14.8822         82
  14.9194         84
  14.9565         89
  14.9937         67
  15.0308         78
  15.0680         71
  15.1051         87
  15.1423         79
  15.1794         80
  15.2166         77
  15.2537         71
  15.2909         84
  15.3280         84
  15.3652         93
  15.4023         95
  15.4395         82
  15.4766         84
  15.5138         76
  15.5509         74
  15.5881         87
  15.6252         68
  15.6624         83
  15.6995         75
  15.7367         63
  15.7738         70
  15.8110         68
  15.8482         86
  15.8853         68
  15.9225         92
  15.9596         78
  15.9968         88
  16.0339         76
  16.0711         85
  16.1082         71
  16.1454         93
  16.1825         80
  16.2197         84
  16.2568         87
  16.2940         69
  16.3311         88
  16.3683         79
  16.4054         73
  16.4426         91
  16.4797        100
  16.5169         81
  16.5540         83
  16.5912         78
  16.6283         61
  16.6655         91
  16.7026         76
  16.7398         67
  16.7769         78
  16.8141         72
  16.8512         81
  16.8884         76
  16.9255         84
  16.9627         80
  16.9998         84
  17.0370         75
  17.0741         91
  17.1113         87
  17.1484         78
  17.1856         74
  17.2227         94
  17.2599         77
  17.2970         66
  17.3342         70
  17.3713         73
  17.4085         79
  17.4457         96
  17.4828         67
  17.5200         74
  17.5571         76
  17.5943         86
  17.6314         91
  17.6686         78
  17.7057         84
  17.7429         91
  17.7800         99
  17.8172         80
  17.8543         76
  17.8915         84
  17.9286         85
  17.9658         88
  18.0029         81
  18.0401         85
  18.0772         73
  18.1144         71
  18.1515         62
  18.1887         92
  18.2258         88
  18.2630         89
  18.3001         84
  18.3373         85
  18.3744         76
  18.4116         77
  18.4487         83
  18.4859         90
  18.5230         78
  18.5602         90
  18.5973         68
  18.6345         93
  18.6716         87
  18.7088         75
  18.7459         77
  18.7831         84
  18.8202         78
  18.8574         77
  18.8945         95
  18.9317         82
  18.9689         71
  19.0060        107
  19.0432         92
  19.0803         77
  19.1175         74
  19.1546         89
  19.1918         86
  19.2289         78
  19.2661         86
  19.3032         94
  19.3404         79
  19.3775         80
  19.4147         80
  19.4518         95
  19.4890         76
  19.5261         87
  19.5633         95
  19.6004         79
  19.6376         88
  19.6747         70
  19.7119         99
  19.7490         85
  19.7862         90
  19.8233         83
  19.8605         87
  19.8976         80
  19.9348        100
  19.9719         91
  20.0091        100
  20.0462         77
  20.0834        101
  20.1205         83
  20.1577         94
  20.1948        104
  20.2320         86
  20.2691         75
  20.3063        100
  20.3434         92
  20.3806         94
  20.4177         86
  20.4549         83
  20.4921         92
  20.5292        100
  20.5664         78
  20.6035        101
  20.6407         89
  20.6778         96
  20.7150         90
  20.7521        106
  20.7893         92
  20.8264        113
  20.8636         93
  20.9007         88
  20.9379        104
  20.9750         97
  21.0122         88
  21.0493        111
  21.0865         89
  21.1236         93
  21.1608        108
  21.1979        136
  21.2351        169
  21.2722        143
  21.3094        172
  21.3465        238
  21.3837        229
  21.4208        195
  21.4580        114
  21.4951         96
  21.5323        108
  21.5694         99
  21.6066         93
  21.6437        105
  21.6809         88
  21.7180         91
  21.7552         95
  21.7923        103
  21.8295         75
  21.8666         82
  21.9038        118
  21.9409         79
  21.9781        100
  22.0152        100
  22.0524        103
  22.0896         88
  22.1267        110
  22.1639         93
  22.2010         97
  22.2382         96
  22.2753         82
  22.3125        109
  22.3496         81
  22.3868         98
  22.4239         91
  22.4611        104
  22.4982         99
  22.5354        107
  22.5725         83
  22.6097         93
  22.6468         99
  22.6840         97
  22.7211         98
  22.7583         94
  22.7954        109
  22.8326         90
  22.8697        101
  22.9069        122
  22.9440        105
  22.9812         95
  23.0183        100
  23.0555         87
  23.0926         91
  23.1298        102
  23.1669         96
  23.2041         93
  23.2412         74
  23.2784        117
  23.3155         77
  23.3527        106
  23.3898         88
  23.4270         90
  23.4641        107
  23.5013         98
  23.5384         86
  23.5756        101
  23.6128         79
  23.6499        110
  23.6871        107
  23.7242        122
  23.7614        108
  23.7985        106
  23.8357        106
  23.8728         97
  23.9100         96
  23.9471        101
  23.9843         99
  24.0214         99
  24.0586        112
  24.0957         99
  24.1329         91
  24.1700        103
  24.2072        106
  24.2443        126
  24.2815        118
  24.3186        109
  24.3558        112
  24.3929        103
  24.4301        111
  24.4672        108
  24.5044         94
  24.5415         81
  24.5787         95
  24.6158         93
  24.6530        100
  24.6901        100
  24.7273         85
  24.7644         95
  24.8016        100
  24.8387        108
  24.8759        115
  24.9130        117
  24.9502        102
  24.9873         94
  25.0245         99
  25.0616        112
  25.0988        118
  25.1360         98
  25.1731         91
  25.2103        104
  25.2474         98
  25.2846        104
  25.3217         96
  25.3589         81
  25.3960        102
  25.4332         94
  25.4703        104
  25.5075         94
  25.5446        101
  25.5818        102
  25.6189         86
  25.6561         87
  25.6932         79
  25.7304        104
  25.7675         81
  25.8047         99
  25.8418        104
  25.8790        113
  25.9161        103
  25.9533         95
  25.9904         99
  26.0276         86
  26.0647         73
  26.1019        101
  26.1390         89
  26.1762        106
  26.2133        103
  26.2505        101
  26.2876         99
  26.3248         87
  26.3619        114
  26.3991         85
  26.4362        107
  26.4734         88
  26.5105         86
  26.5477         83
  26.5848         92
  26.6220        100
  26.6591        103
  26.6963         88
  26.7335        103
  26.7706         97
  26.8078         94
  26.8449         88
  26.8821        110
  26.9192         94
  26.9564         93
  26.9935         86
  27.0307        106
  27.0678        111
  27.1050        101
  27.1421        106
  27.1793        135
  27.2164        122
  27.2536        116
  27.2907        126
  27.3279         90
  27.3650        100
  27.4022        104
  27.4393         95
  27.4765        107
  27.5136         99
  27.5508         89
  27.5879         83
  27.6251         91
  27.6622         86
  27.6994         76
  27.7365         85
  27.7737        103
  27.8108         88
  27.8480         89
  27.8851        100
  27.9223         90
  27.9594         77
  27.9966         91
  28.0337         78
  28.0709         76
  28.1080         76
  28.1452         84
  28.1823         74
  28.2195         64
  28.2567         90
  28.2938         89
  28.3310         90
  28.3681         86
  28.4053         80
  28.4424         89
  28.4796         84
  28.5167         93
  28.5539         95
  28.5910         86
  28.6282         79
  28.6653         87
  28.7025         79
  28.7396         70
  28.7768         74
  28.8139        101
  28.8511         85
  28.8882         74
  28.9254         80
  28.9625         88
  28.9997         86
  29.0368         85
  29.0740         88
  29.1111         87
  29.1483         92
  29.1854         82
  29.2226         77
  29.2597         92
  29.2969         83
  29.3340         81
  29.3712         82
  29.4083         90
  29.4455         74
  29.4826         73
  29.5198         87
  29.5569         82
  29.5941         83
  29.6312         70
  29.6684         67
  29.7055         67
  29.7427         79
  29.7799         86
  29.8170         79
  29.8542         86
  29.8913         91
  29.9285         67
  29.9656         81
  30.0028         80
  30.0399         73
  30.0771         69
  30.1142         78
  30.1514         82
  30.1885         73
  30.2257         85
  30.2628         81
  30.3000         81
  30.3371        111
  30.3743        165
  30.4114        137
  30.4486        115
  30.4857        103
  30.5229         78
  30.5600         85
  30.5972         71
  30.6343         75
  30.6715         78
  30.7086         75
  30.7458         78
  30.7829         78
  30.8201         77
  30.8572         69
  30.8944         68
  30.9315         88
  30.9687         69
  31.0058         64
  31.0430         74
  31.0801         73
  31.1173         74
  31.1544         55
  31.1916         77
  31.2287         73
  31.2659         71
  31.3030         66
  31.3402         63
  31.3774         69
  31.4145         68
  31.4517         67
  31.4888         72
  31.5260         74
  31.5631         72
  31.6003         74
  31.6374         81
  31.6746         68
  31.7117         59
  31.7489         71
  31.7860         46
  31.8232         59
  31.8603         70
  31.8975         62
  31.9346         89
  31.9718         67
  32.0089         60
  32.0461         63
  32.0832         64
  32.1204         57
  32.1575         71
  32.1947         80
  32.2318         70
  32.2690         73
  32.3061         69
  32.3433         94
  32.3804         77
  32.4176         70
  32.4547         84
  32.4919         75
  32.5290         72
  32.5662         66
  32.6033         60
  32.6405         74
  32.6776         68
  32.7148         48
  32.7519         60
  32.7891         58
  32.8262         63
  32.8634         73
  32.9006         65
  32.9377         56
  32.9749         51
  33.0120         58
  33.0492         62
  33.0863         57
  33.1235         65
  33.1606         63
  33.1978         65
  33.2349         64
  33.2721         52
  33.3092         52
  33.3464         60
  33.3835         59
  33.4207         58
  33.4578         47
  33.4950         61
  33.5321         54
  33.5693         53
  33.6064         53
  33.6436         65
  33.6807         70
  33.7179         56
  33.7550         44
  33.7922         60
  33.8293         53
  33.8665         51
  33.9036         65
  33.9408         68
  33.9779         55
  34.0151         80
  34.0522         65
  34.0894         65
  34.1265         73
  34.1637         60
  34.2008         61
  34.2380         56
  34.2751         63
  34.3123         47
  34.3494         57
  34.3866         64
  34.4238         42
  34.4609         64
  34.4981         57
  34.5352         57
  34.5724         54
  34.6095         66
  34.6467         53
  34.6838         92
  34.7210         65
  34.7581         61
  34.7953         75
  34.8324         72
  34.8696         71
  34.9067         71
  34.9439         49
  34.9810         59
  35.0182         64
  35.0553         60
  35.0925         38
  35.1296         46
  35.1668         51
  35.2039         55
  35.2411         49
  35.2782         51
  35.3154         58
  35.3525         35
  35.3897         24
  35.4268         44
  35.4640         55
  35.5011         43
  35.5383         42
  35.5754         40
  35.6126         53
  35.6497         48
  35.6869         48
  35.7240         47
  35.7612         49
  35.7983         50
  35.8355         50
  35.8726         40
  35.9098         49
  35.9469         62
  35.9841         42
  36.0213         49
  36.0584         55
  36.0956         51
  36.1327         46
  36.1699         43
  36.2070         37
  36.2442         55
  36.2813         59
  36.3185         62
  36.3556         42
  36.3928         43
  36.4299         52
  36.4671         58
  36.5042         51
  36.5414         47
  36.5785         65
  36.6157         63
  36.6528         47
  36.6900         51
  36.7271         41
  36.7643         56
  36.8014         37
  36.8386         43
  36.8757         45
  36.9129         33
  36.9500         55
  36.9872         40
  37.0243         56
  37.0615         36
  37.0986         64
  37.1358         55
  37.1729         55
  37.2101         46
  37.2472         57
  37.2844         42
  37.3215         43
  37.3587         58
  37.3958         56
  37.4330         75
  37.4701         66
  37.5073         58
  37.5445         55
  37.5816         48
  37.6188         45
  37.6559         40
  37.6931         46
  37.7302         44
  37.7674         49
  37.8045         43
  37.8417         42
  37.8788         54
  37.9160         38
  37.9531         53
  37.9903         31
  38.0274         36
  38.0646         40
  38.1017         51
  38.1389         29
  38.1760         39
  38.2132         28
  38.2503         43
  38.2875         44
  38.3246         46
  38.3618         46
  38.3989         37
  38.4361         46
  38.4732         36
  38.5104         38
  38.5475         45
  38.5847         46
  38.6218         43
  38.6590         45
  38.6961         34
  38.7333         41
  38.7704         36
  38.8076         40
  38.8447         40
  38.8819         44
  38.9190         40
  38.9562         47
  38.9933         33
  39.0305         52
  39.0677         34
  39.1048         38
  39.1420         38
  39.1791         35
  39.2163         39
  39.2534         26
  39.2906         44
  39.3277         33
  39.3649         33
  39.4020         41
  39.4392         38
  39.4763         38
  39.5135         33
  39.5506         42
  39.5878         50
  39.6249         35
  39.6621         38
  39.6992         45
  39.7364         39
  39.7735         48
  39.8107         32
  39.8478         41
  39.8850         36
  39.9221         38
  39.9593         36
  39.9964         38
  40.0336         42
  40.0707         40
  40.1079         35
  40.1450         40
  40.1822         42
  40.2193         37
  40.2565         30
  40.2936         47
  40.3308         39
  40.3679         32
  40.4051         49
  40.4422         36
  40.4794         45
  40.5165         32
  40.5537         32
  40.5908         47
  40.6280         38
  40.6652         36
  40.7023         33
  40.7395         49
  40.7766         38
  40.8138         34
  40.8509         46
  40.8881         30
  40.9252         46
  40.9624         42
  40.9995         67
  41.0367         41
  41.0738         49
  41.1110         39
  41.1481         34
  41.1853         37
  41.2224         35
  41.2596         34
  41.2967         43
  41.3339         38
  41.3710         28
  41.4082         42
  41.4453         39
  41.4825         29
  41.5196         37
  41.5568         37
  41.5939         37
  41.6311         38
  41.6682         30
  41.7054         46
  41.7425         35
  41.7797         34
  41.8168         34
  41.8540         41
  41.8911         32
  41.9283         32
  41.9654         43
  42.0026         37
  42.0397         45
  42.0769         43
  42.1140         53
  42.1512         40
  42.1884         32
  42.2255         35
  42.2627         42
  42.2998         27
  42.3370         35
  42.3741         45
  42.4113         42
  42.4484         35
  42.4856         38
  42.5227         31
  42.5599         31
  42.5970         45
  42.6342         37
  42.6713         38
  42.7085         36
  42.7456         38
  42.7828         39
  42.8199         37
  42.8571         37
  42.8942         38
  42.9314         40
  42.9685         41
  43.0057         36
  43.0428         40
  43.0800         42
  43.1171         31
  43.1543         41
  43.1914         48
  43.2286         47
  43.2657         35
  43.3029         38
  43.3400         47
  43.3772         37
  43.4143         36
  43.4515         50
  43.4886         50
  43.5258         62
  43.5629         40
  43.6001         52
  43.6372         48
  43.6744         32
  43.7116         36
  43.7487         47
  43.7859         42
  43.8230         35
  43.8602         42
  43.8973         36
  43.9345         35
  43.9716         40
  44.0088         41
  44.0459         25
  44.0831         38
  44.1202         36
  44.1574         34
  44.1945         34
  44.2317         38
  44.2688         40
  44.3060         33
  44.3431         34
  44.3803         33
  44.4174         37
  44.4546         42
  44.4917         30
  44.5289         36
  44.5660         41
  44.6032         49
  44.6403         33
  44.6775         52
  44.7146         51
  44.7518         30
  44.7889         41
  44.8261         46
  44.8632         42
  44.9004         42
  44.9375         31
  44.9747         29
  45.0118         34
  45.0490         31
  45.0861         30
  45.1233         36
  45.1604         33
  45.1976         49
  45.2347         48
  45.2719         33
  45.3091         31
  45.3462         31
  45.3834         39
  45.4205         29
  45.4577         44
  45.4948         28
  45.5320         31
  45.5691         33
  45.6063         34
  45.6434         40
  45.6806         34
  45.7177         37
  45.7549         40
  45.7920         28
  45.8292         34
  45.8663         29
  45.9035         35
  45.9406         26
  45.9778         38
  46.0149         36
  46.0521         25
  46.0892         32
  46.1264         29
  46.1635         27
  46.2007         39
  46.2378         33
  46.2750         36
  46.3121         24
  46.3493         34
  46.3864         40
  46.4236         31
  46.4607         37
  46.4979         34
  46.5350         38
  46.5722         26
  46.6093         27
  46.6465         39
  46.6836         40
  46.7208         30
  46.7579         34
  46.7951         25
  46.8323         35
  46.8694         30
  46.9066         19
  46.9437         35
  46.9809         33
  47.0180         28
  47.0552         28
  47.0923         35
  47.1295         21
  47.1666         28
  47.2038         23
  47.2409         34
  47.2781         24
  47.3152         29
  47.3524         36
  47.3895         27
  47.4267         27
  47.4638         39
  47.5010         32
  47.5381         32
  47.5753         28
  47.6124         33
  47.6496         30
  47.6867         40
  47.7239         28
  47.7610         37
  47.7982         25
  47.8353         29
  47.8725         28
  47.9096         34
  47.9468         24
  47.9839         21
  48.0211         36
  48.0582         22
  48.0954         35
  48.1325         35
  48.1697         29
  48.2068         29
  48.2440         27
  48.2811         28
  48.3183         32
  48.3555         34
  48.3926         31
  48.4298         22
  48.4669         21
  48.5041         33
  48.5412         25
  48.5784         43
  48.6155         23
  48.6527         24
  48.6898         32
  48.7270         35
  48.7641         38
  48.8013         32
  48.8384         31
  48.8756         35
  48.9127         38
  48.9499         45
  48.9870         58
  49.0242         42
  49.0613         36
  49.0985         55
  49.1356         27
  49.1728         38
  49.2099         47
  49.2471         24
  49.2842         33
  49.3214         31
  49.3585         27
  49.3957         33
  49.4328         40
  49.4700         25
  49.5071         37
  49.5443         19
  49.5814         29
  49.6186         31
  49.6557         26
  49.6929         30
  49.7300         34
  49.7672         19
  49.8043         29
  49.8415         32
  49.8786         29
  49.9158         37
  49.9530         24
  49.9901         38
  50.0273         26
  50.0644         31
  50.1016         27
  50.1387         29
  50.1759         34
  50.2130         29
  50.2502         31
  50.2873         34
  50.3245         27
  50.3616         20
  50.3988         35
  50.4359         23
  50.4731         34
  50.5102         37
  50.5474         27
  50.5845         32
  50.6217         28
  50.6588         35
  50.6960         35
  50.7331         27
  50.7703         26
  50.8074         30
  50.8446         34
  50.8817         30
  50.9189         24
  50.9560         21
  50.9932         28
  51.0303         27
  51.0675         27
  51.1046         31
  51.1418         26
  51.1789         29
  51.2161         35
  51.2532         23
  51.2904         28
  51.3275         29
  51.3647         32
  51.4018         22
  51.4390         37
  51.4762         18
  51.5133         32
  51.5505         38
  51.5876         25
  51.6248         37
  51.6619         30
  51.6991         28
  51.7362         28
  51.7734         31
  51.8105         34
  51.8477         29
  51.8848         34
  51.9220         30
  51.9591         35
  51.9963         33
  52.0334         26
  52.0706         24
  52.1077         32
  52.1449         40
  52.1820         35
  52.2192         28
  52.2563         37
  52.2935         33
  52.3306         20
  52.3678         37
  52.4049         27
  52.4421         32
  52.4792         38
  52.5164         29
  52.5535         29
  52.5907         35
  52.6278         24
  52.6650         34
  52.7021         38
  52.7393         22
  52.7764         32
  52.8136         24
  52.8507         25
  52.8879         21
  52.9250         33
  52.9622         33
  52.9994         24
  53.0365         30
  53.0737         29
  53.1108         32
  53.1480         35
  53.1851         24
  53.2223         26
  53.2594         27
  53.2966         29
  53.3337         33
  53.3709         26
  53.4080         16
  53.4452         27
  53.4823         29
  53.5195         28
  53.5566         20
  53.5938         33
  53.6309         27
  53.6681         23
  53.7052         25
  53.7424         28
  53.7795         31
  53.8167         35
  53.8538         29
  53.8910         31
  53.9281         43
  53.9653         35
  54.0024         46
  54.0396         34
  54.0767         36
  54.1139         32
  54.1510         35
  54.1882         30
  54.2253         32
  54.2625         30
  54.2996         28
  54.3368         21
  54.3739         27
  54.4111         24
  54.4482         22
  54.4854         29
  54.5225         27
  54.5597         24
  54.5969         19
  54.6340         35
  54.6712         27
  54.7083         29
  54.7455         22
  54.7826         30
  54.8198         30
  54.8569         28
  54.8941         30
  54.9312         22
  54.9684         25
  55.0055         27
  55.0427         28
  55.0798         30
  55.1170         35
  55.1541         32
  55.1913         26
  55.2284         28
  55.2656         33
  55.3027         28
  55.3399         27
  55.3770         27
  55.4142         28
  55.4513         25
  55.4885         33
  55.5256         25
  55.5628         30
  55.5999         28
  55.6371         31
  55.6742         27
  55.7114         17
  55.7485         23
  55.7857         35
  55.8228         29
  55.8600         31
  55.8971         31
  55.9343         18
  55.9714         35
  56.0086         30
  56.0457         20
  56.0829         35
  56.1201         40
  56.1572         29
  56.1944         31
  56.2315         34
  56.2687         29
  56.3058         31
  56.3430         29
  56.3801         33
  56.4173         27
  56.4544         27
  56.4916         38
  56.5287         29
  56.5659         22
  56.6030         25
  56.6402         25
  56.6773         24
  56.7145         28
  56.7516         38
  56.7888         28
  56.8259         21
  56.8631         20
  56.9002         25
  56.9374         27
  56.9745         24
  57.0117         18
  57.0488         28
  57.0860         31
  57.1231         33
  57.1603         22
  57.1974         32
  57.2346         38
  57.2717         27
  57.3089         26
  57.3460         30
  57.3832         18
  57.4203         28
  57.4575         22
  57.4946         28
  57.5318         24
  57.5689         18
  57.6061         33
  57.6433         15
  57.6804         38
  57.7176         32
  57.7547         27
  57.7919         22
  57.8290         26
  57.8662         40
  57.9033         33
  57.9405         29
  57.9776         30
  58.0148         22
  58.0519         29
  58.0891         31
  58.1262         31
  58.1634         24
  58.2005         33
  58.2377         25
  58.2748         25
  58.3120         37
  58.3491         27
  58.3863         20
  58.4234         28
  58.4606         33
  58.4977         21
  58.5349         31
  58.5720         24
  58.6092         29
  58.6463         30
  58.6835         32
  58.7206         24
  58.7578         31
  58.7949         29
  58.8321         27
  58.8692         33
  58.9064         30
  58.9435         36
  58.9807         16
  59.0178         30
  59.0550         25
  59.0921         25
  59.1293         26
  59.1664         32
  59.2036         40
  59.2408         26
  59.2779         40
  59.3151         28
  59.3522         32
  59.3894         30
  59.4265         29
  59.4637         19
  59.5008         27
  59.5380         32
  59.5751         35
  59.6123         25
  59.6494         25
  59.6866         33
  59.7237         32
  59.7609         26
  59.7980         24
  59.8352         36
  59.8723         26
  59.9095         28
  59.9466         22
  59.9838         26
  60.0024         33