File: notebooks/data/xrd_data/ML_20220720_38_SJD_4_LaB6-1min.csv
;,2THETA,
5.0000,114
5.0372,89
5.0743,76
5.1115,98
5.1486,94
5.1858,94
5.2229,82
5.2601,85
5.2972,78
5.3344,67
5.3715,106
5.4087,82
5.4458,82
5.4830,86
5.5201,75
5.5573,76
5.5944,88
5.6316,85
5.6687,81
5.7059,76
5.7430,79
5.7802,57
5.8173,78
5.8545,81
5.8916,74
5.9288,59
5.9659,68
6.0031,80
6.0402,78
6.0774,78
6.1145,66
6.1517,74
6.1888,76
6.2260,85
6.2631,72
6.3003,73
6.3374,79
6.3746,67
6.4117,63
6.4489,37
6.4860,62
6.5232,62
6.5604,80
6.5975,52
6.6347,70
6.6718,61
6.7090,65
6.7461,50
6.7833,54
6.8204,63
6.8576,67
6.8947,67
6.9319,57
6.9690,81
7.0062,60
7.0433,61
7.0805,52
7.1176,69
7.1548,69
7.1919,70
7.2291,58
7.2662,53
7.3034,66
7.3405,59
7.3777,47
7.4148,47
7.4520,63
7.4891,62
7.5263,66
7.5634,54
7.6006,62
7.6377,70
7.6749,48
7.7120,62
7.7492,64
7.7863,57
7.8235,69
7.8606,78
7.8978,70
7.9349,69
7.9721,74
8.0092,60
8.0464,83
8.0835,71
8.1207,54
8.1579,72
8.1950,61
8.2322,72
8.2693,74
8.3065,76
8.3436,67
8.3808,85
8.4179,68
8.4551,58
8.4922,72
8.5294,64
8.5665,80
8.6037,76
8.6408,78
8.6780,69
8.7151,86
8.7523,65
8.7894,91
8.8266,89
8.8637,91
8.9009,89
8.9380,72
8.9752,92
9.0123,62
9.0495,89
9.0866,89
9.1238,76
9.1609,73
9.1981,74
9.2352,79
9.2724,84
9.3095,67
9.3467,80
9.3838,84
9.4210,60
9.4581,80
9.4953,77
9.5324,77
9.5696,83
9.6067,98
9.6439,80
9.6811,69
9.7182,97
9.7554,79
9.7925,93
9.8297,73
9.8668,78
9.9040,94
9.9411,63
9.9783,92
10.0154,74
10.0526,88
10.0897,80
10.1269,86
10.1640,87
10.2012,105
10.2383,91
10.2755,87
10.3126,90
10.3498,94
10.3869,82
10.4241,90
10.4612,84
10.4984,106
10.5355,95
10.5727,78
10.6098,74
10.6470,116
10.6841,89
10.7213,98
10.7584,92
10.7956,80
10.8327,75
10.8699,80
10.9070,97
10.9442,90
10.9813,84
11.0185,98
11.0556,96
11.0928,118
11.1299,99
11.1671,80
11.2043,95
11.2414,88
11.2786,81
11.3157,87
11.3529,93
11.3900,85
11.4272,91
11.4643,102
11.5015,78
11.5386,103
11.5758,97
11.6129,76
11.6501,82
11.6872,85
11.7244,106
11.7615,73
11.7987,87
11.8358,85
11.8730,89
11.9101,94
11.9473,79
11.9844,99
12.0216,85
12.0587,82
12.0959,83
12.1330,103
12.1702,71
12.2073,82
12.2445,98
12.2816,99
12.3188,78
12.3559,87
12.3931,86
12.4302,73
12.4674,75
12.5045,70
12.5417,77
12.5788,102
12.6160,83
12.6531,72
12.6903,75
12.7274,84
12.7646,77
12.8018,81
12.8389,70
12.8761,74
12.9132,84
12.9504,80
12.9875,75
13.0247,55
13.0618,63
13.0990,68
13.1361,59
13.1733,76
13.2104,83
13.2476,70
13.2847,88
13.3219,79
13.3590,60
13.3962,73
13.4333,78
13.4705,66
13.5076,84
13.5448,86
13.5819,74
13.6191,75
13.6562,80
13.6934,75
13.7305,63
13.7677,80
13.8048,69
13.8420,64
13.8791,81
13.9163,61
13.9534,59
13.9906,84
14.0277,64
14.0649,65
14.1020,74
14.1392,63
14.1763,65
14.2135,73
14.2506,65
14.2878,62
14.3250,56
14.3621,59
14.3993,64
14.4364,63
14.4736,65
14.5107,89
14.5479,63
14.5850,60
14.6222,51
14.6593,54
14.6965,82
14.7336,55
14.7708,61
14.8079,66
14.8451,52
14.8822,59
14.9194,75
14.9565,58
14.9937,73
15.0308,74
15.0680,57
15.1051,75
15.1423,70
15.1794,51
15.2166,60
15.2537,62
15.2909,54
15.3280,60
15.3652,56
15.4023,55
15.4395,68
15.4766,59
15.5138,70
15.5509,83
15.5881,79
15.6252,53
15.6624,63
15.6995,57
15.7367,47
15.7738,51
15.8110,57
15.8482,57
15.8853,71
15.9225,57
15.9596,69
15.9968,57
16.0339,71
16.0711,61
16.1082,58
16.1454,55
16.1825,48
16.2197,65
16.2568,42
16.2940,76
16.3311,63
16.3683,52
16.4054,56
16.4426,56
16.4797,61
16.5169,49
16.5540,58
16.5912,55
16.6283,61
16.6655,66
16.7026,66
16.7398,66
16.7769,56
16.8141,47
16.8512,66
16.8884,84
16.9255,56
16.9627,68
16.9998,44
17.0370,58
17.0741,62
17.1113,72
17.1484,63
17.1856,53
17.2227,49
17.2599,60
17.2970,65
17.3342,72
17.3713,57
17.4085,59
17.4457,72
17.4828,58
17.5200,61
17.5571,66
17.5943,65
17.6314,58
17.6686,49
17.7057,45
17.7429,70
17.7800,57
17.8172,59
17.8543,45
17.8915,52
17.9286,66
17.9658,57
18.0029,62
18.0401,59
18.0772,50
18.1144,63
18.1515,55
18.1887,56
18.2258,61
18.2630,65
18.3001,75
18.3373,62
18.3744,59
18.4116,71
18.4487,69
18.4859,54
18.5230,73
18.5602,60
18.5973,68
18.6345,57
18.6716,65
18.7088,75
18.7459,57
18.7831,73
18.8202,58
18.8574,71
18.8945,62
18.9317,52
18.9689,74
19.0060,45
19.0432,68
19.0803,57
19.1175,62
19.1546,80
19.1918,73
19.2289,64
19.2661,74
19.3032,54
19.3404,63
19.3775,64
19.4147,77
19.4518,62
19.4890,53
19.5261,62
19.5633,60
19.6004,72
19.6376,54
19.6747,64
19.7119,64
19.7490,77
19.7862,61
19.8233,76
19.8605,67
19.8976,72
19.9348,62
19.9719,64
20.0091,60
20.0462,71
20.0834,77
20.1205,64
20.1577,52
20.1948,72
20.2320,62
20.2691,64
20.3063,68
20.3434,66
20.3806,64
20.4177,73
20.4549,69
20.4921,78
20.5292,65
20.5664,58
20.6035,59
20.6407,63
20.6778,65
20.7150,66
20.7521,71
20.7893,62
20.8264,61
20.8636,59
20.9007,68
20.9379,70
20.9750,78
21.0122,69
21.0493,55
21.0865,75
21.1236,77
21.1608,94
21.1979,109
21.2351,137
21.2722,107
21.3094,125
21.3465,176
21.3837,152
21.4208,132
21.4580,85
21.4951,83
21.5323,82
21.5694,89
21.6066,69
21.6437,89
21.6809,70
21.7180,54
21.7552,59
21.7923,64
21.8295,66
21.8666,74
21.9038,71
21.9409,78
21.9781,76
22.0152,63
22.0524,70
22.0896,57
22.1267,88
22.1639,66
22.2010,71
22.2382,57
22.2753,73
22.3125,64
22.3496,64
22.3868,75
22.4239,88
22.4611,60
22.4982,78
22.5354,75
22.5725,81
22.6097,69
22.6468,81
22.6840,70
22.7211,78
22.7583,74
22.7954,72
22.8326,79
22.8697,73
22.9069,81
22.9440,65
22.9812,84
23.0183,73
23.0555,69
23.0926,57
23.1298,67
23.1669,74
23.2041,77
23.2412,80
23.2784,72
23.3155,82
23.3527,71
23.3898,68
23.4270,73
23.4641,82
23.5013,70
23.5384,69
23.5756,72
23.6128,69
23.6499,71
23.6871,78
23.7242,68
23.7614,60
23.7985,80
23.8357,75
23.8728,73
23.9100,72
23.9471,71
23.9843,85
24.0214,88
24.0586,82
24.0957,78
24.1329,65
24.1700,63
24.2072,83
24.2443,73
24.2815,78
24.3186,85
24.3558,85
24.3929,87
24.4301,75
24.4672,68
24.5044,80
24.5415,82
24.5787,69
24.6158,73
24.6530,74
24.6901,73
24.7273,65
24.7644,96
24.8016,82
24.8387,72
24.8759,71
24.9130,81
24.9502,71
24.9873,80
25.0245,67
25.0616,74
25.0988,62
25.1360,76
25.1731,67
25.2103,75
25.2474,64
25.2846,67
25.3217,64
25.3589,66
25.3960,66
25.4332,71
25.4703,62
25.5075,74
25.5446,73
25.5818,64
25.6189,66
25.6561,80
25.6932,78
25.7304,72
25.7675,70
25.8047,74
25.8418,67
25.8790,76
25.9161,76
25.9533,71
25.9904,70
26.0276,60
26.0647,71
26.1019,84
26.1390,83
26.1762,55
26.2133,73
26.2505,73
26.2876,80
26.3248,80
26.3619,71
26.3991,77
26.4362,74
26.4734,63
26.5105,75
26.5477,71
26.5848,70
26.6220,73
26.6591,64
26.6963,87
26.7335,88
26.7706,60
26.8078,61
26.8449,63
26.8821,79
26.9192,72
26.9564,91
26.9935,68
27.0307,80
27.0678,71
27.1050,86
27.1421,70
27.1793,71
27.2164,101
27.2536,81
27.2907,58
27.3279,73
27.3650,61
27.4022,74
27.4393,80
27.4765,68
27.5136,71
27.5508,72
27.5879,64
27.6251,75
27.6622,61
27.6994,76
27.7365,72
27.7737,68
27.8108,57
27.8480,61
27.8851,64
27.9223,60
27.9594,65
27.9966,56
28.0337,54
28.0709,64
28.1080,60
28.1452,59
28.1823,51
28.2195,58
28.2567,47
28.2938,67
28.3310,61
28.3681,55
28.4053,68
28.4424,67
28.4796,74
28.5167,70
28.5539,61
28.5910,66
28.6282,64
28.6653,55
28.7025,59
28.7396,60
28.7768,54
28.8139,60
28.8511,62
28.8882,70
28.9254,74
28.9625,53
28.9997,68
29.0368,47
29.0740,63
29.1111,60
29.1483,72
29.1854,59
29.2226,61
29.2597,62
29.2969,63
29.3340,58
29.3712,54
29.4083,67
29.4455,60
29.4826,57
29.5198,63
29.5569,69
29.5941,52
29.6312,53
29.6684,54
29.7055,52
29.7427,58
29.7799,47
29.8170,60
29.8542,73
29.8913,52
29.9285,58
29.9656,65
30.0028,57
30.0399,60
30.0771,53
30.1142,62
30.1514,63
30.1885,59
30.2257,46
30.2628,57
30.3000,62
30.3371,87
30.3743,128
30.4114,104
30.4486,80
30.4857,78
30.5229,57
30.5600,74
30.5972,50
30.6343,59
30.6715,67
30.7086,54
30.7458,33
30.7829,57
30.8201,52
30.8572,67
30.8944,49
30.9315,42
30.9687,62
31.0058,68
31.0430,45
31.0801,51
31.1173,59
31.1544,37
31.1916,44
31.2287,47
31.2659,60
31.3030,58
31.3402,45
31.3774,59
31.4145,54
31.4517,62
31.4888,43
31.5260,37
31.5631,41
31.6003,66
31.6374,45
31.6746,56
31.7117,53
31.7489,59
31.7860,40
31.8232,45
31.8603,54
31.8975,44
31.9346,52
31.9718,43
32.0089,40
32.0461,50
32.0832,61
32.1204,51
32.1575,65
32.1947,44
32.2318,58
32.2690,50
32.3061,35
32.3433,54
32.3804,36
32.4176,45
32.4547,48
32.4919,55
32.5290,58
32.5662,55
32.6033,38
32.6405,44
32.6776,52
32.7148,55
32.7519,59
32.7891,38
32.8262,55
32.8634,58
32.9006,58
32.9377,58
32.9749,34
33.0120,46
33.0492,45
33.0863,31
33.1235,45
33.1606,46
33.1978,39
33.2349,43
33.2721,40
33.3092,45
33.3464,43
33.3835,35
33.4207,42
33.4578,36
33.4950,41
33.5321,51
33.5693,50
33.6064,46
33.6436,36
33.6807,41
33.7179,40
33.7550,43
33.7922,27
33.8293,40
33.8665,29
33.9036,40
33.9408,55
33.9779,33
34.0151,48
34.0522,46
34.0894,44
34.1265,43
34.1637,26
34.2008,47
34.2380,49
34.2751,43
34.3123,51
34.3494,46
34.3866,44
34.4238,48
34.4609,43
34.4981,45
34.5352,48
34.5724,36
34.6095,36
34.6467,61
34.6838,49
34.7210,44
34.7581,75
34.7953,63
34.8324,57
34.8696,45
34.9067,37
34.9439,31
34.9810,38
35.0182,40
35.0553,36
35.0925,41
35.1296,34
35.1668,42
35.2039,43
35.2411,43
35.2782,28
35.3154,40
35.3525,37
35.3897,34
35.4268,37
35.4640,35
35.5011,35
35.5383,44
35.5754,34
35.6126,39
35.6497,26
35.6869,29
35.7240,31
35.7612,36
35.7983,36
35.8355,45
35.8726,38
35.9098,32
35.9469,39
35.9841,33
36.0213,35
36.0584,40
36.0956,44
36.1327,36
36.1699,35
36.2070,27
36.2442,34
36.2813,35
36.3185,34
36.3556,24
36.3928,37
36.4299,31
36.4671,50
36.5042,39
36.5414,31
36.5785,34
36.6157,28
36.6528,33
36.6900,38
36.7271,48
36.7643,37
36.8014,28
36.8386,34
36.8757,28
36.9129,29
36.9500,36
36.9872,35
37.0243,32
37.0615,36
37.0986,37
37.1358,38
37.1729,26
37.2101,34
37.2472,34
37.2844,36
37.3215,26
37.3587,41
37.3958,39
37.4330,47
37.4701,42
37.5073,35
37.5445,45
37.5816,38
37.6188,31
37.6559,28
37.6931,28
37.7302,40
37.7674,37
37.8045,44
37.8417,27
37.8788,30
37.9160,33
37.9531,29
37.9903,31
38.0274,37
38.0646,21
38.1017,41
38.1389,27
38.1760,27
38.2132,32
38.2503,37
38.2875,29
38.3246,29
38.3618,37
38.3989,30
38.4361,23
38.4732,37
38.5104,40
38.5475,18
38.5847,26
38.6218,21
38.6590,34
38.6961,34
38.7333,19
38.7704,21
38.8076,39
38.8447,29
38.8819,33
38.9190,33
38.9562,33
38.9933,30
39.0305,33
39.0677,29
39.1048,33
39.1420,24
39.1791,23
39.2163,33
39.2534,37
39.2906,29
39.3277,34
39.3649,22
39.4020,47
39.4392,37
39.4763,32
39.5135,31
39.5506,32
39.5878,37
39.6249,26
39.6621,39
39.6992,21
39.7364,31
39.7735,28
39.8107,36
39.8478,18
39.8850,38
39.9221,31
39.9593,32
39.9964,40
40.0336,33
40.0707,36
40.1079,16
40.1450,31
40.1822,23
40.2193,27
40.2565,37
40.2936,28
40.3308,23
40.3679,28
40.4051,25
40.4422,34
40.4794,18
40.5165,35
40.5537,22
40.5908,20
40.6280,26
40.6652,30
40.7023,24
40.7395,41
40.7766,28
40.8138,30
40.8509,25
40.8881,23
40.9252,38
40.9624,24
40.9995,32
41.0367,31
41.0738,36
41.1110,28
41.1481,33
41.1853,33
41.2224,31
41.2596,29
41.2967,34
41.3339,33
41.3710,28
41.4082,35
41.4453,27
41.4825,15
41.5196,28
41.5568,32
41.5939,23
41.6311,23
41.6682,32
41.7054,26
41.7425,25
41.7797,33
41.8168,36
41.8540,16
41.8911,29
41.9283,23
41.9654,19
42.0026,25
42.0397,23
42.0769,21
42.1140,21
42.1512,31
42.1884,31
42.2255,31
42.2627,31
42.2998,33
42.3370,29
42.3741,28
42.4113,23
42.4484,22
42.4856,32
42.5227,25
42.5599,33
42.5970,17
42.6342,22
42.6713,25
42.7085,37
42.7456,39
42.7828,33
42.8199,24
42.8571,36
42.8942,35
42.9314,35
42.9685,27
43.0057,31
43.0428,33
43.0800,25
43.1171,27
43.1543,22
43.1914,33
43.2286,34
43.2657,29
43.3029,32
43.3400,30
43.3772,35
43.4143,33
43.4515,33
43.4886,39
43.5258,40
43.5629,31
43.6001,30
43.6372,35
43.6744,40
43.7116,39
43.7487,30
43.7859,27
43.8230,27
43.8602,26
43.8973,35
43.9345,26
43.9716,22
44.0088,20
44.0459,23
44.0831,25
44.1202,29
44.1574,30
44.1945,30
44.2317,28
44.2688,31
44.3060,22
44.3431,28
44.3803,23
44.4174,28
44.4546,25
44.4917,29
44.5289,19
44.5660,27
44.6032,25
44.6403,29
44.6775,21
44.7146,31
44.7518,28
44.7889,21
44.8261,27
44.8632,41
44.9004,31
44.9375,19
44.9747,23
45.0118,22
45.0490,31
45.0861,32
45.1233,23
45.1604,26
45.1976,30
45.2347,28
45.2719,19
45.3091,15
45.3462,21
45.3834,21
45.4205,19
45.4577,20
45.4948,19
45.5320,30
45.5691,32
45.6063,25
45.6434,19
45.6806,34
45.7177,25
45.7549,27
45.7920,24
45.8292,23
45.8663,25
45.9035,24
45.9406,22
45.9778,27
46.0149,29
46.0521,29
46.0892,30
46.1264,25
46.1635,21
46.2007,22
46.2378,27
46.2750,33
46.3121,19
46.3493,14
46.3864,33
46.4236,28
46.4607,27
46.4979,23
46.5350,21
46.5722,22
46.6093,31
46.6465,26
46.6836,22
46.7208,29
46.7579,23
46.7951,23
46.8323,31
46.8694,24
46.9066,26
46.9437,28
46.9809,21
47.0180,22
47.0552,19
47.0923,28
47.1295,22
47.1666,29
47.2038,24
47.2409,21
47.2781,30
47.3152,26
47.3524,23
47.3895,26
47.4267,22
47.4638,24
47.5010,17
47.5381,27
47.5753,27
47.6124,24
47.6496,29
47.6867,18
47.7239,24
47.7610,17
47.7982,18
47.8353,34
47.8725,23
47.9096,23
47.9468,16
47.9839,22
48.0211,21
48.0582,15
48.0954,24
48.1325,30
48.1697,20
48.2068,23
48.2440,22
48.2811,16
48.3183,26
48.3555,25
48.3926,25
48.4298,28
48.4669,19
48.5041,30
48.5412,25
48.5784,22
48.6155,25
48.6527,27
48.6898,21
48.7270,27
48.7641,15
48.8013,18
48.8384,30
48.8756,25
48.9127,31
48.9499,42
48.9870,38
49.0242,31
49.0613,32
49.0985,38
49.1356,29
49.1728,20
49.2099,28
49.2471,20
49.2842,20
49.3214,24
49.3585,29
49.3957,29
49.4328,13
49.4700,35
49.5071,24
49.5443,28
49.5814,19
49.6186,19
49.6557,34
49.6929,22
49.7300,30
49.7672,28
49.8043,32
49.8415,19
49.8786,24
49.9158,33
49.9530,20
49.9901,25
50.0273,23
50.0644,20
50.1016,30
50.1387,15
50.1759,24
50.2130,19
50.2502,25
50.2873,15
50.3245,20
50.3616,25
50.3988,20
50.4359,25
50.4731,20
50.5102,27
50.5474,18
50.5845,19
50.6217,31
50.6588,16
50.6960,27
50.7331,25
50.7703,20
50.8074,23
50.8446,19
50.8817,25
50.9189,23
50.9560,17
50.9932,18
51.0303,25
51.0675,26
51.1046,18
51.1418,19
51.1789,29
51.2161,22
51.2532,25
51.2904,24
51.3275,27
51.3647,21
51.4018,26
51.4390,23
51.4762,19
51.5133,22
51.5505,21
51.5876,15
51.6248,15
51.6619,21
51.6991,15
51.7362,31
51.7734,23
51.8105,19
51.8477,22
51.8848,26
51.9220,22
51.9591,20
51.9963,20
52.0334,24
52.0706,17
52.1077,22
52.1449,18
52.1820,21
52.2192,22
52.2563,25
52.2935,25
52.3306,20
52.3678,24
52.4049,27
52.4421,16
52.4792,21
52.5164,22
52.5535,29
52.5907,24
52.6278,23
52.6650,17
52.7021,32
52.7393,15
52.7764,19
52.8136,18
52.8507,21
52.8879,26
52.9250,28
52.9622,14
52.9994,19
53.0365,23
53.0737,27
53.1108,28
53.1480,26
53.1851,33
53.2223,30
53.2594,18
53.2966,19
53.3337,28
53.3709,13
53.4080,24
53.4452,22
53.4823,19
53.5195,25
53.5566,20
53.5938,22
53.6309,8
53.6681,24
53.7052,9
53.7424,25
53.7795,19
53.8167,18
53.8538,19
53.8910,19
53.9281,18
53.9653,39
54.0024,23
54.0396,23
54.0767,28
54.1139,18
54.1510,26
54.1882,29
54.2253,28
54.2625,25
54.2996,25
54.3368,23
54.3739,23
54.4111,24
54.4482,26
54.4854,25
54.5225,22
54.5597,12
54.5969,20
54.6340,28
54.6712,14
54.7083,15
54.7455,20
54.7826,16
54.8198,18
54.8569,18
54.8941,21
54.9312,16
54.9684,28
55.0055,18
55.0427,27
55.0798,18
55.1170,15
55.1541,21
55.1913,25
55.2284,21
55.2656,21
55.3027,26
55.3399,21
55.3770,21
55.4142,25
55.4513,15
55.4885,17
55.5256,25
55.5628,16
55.5999,28
55.6371,21
55.6742,24
55.7114,17
55.7485,22
55.7857,18
55.8228,18
55.8600,19
55.8971,12
55.9343,19
55.9714,14
56.0086,24
56.0457,24
56.0829,15
56.1201,21
56.1572,24
56.1944,15
56.2315,24
56.2687,20
56.3058,19
56.3430,26
56.3801,26
56.4173,32
56.4544,21
56.4916,19
56.5287,23
56.5659,21
56.6030,29
56.6402,18
56.6773,17
56.7145,22
56.7516,16
56.7888,18
56.8259,22
56.8631,28
56.9002,26
56.9374,26
56.9745,20
57.0117,28
57.0488,13
57.0860,19
57.1231,20
57.1603,22
57.1974,14
57.2346,20
57.2717,17
57.3089,24
57.3460,22
57.3832,16
57.4203,23
57.4575,24
57.4946,22
57.5318,26
57.5689,29
57.6061,27
57.6433,15
57.6804,27
57.7176,26
57.7547,17
57.7919,24
57.8290,18
57.8662,22
57.9033,27
57.9405,22
57.9776,14
58.0148,17
58.0519,21
58.0891,21
58.1262,24
58.1634,15
58.2005,15
58.2377,18
58.2748,18
58.3120,16
58.3491,21
58.3863,13
58.4234,16
58.4606,13
58.4977,16
58.5349,23
58.5720,19
58.6092,23
58.6463,12
58.6835,25
58.7206,18
58.7578,14
58.7949,24
58.8321,27
58.8692,20
58.9064,21
58.9435,24
58.9807,20
59.0178,25
59.0550,17
59.0921,24
59.1293,20
59.1664,20
59.2036,17
59.2408,23
59.2779,23
59.3151,17
59.3522,21
59.3894,23
59.4265,21
59.4637,20
59.5008,17
59.5380,24
59.5751,21
59.6123,17
59.6494,21
59.6866,22
59.7237,21
59.7609,16
59.7980,19
59.8352,22
59.8723,21
59.9095,15
59.9466,18
59.9838,19
60.0024,26