File: notebooks/data/xrd_data/ML_20220720_8_SJD_4_LaB6-1min.csv
;,2THETA,
5.0000,84
5.0372,92
5.0743,97
5.1115,88
5.1486,88
5.1858,82
5.2229,93
5.2601,88
5.2972,89
5.3344,78
5.3715,88
5.4087,95
5.4458,77
5.4830,104
5.5201,60
5.5573,76
5.5944,82
5.6316,75
5.6687,88
5.7059,68
5.7430,77
5.7802,65
5.8173,77
5.8545,76
5.8916,51
5.9288,86
5.9659,76
6.0031,80
6.0402,90
6.0774,75
6.1145,83
6.1517,76
6.1888,67
6.2260,58
6.2631,81
6.3003,73
6.3374,51
6.3746,78
6.4117,74
6.4489,60
6.4860,61
6.5232,57
6.5604,60
6.5975,53
6.6347,66
6.6718,79
6.7090,51
6.7461,61
6.7833,67
6.8204,54
6.8576,53
6.8947,69
6.9319,60
6.9690,53
7.0062,59
7.0433,65
7.0805,60
7.1176,59
7.1548,79
7.1919,60
7.2291,51
7.2662,68
7.3034,63
7.3405,59
7.3777,50
7.4148,52
7.4520,55
7.4891,58
7.5263,63
7.5634,61
7.6006,64
7.6377,68
7.6749,61
7.7120,62
7.7492,52
7.7863,66
7.8235,68
7.8606,61
7.8978,67
7.9349,75
7.9721,78
8.0092,61
8.0464,63
8.0835,70
8.1207,68
8.1579,67
8.1950,57
8.2322,70
8.2693,68
8.3065,66
8.3436,55
8.3808,65
8.4179,70
8.4551,68
8.4922,60
8.5294,74
8.5665,64
8.6037,62
8.6408,70
8.6780,80
8.7151,66
8.7523,75
8.7894,64
8.8266,71
8.8637,74
8.9009,82
8.9380,75
8.9752,71
9.0123,88
9.0495,72
9.0866,98
9.1238,57
9.1609,84
9.1981,89
9.2352,78
9.2724,68
9.3095,83
9.3467,65
9.3838,72
9.4210,67
9.4581,75
9.4953,85
9.5324,87
9.5696,78
9.6067,78
9.6439,76
9.6811,97
9.7182,68
9.7554,57
9.7925,79
9.8297,102
9.8668,95
9.9040,75
9.9411,80
9.9783,90
10.0154,91
10.0526,79
10.0897,96
10.1269,81
10.1640,93
10.2012,76
10.2383,81
10.2755,74
10.3126,91
10.3498,87
10.3869,98
10.4241,73
10.4612,99
10.4984,81
10.5355,80
10.5727,87
10.6098,88
10.6470,72
10.6841,93
10.7213,82
10.7584,84
10.7956,81
10.8327,90
10.8699,77
10.9070,87
10.9442,88
10.9813,85
11.0185,71
11.0556,76
11.0928,93
11.1299,86
11.1671,86
11.2043,93
11.2414,78
11.2786,90
11.3157,85
11.3529,102
11.3900,84
11.4272,77
11.4643,86
11.5015,89
11.5386,80
11.5758,96
11.6129,79
11.6501,75
11.6872,79
11.7244,78
11.7615,74
11.7987,76
11.8358,78
11.8730,78
11.9101,80
11.9473,76
11.9844,74
12.0216,76
12.0587,74
12.0959,79
12.1330,87
12.1702,84
12.2073,84
12.2445,70
12.2816,78
12.3188,93
12.3559,78
12.3931,65
12.4302,70
12.4674,81
12.5045,79
12.5417,76
12.5788,84
12.6160,73
12.6531,84
12.6903,89
12.7274,72
12.7646,76
12.8018,74
12.8389,76
12.8761,78
12.9132,70
12.9504,75
12.9875,78
13.0247,64
13.0618,61
13.0990,82
13.1361,55
13.1733,68
13.2104,71
13.2476,75
13.2847,87
13.3219,82
13.3590,77
13.3962,84
13.4333,59
13.4705,65
13.5076,74
13.5448,78
13.5819,73
13.6191,67
13.6562,73
13.6934,52
13.7305,59
13.7677,43
13.8048,64
13.8420,74
13.8791,63
13.9163,51
13.9534,59
13.9906,60
14.0277,68
14.0649,67
14.1020,61
14.1392,87
14.1763,68
14.2135,72
14.2506,53
14.2878,65
14.3250,65
14.3621,56
14.3993,66
14.4364,60
14.4736,61
14.5107,62
14.5479,56
14.5850,58
14.6222,72
14.6593,65
14.6965,58
14.7336,81
14.7708,67
14.8079,53
14.8451,51
14.8822,63
14.9194,57
14.9565,58
14.9937,48
15.0308,80
15.0680,48
15.1051,61
15.1423,63
15.1794,72
15.2166,62
15.2537,59
15.2909,44
15.3280,56
15.3652,63
15.4023,66
15.4395,54
15.4766,56
15.5138,73
15.5509,70
15.5881,63
15.6252,59
15.6624,66
15.6995,66
15.7367,66
15.7738,70
15.8110,48
15.8482,62
15.8853,63
15.9225,52
15.9596,41
15.9968,65
16.0339,52
16.0711,48
16.1082,54
16.1454,45
16.1825,68
16.2197,47
16.2568,59
16.2940,61
16.3311,63
16.3683,61
16.4054,53
16.4426,45
16.4797,65
16.5169,60
16.5540,55
16.5912,72
16.6283,65
16.6655,67
16.7026,49
16.7398,53
16.7769,61
16.8141,61
16.8512,62
16.8884,72
16.9255,61
16.9627,58
16.9998,65
17.0370,58
17.0741,54
17.1113,73
17.1484,54
17.1856,62
17.2227,56
17.2599,82
17.2970,71
17.3342,60
17.3713,56
17.4085,48
17.4457,46
17.4828,53
17.5200,52
17.5571,55
17.5943,58
17.6314,65
17.6686,50
17.7057,64
17.7429,55
17.7800,58
17.8172,59
17.8543,51
17.8915,55
17.9286,59
17.9658,67
18.0029,57
18.0401,65
18.0772,65
18.1144,74
18.1515,65
18.1887,52
18.2258,63
18.2630,61
18.3001,53
18.3373,67
18.3744,54
18.4116,56
18.4487,57
18.4859,69
18.5230,71
18.5602,62
18.5973,50
18.6345,52
18.6716,69
18.7088,58
18.7459,57
18.7831,54
18.8202,50
18.8574,61
18.8945,58
18.9317,60
18.9689,56
19.0060,78
19.0432,52
19.0803,52
19.1175,61
19.1546,50
19.1918,52
19.2289,61
19.2661,59
19.3032,62
19.3404,51
19.3775,61
19.4147,57
19.4518,65
19.4890,65
19.5261,58
19.5633,64
19.6004,64
19.6376,80
19.6747,61
19.7119,66
19.7490,68
19.7862,61
19.8233,65
19.8605,86
19.8976,65
19.9348,72
19.9719,67
20.0091,61
20.0462,68
20.0834,75
20.1205,58
20.1577,74
20.1948,74
20.2320,71
20.2691,78
20.3063,52
20.3434,58
20.3806,61
20.4177,70
20.4549,67
20.4921,59
20.5292,72
20.5664,51
20.6035,71
20.6407,70
20.6778,72
20.7150,75
20.7521,67
20.7893,73
20.8264,72
20.8636,62
20.9007,60
20.9379,62
20.9750,58
21.0122,72
21.0493,71
21.0865,69
21.1236,69
21.1608,93
21.1979,115
21.2351,122
21.2722,103
21.3094,142
21.3465,179
21.3837,133
21.4208,99
21.4580,74
21.4951,62
21.5323,83
21.5694,67
21.6066,62
21.6437,78
21.6809,66
21.7180,68
21.7552,69
21.7923,68
21.8295,83
21.8666,65
21.9038,74
21.9409,68
21.9781,82
22.0152,70
22.0524,66
22.0896,56
22.1267,75
22.1639,70
22.2010,70
22.2382,67
22.2753,87
22.3125,54
22.3496,70
22.3868,75
22.4239,59
22.4611,74
22.4982,84
22.5354,72
22.5725,63
22.6097,63
22.6468,77
22.6840,67
22.7211,81
22.7583,53
22.7954,76
22.8326,91
22.8697,67
22.9069,68
22.9440,94
22.9812,61
23.0183,71
23.0555,70
23.0926,67
23.1298,68
23.1669,71
23.2041,84
23.2412,67
23.2784,81
23.3155,65
23.3527,71
23.3898,77
23.4270,74
23.4641,87
23.5013,70
23.5384,71
23.5756,78
23.6128,76
23.6499,72
23.6871,60
23.7242,64
23.7614,71
23.7985,83
23.8357,66
23.8728,79
23.9100,71
23.9471,66
23.9843,83
24.0214,66
24.0586,78
24.0957,62
24.1329,80
24.1700,79
24.2072,75
24.2443,94
24.2815,79
24.3186,71
24.3558,87
24.3929,81
24.4301,65
24.4672,71
24.5044,62
24.5415,83
24.5787,75
24.6158,74
24.6530,77
24.6901,52
24.7273,84
24.7644,85
24.8016,81
24.8387,64
24.8759,66
24.9130,90
24.9502,70
24.9873,74
25.0245,67
25.0616,74
25.0988,94
25.1360,72
25.1731,68
25.2103,76
25.2474,64
25.2846,50
25.3217,59
25.3589,66
25.3960,69
25.4332,72
25.4703,77
25.5075,71
25.5446,68
25.5818,79
25.6189,68
25.6561,74
25.6932,54
25.7304,58
25.7675,68
25.8047,62
25.8418,61
25.8790,81
25.9161,80
25.9533,91
25.9904,76
26.0276,71
26.0647,79
26.1019,55
26.1390,65
26.1762,80
26.2133,65
26.2505,80
26.2876,71
26.3248,63
26.3619,76
26.3991,78
26.4362,58
26.4734,71
26.5105,73
26.5477,68
26.5848,70
26.6220,57
26.6591,62
26.6963,56
26.7335,86
26.7706,70
26.8078,71
26.8449,74
26.8821,68
26.9192,87
26.9564,70
26.9935,72
27.0307,76
27.0678,83
27.1050,74
27.1421,79
27.1793,89
27.2164,87
27.2536,85
27.2907,72
27.3279,66
27.3650,69
27.4022,61
27.4393,67
27.4765,69
27.5136,66
27.5508,78
27.5879,61
27.6251,62
27.6622,73
27.6994,64
27.7365,67
27.7737,77
27.8108,66
27.8480,56
27.8851,59
27.9223,74
27.9594,64
27.9966,63
28.0337,58
28.0709,74
28.1080,53
28.1452,57
28.1823,57
28.2195,45
28.2567,57
28.2938,67
28.3310,55
28.3681,53
28.4053,68
28.4424,57
28.4796,78
28.5167,66
28.5539,57
28.5910,59
28.6282,58
28.6653,52
28.7025,75
28.7396,62
28.7768,58
28.8139,63
28.8511,66
28.8882,49
28.9254,41
28.9625,58
28.9997,59
29.0368,56
29.0740,48
29.1111,60
29.1483,50
29.1854,47
29.2226,64
29.2597,46
29.2969,69
29.3340,51
29.3712,51
29.4083,49
29.4455,47
29.4826,67
29.5198,48
29.5569,69
29.5941,56
29.6312,61
29.6684,52
29.7055,66
29.7427,54
29.7799,52
29.8170,61
29.8542,57
29.8913,49
29.9285,45
29.9656,47
30.0028,55
30.0399,58
30.0771,44
30.1142,49
30.1514,61
30.1885,79
30.2257,50
30.2628,48
30.3000,63
30.3371,88
30.3743,112
30.4114,72
30.4486,96
30.4857,60
30.5229,55
30.5600,52
30.5972,80
30.6343,54
30.6715,54
30.7086,50
30.7458,55
30.7829,61
30.8201,42
30.8572,53
30.8944,68
30.9315,53
30.9687,52
31.0058,46
31.0430,43
31.0801,55
31.1173,64
31.1544,54
31.1916,53
31.2287,53
31.2659,61
31.3030,59
31.3402,59
31.3774,59
31.4145,56
31.4517,44
31.4888,36
31.5260,45
31.5631,56
31.6003,71
31.6374,44
31.6746,43
31.7117,53
31.7489,38
31.7860,42
31.8232,47
31.8603,56
31.8975,51
31.9346,59
31.9718,45
32.0089,38
32.0461,35
32.0832,50
32.1204,54
32.1575,43
32.1947,35
32.2318,47
32.2690,56
32.3061,41
32.3433,53
32.3804,45
32.4176,55
32.4547,40
32.4919,45
32.5290,45
32.5662,58
32.6033,41
32.6405,39
32.6776,49
32.7148,50
32.7519,38
32.7891,53
32.8262,47
32.8634,54
32.9006,37
32.9377,53
32.9749,41
33.0120,47
33.0492,34
33.0863,40
33.1235,37
33.1606,39
33.1978,40
33.2349,44
33.2721,47
33.3092,51
33.3464,37
33.3835,42
33.4207,37
33.4578,40
33.4950,43
33.5321,47
33.5693,47
33.6064,37
33.6436,45
33.6807,40
33.7179,38
33.7550,50
33.7922,46
33.8293,38
33.8665,42
33.9036,42
33.9408,37
33.9779,36
34.0151,43
34.0522,43
34.0894,35
34.1265,44
34.1637,43
34.2008,50
34.2380,39
34.2751,42
34.3123,38
34.3494,41
34.3866,38
34.4238,52
34.4609,39
34.4981,36
34.5352,46
34.5724,46
34.6095,53
34.6467,42
34.6838,33
34.7210,57
34.7581,65
34.7953,50
34.8324,37
34.8696,48
34.9067,36
34.9439,52
34.9810,45
35.0182,40
35.0553,40
35.0925,42
35.1296,35
35.1668,42
35.2039,30
35.2411,36
35.2782,49
35.3154,31
35.3525,39
35.3897,33
35.4268,41
35.4640,26
35.5011,34
35.5383,29
35.5754,41
35.6126,35
35.6497,44
35.6869,36
35.7240,30
35.7612,46
35.7983,31
35.8355,31
35.8726,40
35.9098,29
35.9469,44
35.9841,36
36.0213,27
36.0584,29
36.0956,37
36.1327,31
36.1699,32
36.2070,31
36.2442,31
36.2813,37
36.3185,22
36.3556,37
36.3928,44
36.4299,24
36.4671,43
36.5042,41
36.5414,31
36.5785,30
36.6157,25
36.6528,23
36.6900,39
36.7271,36
36.7643,31
36.8014,33
36.8386,31
36.8757,32
36.9129,34
36.9500,31
36.9872,43
37.0243,29
37.0615,33
37.0986,31
37.1358,40
37.1729,34
37.2101,37
37.2472,34
37.2844,32
37.3215,34
37.3587,37
37.3958,50
37.4330,54
37.4701,42
37.5073,44
37.5445,38
37.5816,21
37.6188,31
37.6559,31
37.6931,36
37.7302,24
37.7674,36
37.8045,35
37.8417,29
37.8788,25
37.9160,37
37.9531,29
37.9903,37
38.0274,23
38.0646,26
38.1017,23
38.1389,30
38.1760,29
38.2132,28
38.2503,27
38.2875,33
38.3246,28
38.3618,46
38.3989,27
38.4361,29
38.4732,24
38.5104,31
38.5475,37
38.5847,34
38.6218,26
38.6590,33
38.6961,38
38.7333,34
38.7704,28
38.8076,29
38.8447,21
38.8819,30
38.9190,35
38.9562,35
38.9933,26
39.0305,25
39.0677,19
39.1048,28
39.1420,24
39.1791,34
39.2163,26
39.2534,30
39.2906,31
39.3277,32
39.3649,27
39.4020,30
39.4392,35
39.4763,30
39.5135,29
39.5506,38
39.5878,18
39.6249,29
39.6621,32
39.6992,32
39.7364,38
39.7735,30
39.8107,29
39.8478,23
39.8850,25
39.9221,26
39.9593,19
39.9964,27
40.0336,35
40.0707,27
40.1079,31
40.1450,26
40.1822,24
40.2193,32
40.2565,27
40.2936,23
40.3308,28
40.3679,24
40.4051,28
40.4422,27
40.4794,19
40.5165,28
40.5537,23
40.5908,26
40.6280,26
40.6652,26
40.7023,35
40.7395,24
40.7766,20
40.8138,35
40.8509,21
40.8881,26
40.9252,21
40.9624,34
40.9995,22
41.0367,26
41.0738,40
41.1110,37
41.1481,26
41.1853,31
41.2224,27
41.2596,27
41.2967,23
41.3339,22
41.3710,32
41.4082,24
41.4453,41
41.4825,31
41.5196,28
41.5568,38
41.5939,26
41.6311,21
41.6682,23
41.7054,25
41.7425,31
41.7797,31
41.8168,25
41.8540,19
41.8911,23
41.9283,23
41.9654,31
42.0026,34
42.0397,34
42.0769,21
42.1140,22
42.1512,21
42.1884,32
42.2255,21
42.2627,31
42.2998,28
42.3370,23
42.3741,35
42.4113,27
42.4484,29
42.4856,27
42.5227,31
42.5599,28
42.5970,31
42.6342,27
42.6713,35
42.7085,25
42.7456,28
42.7828,27
42.8199,23
42.8571,31
42.8942,34
42.9314,21
42.9685,36
43.0057,21
43.0428,20
43.0800,24
43.1171,36
43.1543,35
43.1914,22
43.2286,31
43.2657,39
43.3029,26
43.3400,24
43.3772,36
43.4143,25
43.4515,37
43.4886,43
43.5258,42
43.5629,39
43.6001,40
43.6372,32
43.6744,20
43.7116,25
43.7487,31
43.7859,35
43.8230,36
43.8602,31
43.8973,22
43.9345,24
43.9716,30
44.0088,23
44.0459,30
44.0831,31
44.1202,22
44.1574,26
44.1945,30
44.2317,24
44.2688,23
44.3060,26
44.3431,26
44.3803,25
44.4174,29
44.4546,29
44.4917,26
44.5289,24
44.5660,28
44.6032,33
44.6403,30
44.6775,18
44.7146,24
44.7518,31
44.7889,18
44.8261,27
44.8632,21
44.9004,24
44.9375,32
44.9747,28
45.0118,37
45.0490,28
45.0861,23
45.1233,32
45.1604,24
45.1976,26
45.2347,27
45.2719,27
45.3091,21
45.3462,38
45.3834,31
45.4205,15
45.4577,24
45.4948,20
45.5320,22
45.5691,21
45.6063,29
45.6434,26
45.6806,26
45.7177,28
45.7549,31
45.7920,31
45.8292,19
45.8663,18
45.9035,27
45.9406,22
45.9778,22
46.0149,24
46.0521,22
46.0892,22
46.1264,16
46.1635,23
46.2007,25
46.2378,21
46.2750,31
46.3121,22
46.3493,20
46.3864,25
46.4236,23
46.4607,23
46.4979,42
46.5350,17
46.5722,21
46.6093,24
46.6465,16
46.6836,22
46.7208,19
46.7579,21
46.7951,24
46.8323,26
46.8694,27
46.9066,19
46.9437,22
46.9809,25
47.0180,23
47.0552,23
47.0923,20
47.1295,22
47.1666,28
47.2038,19
47.2409,26
47.2781,25
47.3152,29
47.3524,30
47.3895,28
47.4267,27
47.4638,29
47.5010,29
47.5381,29
47.5753,24
47.6124,17
47.6496,20
47.6867,23
47.7239,24
47.7610,26
47.7982,31
47.8353,25
47.8725,24
47.9096,26
47.9468,22
47.9839,21
48.0211,22
48.0582,24
48.0954,24
48.1325,24
48.1697,23
48.2068,17
48.2440,22
48.2811,25
48.3183,23
48.3555,32
48.3926,29
48.4298,19
48.4669,31
48.5041,21
48.5412,20
48.5784,26
48.6155,16
48.6527,26
48.6898,24
48.7270,14
48.7641,26
48.8013,28
48.8384,28
48.8756,36
48.9127,39
48.9499,49
48.9870,33
49.0242,24
49.0613,31
49.0985,26
49.1356,25
49.1728,22
49.2099,15
49.2471,27
49.2842,29
49.3214,24
49.3585,25
49.3957,23
49.4328,29
49.4700,20
49.5071,25
49.5443,22
49.5814,18
49.6186,26
49.6557,23
49.6929,20
49.7300,22
49.7672,27
49.8043,27
49.8415,25
49.8786,29
49.9158,18
49.9530,29
49.9901,20
50.0273,18
50.0644,18
50.1016,33
50.1387,31
50.1759,25
50.2130,19
50.2502,22
50.2873,32
50.3245,33
50.3616,23
50.3988,16
50.4359,22
50.4731,17
50.5102,16
50.5474,22
50.5845,27
50.6217,27
50.6588,17
50.6960,24
50.7331,19
50.7703,29
50.8074,24
50.8446,33
50.8817,19
50.9189,22
50.9560,22
50.9932,24
51.0303,16
51.0675,25
51.1046,27
51.1418,30
51.1789,20
51.2161,13
51.2532,28
51.2904,24
51.3275,22
51.3647,28
51.4018,23
51.4390,22
51.4762,24
51.5133,24
51.5505,27
51.5876,24
51.6248,24
51.6619,25
51.6991,25
51.7362,23
51.7734,28
51.8105,23
51.8477,39
51.8848,23
51.9220,18
51.9591,27
51.9963,24
52.0334,26
52.0706,19
52.1077,29
52.1449,20
52.1820,23
52.2192,20
52.2563,21
52.2935,23
52.3306,15
52.3678,23
52.4049,28
52.4421,25
52.4792,18
52.5164,18
52.5535,22
52.5907,23
52.6278,21
52.6650,32
52.7021,16
52.7393,10
52.7764,20
52.8136,21
52.8507,20
52.8879,17
52.9250,21
52.9622,16
52.9994,18
53.0365,22
53.0737,16
53.1108,23
53.1480,26
53.1851,22
53.2223,22
53.2594,24
53.2966,15
53.3337,14
53.3709,22
53.4080,22
53.4452,19
53.4823,20
53.5195,26
53.5566,23
53.5938,17
53.6309,27
53.6681,25
53.7052,26
53.7424,17
53.7795,15
53.8167,17
53.8538,25
53.8910,21
53.9281,29
53.9653,32
54.0024,23
54.0396,22
54.0767,24
54.1139,22
54.1510,24
54.1882,26
54.2253,22
54.2625,22
54.2996,18
54.3368,24
54.3739,24
54.4111,16
54.4482,21
54.4854,19
54.5225,21
54.5597,23
54.5969,23
54.6340,16
54.6712,23
54.7083,20
54.7455,20
54.7826,23
54.8198,20
54.8569,18
54.8941,17
54.9312,19
54.9684,28
55.0055,25
55.0427,17
55.0798,15
55.1170,23
55.1541,30
55.1913,24
55.2284,22
55.2656,11
55.3027,22
55.3399,12
55.3770,17
55.4142,29
55.4513,18
55.4885,22
55.5256,22
55.5628,21
55.5999,13
55.6371,23
55.6742,19
55.7114,24
55.7485,17
55.7857,33
55.8228,15
55.8600,19
55.8971,18
55.9343,19
55.9714,29
56.0086,27
56.0457,30
56.0829,26
56.1201,34
56.1572,22
56.1944,26
56.2315,26
56.2687,23
56.3058,19
56.3430,33
56.3801,14
56.4173,15
56.4544,22
56.4916,11
56.5287,20
56.5659,23
56.6030,17
56.6402,21
56.6773,20
56.7145,26
56.7516,15
56.7888,16
56.8259,21
56.8631,18
56.9002,21
56.9374,20
56.9745,17
57.0117,21
57.0488,14
57.0860,25
57.1231,18
57.1603,14
57.1974,25
57.2346,25
57.2717,15
57.3089,26
57.3460,24
57.3832,16
57.4203,16
57.4575,22
57.4946,13
57.5318,16
57.5689,26
57.6061,31
57.6433,19
57.6804,18
57.7176,20
57.7547,16
57.7919,17
57.8290,21
57.8662,24
57.9033,19
57.9405,25
57.9776,18
58.0148,15
58.0519,22
58.0891,17
58.1262,16
58.1634,13
58.2005,26
58.2377,17
58.2748,13
58.3120,19
58.3491,19
58.3863,25
58.4234,22
58.4606,17
58.4977,18
58.5349,25
58.5720,25
58.6092,20
58.6463,22
58.6835,19
58.7206,16
58.7578,16
58.7949,27
58.8321,20
58.8692,15
58.9064,24
58.9435,13
58.9807,25
59.0178,15
59.0550,18
59.0921,16
59.1293,17
59.1664,25
59.2036,22
59.2408,16
59.2779,24
59.3151,26
59.3522,22
59.3894,18
59.4265,19
59.4637,20
59.5008,27
59.5380,25
59.5751,24
59.6123,17
59.6494,16
59.6866,15
59.7237,18
59.7609,19
59.7980,22
59.8352,19
59.8723,20
59.9095,21
59.9466,20
59.9838,26
60.0024,17