File: notebooks/data/xrd_data/ML_20220721_37_SJD_4_LaB6-4min.uxd
; (content of file Y:\Sam\Apurva-07-20-2022\puck1\ML_20220721_37_SJD_0_LaB6-4min.raw)
_FILEVERSION = 3
_SAMPLE = ML_20220721_37_SJD_0_LaB6-4min
_+SAMPLE =
_SITE = USA
_USER = Administrator
_GONIOMETER_CODE = 20
; Goniometer : D8 theta/2theta, stage : Unknown
_ATTACHMENTS_CODE = 0
_GONIOMETER_RADIUS = 200.5
_FIXED_DIVSLIT = 0.6
_FIXED_SAMPLESLIT = 0
_SOLLER_SLITS = 2
_FIXED_DETSLIT = 9.55
_MONOCHROMATOR = 0
; Incident beam monochromator : None
_SOLLER_SLITS_2 = N
_THIN_FILM = N
_BETA_FILTER = Y
_FIXED_ANTISLIT = 5.89
_ANALYZER_CODE = 0
; Received beam analyzer : None
_DATEMEASURED = "25-Jul-2022 16:38:20"
_WL_UNIT = A
_WL1 = 1.5406
_WL2 = 1.54439
_WL3 = 1.39222
_WLRATIO = 0.5
_ANODE = Cu
_V4_INF_CREATOR = XRDWizard
_V4_INF_CREATOR_VERSION = V2.9.0.22
_V4_INF_WIZARD_VERSION = V2.9.0.22
_V4_INF_WIZARD_ADDINS = V2.9.0.22
_V4_INF_WIZARD_DOCTYPE = XRD
_V4_INF_OSUSER = McQueenLab
_V4_INF_USER = Administrator
_V4_INF_SITE = USA
_V4_INF_SAMPLEID = ML_20220721_37_SJD_0_LaB6-4min

; Data for range 1
_DRIVE = COUPLED
_STEPTIME = 11.28
_STEPSIZE = 0.0185756
_STEPMODE = C
_START = 5
_THETA = 2.5
_2THETA = 5
_KHI = 0
_PHI = 0
_X = 0
_Y = 0
_Z = 0
_DETECTOR = 5
; Detector type : Unknown
_DETECTORSLIT = unkn
_AUX1 = 0
_AUX2 = 0
_AUX3 = 0
_TIMESTARTED = 14
_TEMP_RATE = -1
_TEMP_DELAY = -1
_KV = 40
_MA = 40
_RANGE_WL = 1.5406
_3DPLANE = 0
_V4_ADDITIONALDETECTOR = 257
_V4_PSD2THETA = 3.3877
_V4_PSDCHANNEL1 = 0
_V4_PSDAPERTURE = 12.68
_V4_PSDTYPE = 5
_V4_PSDFIXED = 0
_V4_COUNTERS_MASK = 4096
_V4_DRIVES_MASK = 0
_V4_ENCODERS_MASK = 0
_2THETACOUNTS = 1
; 2THETA  PSD
   5.0000        276
   5.0372        257
   5.0743        290
   5.1115        250
   5.1486        261
   5.1858        253
   5.2229        241
   5.2601        231
   5.2972        243
   5.3344        257
   5.3715        261
   5.4087        237
   5.4458        224
   5.4830        234
   5.5201        226
   5.5573        237
   5.5944        216
   5.6316        200
   5.6687        220
   5.7059        217
   5.7430        206
   5.7802        206
   5.8173        198
   5.8545        212
   5.8916        226
   5.9288        226
   5.9659        210
   6.0031        199
   6.0402        228
   6.0774        195
   6.1145        187
   6.1517        201
   6.1888        190
   6.2260        182
   6.2631        178
   6.3003        192
   6.3374        192
   6.3746        191
   6.4117        191
   6.4489        203
   6.4860        169
   6.5232        176
   6.5604        188
   6.5975        214
   6.6347        172
   6.6718        172
   6.7090        188
   6.7461        181
   6.7833        181
   6.8204        163
   6.8576        167
   6.8947        172
   6.9319        160
   6.9690        159
   7.0062        171
   7.0433        176
   7.0805        160
   7.1176        183
   7.1548        146
   7.1919        178
   7.2291        184
   7.2662        163
   7.3034        175
   7.3405        165
   7.3777        171
   7.4148        198
   7.4520        161
   7.4891        188
   7.5263        157
   7.5634        180
   7.6006        157
   7.6377        184
   7.6749        181
   7.7120        168
   7.7492        171
   7.7863        164
   7.8235        151
   7.8606        175
   7.8978        173
   7.9349        197
   7.9721        201
   8.0092        176
   8.0464        225
   8.0835        201
   8.1207        161
   8.1579        200
   8.1950        189
   8.2322        194
   8.2693        188
   8.3065        201
   8.3436        201
   8.3808        215
   8.4179        202
   8.4551        198
   8.4922        175
   8.5294        194
   8.5665        195
   8.6037        217
   8.6408        200
   8.6780        207
   8.7151        197
   8.7523        196
   8.7894        203
   8.8266        200
   8.8637        209
   8.9009        244
   8.9380        236
   8.9752        202
   9.0123        189
   9.0495        252
   9.0866        221
   9.1238        206
   9.1609        229
   9.1981        231
   9.2352        231
   9.2724        236
   9.3095        196
   9.3467        195
   9.3838        194
   9.4210        230
   9.4581        207
   9.4953        197
   9.5324        264
   9.5696        224
   9.6067        237
   9.6439        229
   9.6811        205
   9.7182        197
   9.7554        218
   9.7925        234
   9.8297        232
   9.8668        241
   9.9040        233
   9.9411        217
   9.9783        263
  10.0154        246
  10.0526        226
  10.0897        238
  10.1269        220
  10.1640        264
  10.2012        266
  10.2383        231
  10.2755        231
  10.3126        253
  10.3498        241
  10.3869        260
  10.4241        269
  10.4612        246
  10.4984        231
  10.5355        254
  10.5727        243
  10.6098        250
  10.6470        255
  10.6841        257
  10.7213        250
  10.7584        249
  10.7956        259
  10.8327        250
  10.8699        234
  10.9070        259
  10.9442        231
  10.9813        258
  11.0185        250
  11.0556        216
  11.0928        269
  11.1299        247
  11.1671        219
  11.2043        251
  11.2414        236
  11.2786        249
  11.3157        256
  11.3529        247
  11.3900        246
  11.4272        279
  11.4643        248
  11.5015        249
  11.5386        264
  11.5758        254
  11.6129        225
  11.6501        243
  11.6872        242
  11.7244        245
  11.7615        256
  11.7987        234
  11.8358        235
  11.8730        247
  11.9101        211
  11.9473        206
  11.9844        271
  12.0216        236
  12.0587        233
  12.0959        213
  12.1330        215
  12.1702        193
  12.2073        229
  12.2445        207
  12.2816        233
  12.3188        243
  12.3559        236
  12.3931        217
  12.4302        219
  12.4674        210
  12.5045        245
  12.5417        251
  12.5788        202
  12.6160        232
  12.6531        207
  12.6903        189
  12.7274        230
  12.7646        196
  12.8018        212
  12.8389        231
  12.8761        235
  12.9132        191
  12.9504        213
  12.9875        223
  13.0247        199
  13.0618        170
  13.0990        225
  13.1361        188
  13.1733        203
  13.2104        208
  13.2476        206
  13.2847        197
  13.3219        201
  13.3590        189
  13.3962        188
  13.4333        213
  13.4705        214
  13.5076        198
  13.5448        161
  13.5819        210
  13.6191        204
  13.6562        191
  13.6934        226
  13.7305        217
  13.7677        190
  13.8048        201
  13.8420        195
  13.8791        196
  13.9163        183
  13.9534        168
  13.9906        175
  14.0277        164
  14.0649        177
  14.1020        176
  14.1392        203
  14.1763        186
  14.2135        172
  14.2506        180
  14.2878        190
  14.3250        159
  14.3621        177
  14.3993        178
  14.4364        173
  14.4736        180
  14.5107        176
  14.5479        190
  14.5850        177
  14.6222        138
  14.6593        175
  14.6965        169
  14.7336        190
  14.7708        160
  14.8079        152
  14.8451        174
  14.8822        174
  14.9194        168
  14.9565        171
  14.9937        165
  15.0308        160
  15.0680        165
  15.1051        175
  15.1423        175
  15.1794        165
  15.2166        198
  15.2537        162
  15.2909        171
  15.3280        134
  15.3652        153
  15.4023        178
  15.4395        163
  15.4766        184
  15.5138        162
  15.5509        141
  15.5881        162
  15.6252        182
  15.6624        171
  15.6995        161
  15.7367        172
  15.7738        152
  15.8110        165
  15.8482        137
  15.8853        175
  15.9225        155
  15.9596        204
  15.9968        173
  16.0339        170
  16.0711        159
  16.1082        156
  16.1454        156
  16.1825        156
  16.2197        165
  16.2568        152
  16.2940        202
  16.3311        168
  16.3683        157
  16.4054        176
  16.4426        181
  16.4797        163
  16.5169        136
  16.5540        170
  16.5912        163
  16.6283        167
  16.6655        165
  16.7026        160
  16.7398        188
  16.7769        144
  16.8141        179
  16.8512        167
  16.8884        172
  16.9255        142
  16.9627        155
  16.9998        180
  17.0370        178
  17.0741        157
  17.1113        151
  17.1484        172
  17.1856        145
  17.2227        159
  17.2599        173
  17.2970        170
  17.3342        188
  17.3713        152
  17.4085        149
  17.4457        179
  17.4828        168
  17.5200        179
  17.5571        145
  17.5943        165
  17.6314        175
  17.6686        170
  17.7057        149
  17.7429        172
  17.7800        185
  17.8172        168
  17.8543        151
  17.8915        175
  17.9286        167
  17.9658        169
  18.0029        179
  18.0401        146
  18.0772        159
  18.1144        156
  18.1515        178
  18.1887        140
  18.2258        173
  18.2630        159
  18.3001        183
  18.3373        155
  18.3744        171
  18.4116        181
  18.4487        167
  18.4859        173
  18.5230        156
  18.5602        161
  18.5973        161
  18.6345        167
  18.6716        159
  18.7088        173
  18.7459        173
  18.7831        154
  18.8202        178
  18.8574        167
  18.8945        178
  18.9317        170
  18.9689        148
  19.0060        177
  19.0432        161
  19.0803        169
  19.1175        169
  19.1546        167
  19.1918        161
  19.2289        143
  19.2661        191
  19.3032        179
  19.3404        169
  19.3775        173
  19.4147        195
  19.4518        150
  19.4890        197
  19.5261        187
  19.5633        168
  19.6004        182
  19.6376        171
  19.6747        174
  19.7119        154
  19.7490        172
  19.7862        175
  19.8233        182
  19.8605        204
  19.8976        189
  19.9348        172
  19.9719        185
  20.0091        171
  20.0462        180
  20.0834        180
  20.1205        175
  20.1577        191
  20.1948        174
  20.2320        193
  20.2691        200
  20.3063        181
  20.3434        179
  20.3806        210
  20.4177        170
  20.4549        196
  20.4921        192
  20.5292        194
  20.5664        182
  20.6035        172
  20.6407        180
  20.6778        205
  20.7150        194
  20.7521        205
  20.7893        200
  20.8264        199
  20.8636        199
  20.9007        192
  20.9379        193
  20.9750        190
  21.0122        207
  21.0493        204
  21.0865        186
  21.1236        212
  21.1608        229
  21.1979        303
  21.2351        336
  21.2722        300
  21.3094        321
  21.3465        486
  21.3837        431
  21.4208        369
  21.4580        220
  21.4951        225
  21.5323        203
  21.5694        226
  21.6066        186
  21.6437        195
  21.6809        188
  21.7180        214
  21.7552        191
  21.7923        229
  21.8295        218
  21.8666        167
  21.9038        178
  21.9409        216
  21.9781        187
  22.0152        202
  22.0524        194
  22.0896        189
  22.1267        179
  22.1639        193
  22.2010        207
  22.2382        210
  22.2753        179
  22.3125        202
  22.3496        207
  22.3868        210
  22.4239        194
  22.4611        199
  22.4982        196
  22.5354        193
  22.5725        204
  22.6097        211
  22.6468        212
  22.6840        172
  22.7211        223
  22.7583        228
  22.7954        206
  22.8326        197
  22.8697        199
  22.9069        215
  22.9440        222
  22.9812        239
  23.0183        200
  23.0555        199
  23.0926        208
  23.1298        185
  23.1669        193
  23.2041        206
  23.2412        209
  23.2784        201
  23.3155        189
  23.3527        190
  23.3898        204
  23.4270        234
  23.4641        192
  23.5013        218
  23.5384        201
  23.5756        217
  23.6128        197
  23.6499        197
  23.6871        188
  23.7242        210
  23.7614        189
  23.7985        204
  23.8357        202
  23.8728        181
  23.9100        184
  23.9471        211
  23.9843        190
  24.0214        182
  24.0586        226
  24.0957        185
  24.1329        187
  24.1700        195
  24.2072        210
  24.2443        220
  24.2815        242
  24.3186        227
  24.3558        219
  24.3929        198
  24.4301        193
  24.4672        210
  24.5044        216
  24.5415        202
  24.5787        241
  24.6158        195
  24.6530        182
  24.6901        194
  24.7273        203
  24.7644        214
  24.8016        231
  24.8387        192
  24.8759        198
  24.9130        168
  24.9502        212
  24.9873        191
  25.0245        215
  25.0616        213
  25.0988        192
  25.1360        191
  25.1731        207
  25.2103        178
  25.2474        216
  25.2846        199
  25.3217        208
  25.3589        208
  25.3960        213
  25.4332        195
  25.4703        184
  25.5075        218
  25.5446        196
  25.5818        181
  25.6189        180
  25.6561        195
  25.6932        212
  25.7304        216
  25.7675        207
  25.8047        184
  25.8418        206
  25.8790        210
  25.9161        198
  25.9533        204
  25.9904        213
  26.0276        180
  26.0647        194
  26.1019        170
  26.1390        184
  26.1762        198
  26.2133        213
  26.2505        201
  26.2876        214
  26.3248        188
  26.3619        188
  26.3991        195
  26.4362        197
  26.4734        206
  26.5105        189
  26.5477        176
  26.5848        215
  26.6220        177
  26.6591        179
  26.6963        193
  26.7335        180
  26.7706        201
  26.8078        195
  26.8449        178
  26.8821        204
  26.9192        188
  26.9564        183
  26.9935        189
  27.0307        201
  27.0678        192
  27.1050        205
  27.1421        221
  27.1793        218
  27.2164        229
  27.2536        230
  27.2907        217
  27.3279        197
  27.3650        198
  27.4022        220
  27.4393        161
  27.4765        187
  27.5136        184
  27.5508        191
  27.5879        195
  27.6251        198
  27.6622        195
  27.6994        179
  27.7365        182
  27.7737        190
  27.8108        184
  27.8480        181
  27.8851        173
  27.9223        164
  27.9594        178
  27.9966        183
  28.0337        180
  28.0709        174
  28.1080        178
  28.1452        176
  28.1823        170
  28.2195        182
  28.2567        169
  28.2938        187
  28.3310        180
  28.3681        163
  28.4053        145
  28.4424        167
  28.4796        177
  28.5167        150
  28.5539        185
  28.5910        168
  28.6282        141
  28.6653        173
  28.7025        180
  28.7396        149
  28.7768        169
  28.8139        169
  28.8511        157
  28.8882        159
  28.9254        164
  28.9625        174
  28.9997        170
  29.0368        130
  29.0740        166
  29.1111        196
  29.1483        152
  29.1854        151
  29.2226        171
  29.2597        167
  29.2969        158
  29.3340        151
  29.3712        160
  29.4083        161
  29.4455        142
  29.4826        164
  29.5198        156
  29.5569        164
  29.5941        162
  29.6312        164
  29.6684        183
  29.7055        148
  29.7427        160
  29.7799        152
  29.8170        157
  29.8542        158
  29.8913        158
  29.9285        146
  29.9656        175
  30.0028        144
  30.0399        167
  30.0771        150
  30.1142        157
  30.1514        147
  30.1885        153
  30.2257        178
  30.2628        161
  30.3000        177
  30.3371        222
  30.3743        301
  30.4114        268
  30.4486        228
  30.4857        206
  30.5229        171
  30.5600        185
  30.5972        174
  30.6343        146
  30.6715        160
  30.7086        138
  30.7458        151
  30.7829        127
  30.8201        164
  30.8572        150
  30.8944        121
  30.9315        142
  30.9687        146
  31.0058        156
  31.0430        155
  31.0801        139
  31.1173        132
  31.1544        126
  31.1916        145
  31.2287        133
  31.2659        140
  31.3030        160
  31.3402        152
  31.3774        129
  31.4145        153
  31.4517        144
  31.4888        122
  31.5260        136
  31.5631        121
  31.6003        150
  31.6374        144
  31.6746        115
  31.7117        143
  31.7489        149
  31.7860        129
  31.8232        129
  31.8603        145
  31.8975        144
  31.9346        122
  31.9718        128
  32.0089        137
  32.0461        141
  32.0832        126
  32.1204        141
  32.1575        137
  32.1947        139
  32.2318        127
  32.2690        116
  32.3061        140
  32.3433        135
  32.3804        116
  32.4176        126
  32.4547        135
  32.4919        156
  32.5290        129
  32.5662        138
  32.6033        123
  32.6405        120
  32.6776        128
  32.7148        132
  32.7519        135
  32.7891        108
  32.8262        112
  32.8634        106
  32.9006        117
  32.9377        124
  32.9749        127
  33.0120        144
  33.0492        129
  33.0863        123
  33.1235        127
  33.1606        127
  33.1978        147
  33.2349        136
  33.2721        102
  33.3092        123
  33.3464        118
  33.3835        123
  33.4207        130
  33.4578        111
  33.4950        120
  33.5321        109
  33.5693        130
  33.6064        101
  33.6436        120
  33.6807        123
  33.7179        109
  33.7550        129
  33.7922        106
  33.8293        119
  33.8665        110
  33.9036        129
  33.9408        104
  33.9779        118
  34.0151        109
  34.0522        141
  34.0894        111
  34.1265        112
  34.1637        105
  34.2008        107
  34.2380        120
  34.2751        107
  34.3123        113
  34.3494        107
  34.3866        103
  34.4238        110
  34.4609        113
  34.4981        109
  34.5352        123
  34.5724        128
  34.6095        120
  34.6467        128
  34.6838        132
  34.7210        133
  34.7581        164
  34.7953        150
  34.8324        136
  34.8696        119
  34.9067        118
  34.9439        125
  34.9810        116
  35.0182        113
  35.0553         97
  35.0925         96
  35.1296        110
  35.1668        113
  35.2039        106
  35.2411        122
  35.2782        100
  35.3154        107
  35.3525         87
  35.3897         98
  35.4268         93
  35.4640         96
  35.5011        126
  35.5383        105
  35.5754         87
  35.6126         89
  35.6497        105
  35.6869         99
  35.7240         81
  35.7612         77
  35.7983         85
  35.8355         99
  35.8726        100
  35.9098        101
  35.9469         83
  35.9841         94
  36.0213        110
  36.0584        116
  36.0956         97
  36.1327        109
  36.1699         93
  36.2070        104
  36.2442        109
  36.2813        101
  36.3185         81
  36.3556         92
  36.3928        113
  36.4299         89
  36.4671         95
  36.5042        111
  36.5414         99
  36.5785         93
  36.6157         84
  36.6528         80
  36.6900         92
  36.7271         91
  36.7643         81
  36.8014         89
  36.8386         82
  36.8757        105
  36.9129         92
  36.9500         97
  36.9872         91
  37.0243         75
  37.0615         87
  37.0986         98
  37.1358        108
  37.1729         97
  37.2101         87
  37.2472         97
  37.2844         83
  37.3215         95
  37.3587         77
  37.3958        100
  37.4330        149
  37.4701        114
  37.5073        111
  37.5445        105
  37.5816         99
  37.6188         93
  37.6559         81
  37.6931        103
  37.7302         99
  37.7674         80
  37.8045         79
  37.8417         85
  37.8788         87
  37.9160         91
  37.9531        116
  37.9903         99
  38.0274         86
  38.0646         76
  38.1017         70
  38.1389         66
  38.1760         90
  38.2132         74
  38.2503         91
  38.2875         96
  38.3246         86
  38.3618         91
  38.3989        101
  38.4361         78
  38.4732         89
  38.5104         85
  38.5475         84
  38.5847         99
  38.6218         79
  38.6590         89
  38.6961         87
  38.7333         92
  38.7704         99
  38.8076         71
  38.8447         98
  38.8819         96
  38.9190         96
  38.9562         79
  38.9933         79
  39.0305         84
  39.0677         75
  39.1048         86
  39.1420         84
  39.1791         92
  39.2163         86
  39.2534         75
  39.2906         87
  39.3277         92
  39.3649        102
  39.4020         96
  39.4392         84
  39.4763         76
  39.5135         94
  39.5506         77
  39.5878         79
  39.6249         79
  39.6621         82
  39.6992         96
  39.7364         89
  39.7735         82
  39.8107         84
  39.8478         99
  39.8850         87
  39.9221         85
  39.9593         75
  39.9964         82
  40.0336         76
  40.0707         74
  40.1079         71
  40.1450         76
  40.1822         84
  40.2193         90
  40.2565         80
  40.2936         71
  40.3308         73
  40.3679         75
  40.4051         83
  40.4422         69
  40.4794         63
  40.5165         76
  40.5537         91
  40.5908         68
  40.6280         86
  40.6652         47
  40.7023         53
  40.7395         67
  40.7766         75
  40.8138         88
  40.8509         71
  40.8881         95
  40.9252         92
  40.9624         84
  40.9995         79
  41.0367         84
  41.0738         73
  41.1110         95
  41.1481         84
  41.1853         68
  41.2224         71
  41.2596         68
  41.2967         75
  41.3339         79
  41.3710         84
  41.4082         90
  41.4453         84
  41.4825         71
  41.5196         81
  41.5568         82
  41.5939         77
  41.6311         94
  41.6682         59
  41.7054         86
  41.7425         86
  41.7797         80
  41.8168         85
  41.8540         75
  41.8911         71
  41.9283         71
  41.9654         69
  42.0026         63
  42.0397         92
  42.0769         72
  42.1140         90
  42.1512         71
  42.1884         68
  42.2255         86
  42.2627         74
  42.2998         61
  42.3370         69
  42.3741         75
  42.4113         76
  42.4484         89
  42.4856         83
  42.5227         79
  42.5599         74
  42.5970         78
  42.6342         63
  42.6713         79
  42.7085         81
  42.7456         73
  42.7828         58
  42.8199         78
  42.8571         68
  42.8942         85
  42.9314         67
  42.9685         70
  43.0057         73
  43.0428         87
  43.0800         84
  43.1171         74
  43.1543         80
  43.1914         76
  43.2286         82
  43.2657        102
  43.3029         75
  43.3400         82
  43.3772         80
  43.4143         99
  43.4515         80
  43.4886        126
  43.5258        112
  43.5629         99
  43.6001         91
  43.6372        100
  43.6744         62
  43.7116         92
  43.7487         69
  43.7859         58
  43.8230         78
  43.8602         75
  43.8973         77
  43.9345         89
  43.9716         80
  44.0088         54
  44.0459         73
  44.0831         72
  44.1202         81
  44.1574         72
  44.1945         74
  44.2317         77
  44.2688         75
  44.3060         58
  44.3431         71
  44.3803         77
  44.4174         77
  44.4546         65
  44.4917         78
  44.5289         96
  44.5660         87
  44.6032         76
  44.6403         83
  44.6775         83
  44.7146         73
  44.7518         69
  44.7889         69
  44.8261         83
  44.8632         70
  44.9004         62
  44.9375         70
  44.9747         67
  45.0118         64
  45.0490         59
  45.0861         57
  45.1233         65
  45.1604         72
  45.1976         72
  45.2347         65
  45.2719         66
  45.3091         69
  45.3462         77
  45.3834         78
  45.4205         66
  45.4577         74
  45.4948         63
  45.5320         73
  45.5691         72
  45.6063         78
  45.6434         68
  45.6806         64
  45.7177         87
  45.7549         58
  45.7920         69
  45.8292         65
  45.8663         62
  45.9035         65
  45.9406         77
  45.9778         65
  46.0149         64
  46.0521         69
  46.0892         64
  46.1264         78
  46.1635         69
  46.2007         71
  46.2378         69
  46.2750         65
  46.3121         76
  46.3493         76
  46.3864         70
  46.4236         63
  46.4607         76
  46.4979         79
  46.5350         70
  46.5722         72
  46.6093         64
  46.6465         63
  46.6836         68
  46.7208         67
  46.7579         69
  46.7951         67
  46.8323         76
  46.8694         58
  46.9066         54
  46.9437         60
  46.9809         61
  47.0180         62
  47.0552         62
  47.0923         45
  47.1295         64
  47.1666         60
  47.2038         64
  47.2409         72
  47.2781         64
  47.3152         57
  47.3524         62
  47.3895         71
  47.4267         70
  47.4638         71
  47.5010         61
  47.5381         61
  47.5753         67
  47.6124         54
  47.6496         72
  47.6867         88
  47.7239         81
  47.7610         73
  47.7982         60
  47.8353         73
  47.8725         53
  47.9096         63
  47.9468         66
  47.9839         62
  48.0211         63
  48.0582         45
  48.0954         64
  48.1325         74
  48.1697         65
  48.2068         79
  48.2440         51
  48.2811         73
  48.3183         76
  48.3555         58
  48.3926         48
  48.4298         53
  48.4669         59
  48.5041         58
  48.5412         52
  48.5784         55
  48.6155         56
  48.6527         62
  48.6898         63
  48.7270         65
  48.7641         54
  48.8013         64
  48.8384         90
  48.8756         77
  48.9127         69
  48.9499        128
  48.9870        101
  49.0242         83
  49.0613         88
  49.0985        100
  49.1356         68
  49.1728         51
  49.2099         67
  49.2471         60
  49.2842         73
  49.3214         74
  49.3585         57
  49.3957         66
  49.4328         62
  49.4700         74
  49.5071         64
  49.5443         55
  49.5814         50
  49.6186         74
  49.6557         62
  49.6929         56
  49.7300         72
  49.7672         62
  49.8043         63
  49.8415         61
  49.8786         70
  49.9158         73
  49.9530         68
  49.9901         70
  50.0273         69
  50.0644         52
  50.1016         68
  50.1387         67
  50.1759         66
  50.2130         69
  50.2502         68
  50.2873         59
  50.3245         64
  50.3616         49
  50.3988         50
  50.4359         58
  50.4731         48
  50.5102         55
  50.5474         54
  50.5845         60
  50.6217         61
  50.6588         55
  50.6960         69
  50.7331         65
  50.7703         54
  50.8074         55
  50.8446         50
  50.8817         54
  50.9189         51
  50.9560         66
  50.9932         57
  51.0303         80
  51.0675         53
  51.1046         63
  51.1418         64
  51.1789         61
  51.2161         65
  51.2532         61
  51.2904         59
  51.3275         55
  51.3647         65
  51.4018         79
  51.4390         63
  51.4762         62
  51.5133         63
  51.5505         67
  51.5876         66
  51.6248         65
  51.6619         64
  51.6991         64
  51.7362         59
  51.7734         57
  51.8105         61
  51.8477         86
  51.8848         65
  51.9220         59
  51.9591         71
  51.9963         66
  52.0334         75
  52.0706         45
  52.1077         56
  52.1449         56
  52.1820         55
  52.2192         63
  52.2563         48
  52.2935         60
  52.3306         71
  52.3678         51
  52.4049         62
  52.4421         60
  52.4792         53
  52.5164         52
  52.5535         55
  52.5907         50
  52.6278         72
  52.6650         49
  52.7021         59
  52.7393         57
  52.7764         51
  52.8136         65
  52.8507         62
  52.8879         44
  52.9250         66
  52.9622         48
  52.9994         71
  53.0365         70
  53.0737         64
  53.1108         57
  53.1480         71
  53.1851         55
  53.2223         56
  53.2594         61
  53.2966         52
  53.3337         45
  53.3709         51
  53.4080         62
  53.4452         43
  53.4823         61
  53.5195         66
  53.5566         71
  53.5938         56
  53.6309         58
  53.6681         51
  53.7052         69
  53.7424         52
  53.7795         52
  53.8167         76
  53.8538         58
  53.8910         55
  53.9281         49
  53.9653         80
  54.0024         70
  54.0396         63
  54.0767         61
  54.1139         68
  54.1510         64
  54.1882         64
  54.2253         54
  54.2625         51
  54.2996         56
  54.3368         58
  54.3739         60
  54.4111         55
  54.4482         53
  54.4854         70
  54.5225         67
  54.5597         59
  54.5969         54
  54.6340         37
  54.6712         50
  54.7083         51
  54.7455         59
  54.7826         67
  54.8198         56
  54.8569         71
  54.8941         58
  54.9312         55
  54.9684         49
  55.0055         50
  55.0427         72
  55.0798         53
  55.1170         61
  55.1541         49
  55.1913         52
  55.2284         75
  55.2656         56
  55.3027         63
  55.3399         55
  55.3770         69
  55.4142         67
  55.4513         54
  55.4885         49
  55.5256         49
  55.5628         61
  55.5999         52
  55.6371         66
  55.6742         64
  55.7114         61
  55.7485         49
  55.7857         60
  55.8228         59
  55.8600         58
  55.8971         69
  55.9343         57
  55.9714         59
  56.0086         71
  56.0457         54
  56.0829         60
  56.1201         48
  56.1572         61
  56.1944         72
  56.2315         74
  56.2687         57
  56.3058         67
  56.3430         58
  56.3801         73
  56.4173         65
  56.4544         69
  56.4916         62
  56.5287         61
  56.5659         68
  56.6030         54
  56.6402         50
  56.6773         57
  56.7145         57
  56.7516         50
  56.7888         62
  56.8259         52
  56.8631         47
  56.9002         53
  56.9374         47
  56.9745         59
  57.0117         59
  57.0488         58
  57.0860         58
  57.1231         52
  57.1603         51
  57.1974         48
  57.2346         55
  57.2717         63
  57.3089         51
  57.3460         51
  57.3832         46
  57.4203         60
  57.4575         56
  57.4946         44
  57.5318         56
  57.5689         65
  57.6061         56
  57.6433         51
  57.6804         52
  57.7176         61
  57.7547         66
  57.7919         65
  57.8290         58
  57.8662         56
  57.9033         55
  57.9405         56
  57.9776         50
  58.0148         61
  58.0519         63
  58.0891         52
  58.1262         55
  58.1634         61
  58.2005         69
  58.2377         63
  58.2748         59
  58.3120         56
  58.3491         53
  58.3863         59
  58.4234         50
  58.4606         59
  58.4977         54
  58.5349         34
  58.5720         62
  58.6092         49
  58.6463         54
  58.6835         50
  58.7206         69
  58.7578         57
  58.7949         62
  58.8321         58
  58.8692         55
  58.9064         58
  58.9435         50
  58.9807         54
  59.0178         62
  59.0550         63
  59.0921         70
  59.1293         61
  59.1664         58
  59.2036         57
  59.2408         47
  59.2779         46
  59.3151         50
  59.3522         63
  59.3894         52
  59.4265         64
  59.4637         48
  59.5008         50
  59.5380         49
  59.5751         61
  59.6123         57
  59.6494         56
  59.6866         55
  59.7237         58
  59.7609         63
  59.7980         59
  59.8352         48
  59.8723         57
  59.9095         54
  59.9466         64
  59.9838         55
  60.0024         52