File: notebooks/data/xrd_data/ML_20220718_42_SJD_4_LaB6-2min.csv
;,2THETA,
5.0000,120
5.0372,124
5.0743,128
5.1115,126
5.1486,128
5.1858,127
5.2229,129
5.2601,120
5.2972,125
5.3344,112
5.3715,123
5.4087,104
5.4458,114
5.4830,117
5.5201,102
5.5573,105
5.5944,105
5.6316,104
5.6687,101
5.7059,110
5.7430,81
5.7802,108
5.8173,109
5.8545,108
5.8916,117
5.9288,83
5.9659,88
6.0031,88
6.0402,97
6.0774,97
6.1145,94
6.1517,88
6.1888,92
6.2260,100
6.2631,86
6.3003,94
6.3374,92
6.3746,94
6.4117,89
6.4489,82
6.4860,81
6.5232,86
6.5604,90
6.5975,89
6.6347,89
6.6718,93
6.7090,76
6.7461,88
6.7833,70
6.8204,70
6.8576,84
6.8947,77
6.9319,67
6.9690,92
7.0062,96
7.0433,75
7.0805,84
7.1176,88
7.1548,83
7.1919,75
7.2291,71
7.2662,76
7.3034,85
7.3405,70
7.3777,67
7.4148,87
7.4520,69
7.4891,84
7.5263,80
7.5634,87
7.6006,100
7.6377,109
7.6749,100
7.7120,92
7.7492,88
7.7863,63
7.8235,84
7.8606,70
7.8978,90
7.9349,88
7.9721,93
8.0092,89
8.0464,97
8.0835,94
8.1207,89
8.1579,94
8.1950,94
8.2322,123
8.2693,73
8.3065,86
8.3436,87
8.3808,91
8.4179,95
8.4551,108
8.4922,86
8.5294,100
8.5665,113
8.6037,102
8.6408,106
8.6780,112
8.7151,93
8.7523,91
8.7894,83
8.8266,115
8.8637,126
8.9009,104
8.9380,99
8.9752,108
9.0123,87
9.0495,93
9.0866,114
9.1238,103
9.1609,94
9.1981,115
9.2352,115
9.2724,118
9.3095,107
9.3467,87
9.3838,109
9.4210,98
9.4581,103
9.4953,106
9.5324,117
9.5696,105
9.6067,109
9.6439,102
9.6811,121
9.7182,111
9.7554,101
9.7925,123
9.8297,130
9.8668,119
9.9040,110
9.9411,113
9.9783,126
10.0154,94
10.0526,101
10.0897,130
10.1269,114
10.1640,119
10.2012,120
10.2383,116
10.2755,117
10.3126,129
10.3498,124
10.3869,108
10.4241,104
10.4612,105
10.4984,116
10.5355,139
10.5727,121
10.6098,119
10.6470,130
10.6841,122
10.7213,125
10.7584,126
10.7956,120
10.8327,129
10.8699,105
10.9070,106
10.9442,120
10.9813,97
11.0185,125
11.0556,124
11.0928,120
11.1299,125
11.1671,107
11.2043,119
11.2414,132
11.2786,120
11.3157,105
11.3529,125
11.3900,120
11.4272,125
11.4643,142
11.5015,120
11.5386,114
11.5758,97
11.6129,105
11.6501,120
11.6872,123
11.7244,125
11.7615,112
11.7987,112
11.8358,126
11.8730,110
11.9101,115
11.9473,120
11.9844,93
12.0216,101
12.0587,108
12.0959,98
12.1330,110
12.1702,117
12.2073,108
12.2445,96
12.2816,84
12.3188,112
12.3559,103
12.3931,99
12.4302,119
12.4674,89
12.5045,105
12.5417,100
12.5788,112
12.6160,96
12.6531,93
12.6903,102
12.7274,108
12.7646,90
12.8018,119
12.8389,109
12.8761,99
12.9132,94
12.9504,108
12.9875,96
13.0247,106
13.0618,95
13.0990,108
13.1361,102
13.1733,100
13.2104,85
13.2476,99
13.2847,90
13.3219,102
13.3590,76
13.3962,88
13.4333,93
13.4705,85
13.5076,96
13.5448,125
13.5819,85
13.6191,93
13.6562,113
13.6934,118
13.7305,91
13.7677,97
13.8048,106
13.8420,87
13.8791,95
13.9163,84
13.9534,87
13.9906,114
14.0277,110
14.0649,105
14.1020,88
14.1392,86
14.1763,76
14.2135,76
14.2506,80
14.2878,86
14.3250,78
14.3621,87
14.3993,82
14.4364,93
14.4736,90
14.5107,93
14.5479,95
14.5850,86
14.6222,80
14.6593,71
14.6965,98
14.7336,82
14.7708,99
14.8079,76
14.8451,93
14.8822,84
14.9194,88
14.9565,87
14.9937,71
15.0308,80
15.0680,90
15.1051,82
15.1423,91
15.1794,88
15.2166,96
15.2537,81
15.2909,85
15.3280,82
15.3652,83
15.4023,74
15.4395,76
15.4766,89
15.5138,74
15.5509,96
15.5881,68
15.6252,90
15.6624,72
15.6995,84
15.7367,88
15.7738,83
15.8110,91
15.8482,62
15.8853,87
15.9225,75
15.9596,70
15.9968,78
16.0339,99
16.0711,87
16.1082,100
16.1454,83
16.1825,77
16.2197,64
16.2568,79
16.2940,71
16.3311,83
16.3683,95
16.4054,93
16.4426,83
16.4797,75
16.5169,80
16.5540,74
16.5912,85
16.6283,86
16.6655,72
16.7026,78
16.7398,72
16.7769,80
16.8141,71
16.8512,82
16.8884,65
16.9255,76
16.9627,62
16.9998,109
17.0370,98
17.0741,99
17.1113,90
17.1484,101
17.1856,78
17.2227,75
17.2599,77
17.2970,88
17.3342,82
17.3713,97
17.4085,82
17.4457,93
17.4828,91
17.5200,82
17.5571,82
17.5943,86
17.6314,74
17.6686,77
17.7057,95
17.7429,76
17.7800,71
17.8172,71
17.8543,62
17.8915,87
17.9286,108
17.9658,81
18.0029,86
18.0401,74
18.0772,81
18.1144,82
18.1515,84
18.1887,75
18.2258,76
18.2630,66
18.3001,89
18.3373,94
18.3744,93
18.4116,86
18.4487,77
18.4859,86
18.5230,70
18.5602,77
18.5973,95
18.6345,85
18.6716,86
18.7088,98
18.7459,72
18.7831,88
18.8202,95
18.8574,83
18.8945,77
18.9317,91
18.9689,72
19.0060,100
19.0432,93
19.0803,92
19.1175,74
19.1546,72
19.1918,80
19.2289,82
19.2661,81
19.3032,75
19.3404,73
19.3775,90
19.4147,85
19.4518,83
19.4890,105
19.5261,89
19.5633,70
19.6004,84
19.6376,78
19.6747,72
19.7119,86
19.7490,91
19.7862,91
19.8233,83
19.8605,82
19.8976,85
19.9348,82
19.9719,87
20.0091,76
20.0462,90
20.0834,95
20.1205,84
20.1577,81
20.1948,71
20.2320,94
20.2691,76
20.3063,100
20.3434,86
20.3806,87
20.4177,88
20.4549,94
20.4921,81
20.5292,98
20.5664,87
20.6035,95
20.6407,93
20.6778,93
20.7150,110
20.7521,97
20.7893,95
20.8264,107
20.8636,98
20.9007,103
20.9379,80
20.9750,84
21.0122,79
21.0493,94
21.0865,97
21.1236,106
21.1608,119
21.1979,129
21.2351,149
21.2722,146
21.3094,162
21.3465,219
21.3837,179
21.4208,175
21.4580,108
21.4951,93
21.5323,93
21.5694,93
21.6066,102
21.6437,94
21.6809,109
21.7180,88
21.7552,99
21.7923,107
21.8295,80
21.8666,89
21.9038,92
21.9409,93
21.9781,78
22.0152,102
22.0524,118
22.0896,90
22.1267,83
22.1639,109
22.2010,117
22.2382,114
22.2753,92
22.3125,83
22.3496,92
22.3868,91
22.4239,95
22.4611,80
22.4982,100
22.5354,121
22.5725,89
22.6097,105
22.6468,109
22.6840,86
22.7211,112
22.7583,105
22.7954,98
22.8326,77
22.8697,96
22.9069,115
22.9440,98
22.9812,107
23.0183,110
23.0555,93
23.0926,98
23.1298,113
23.1669,86
23.2041,87
23.2412,86
23.2784,93
23.3155,88
23.3527,123
23.3898,95
23.4270,109
23.4641,82
23.5013,88
23.5384,110
23.5756,97
23.6128,96
23.6499,88
23.6871,86
23.7242,85
23.7614,135
23.7985,97
23.8357,109
23.8728,109
23.9100,107
23.9471,105
23.9843,109
24.0214,111
24.0586,105
24.0957,70
24.1329,92
24.1700,86
24.2072,95
24.2443,84
24.2815,108
24.3186,107
24.3558,103
24.3929,100
24.4301,95
24.4672,97
24.5044,91
24.5415,111
24.5787,72
24.6158,105
24.6530,95
24.6901,110
24.7273,96
24.7644,107
24.8016,97
24.8387,95
24.8759,82
24.9130,106
24.9502,108
24.9873,84
25.0245,86
25.0616,102
25.0988,105
25.1360,93
25.1731,101
25.2103,103
25.2474,102
25.2846,102
25.3217,108
25.3589,91
25.3960,106
25.4332,110
25.4703,105
25.5075,109
25.5446,100
25.5818,118
25.6189,91
25.6561,96
25.6932,89
25.7304,103
25.7675,93
25.8047,86
25.8418,100
25.8790,91
25.9161,90
25.9533,81
25.9904,113
26.0276,109
26.0647,119
26.1019,105
26.1390,106
26.1762,103
26.2133,86
26.2505,106
26.2876,98
26.3248,89
26.3619,105
26.3991,102
26.4362,114
26.4734,83
26.5105,94
26.5477,97
26.5848,86
26.6220,75
26.6591,105
26.6963,97
26.7335,90
26.7706,84
26.8078,85
26.8449,75
26.8821,87
26.9192,95
26.9564,101
26.9935,83
27.0307,127
27.0678,93
27.1050,86
27.1421,100
27.1793,98
27.2164,137
27.2536,115
27.2907,99
27.3279,90
27.3650,87
27.4022,86
27.4393,108
27.4765,86
27.5136,85
27.5508,104
27.5879,87
27.6251,86
27.6622,86
27.6994,80
27.7365,86
27.7737,83
27.8108,85
27.8480,88
27.8851,85
27.9223,86
27.9594,90
27.9966,85
28.0337,76
28.0709,86
28.1080,94
28.1452,86
28.1823,91
28.2195,95
28.2567,78
28.2938,85
28.3310,84
28.3681,89
28.4053,86
28.4424,77
28.4796,78
28.5167,90
28.5539,84
28.5910,80
28.6282,78
28.6653,99
28.7025,62
28.7396,89
28.7768,73
28.8139,73
28.8511,73
28.8882,69
28.9254,72
28.9625,82
28.9997,96
29.0368,81
29.0740,71
29.1111,76
29.1483,80
29.1854,91
29.2226,93
29.2597,80
29.2969,89
29.3340,86
29.3712,96
29.4083,81
29.4455,87
29.4826,92
29.5198,80
29.5569,75
29.5941,87
29.6312,84
29.6684,87
29.7055,93
29.7427,74
29.7799,82
29.8170,76
29.8542,71
29.8913,76
29.9285,83
29.9656,65
30.0028,76
30.0399,73
30.0771,80
30.1142,72
30.1514,84
30.1885,84
30.2257,79
30.2628,86
30.3000,88
30.3371,97
30.3743,141
30.4114,119
30.4486,126
30.4857,106
30.5229,102
30.5600,66
30.5972,90
30.6343,73
30.6715,78
30.7086,68
30.7458,75
30.7829,69
30.8201,61
30.8572,82
30.8944,78
30.9315,95
30.9687,56
31.0058,84
31.0430,79
31.0801,76
31.1173,84
31.1544,83
31.1916,75
31.2287,64
31.2659,56
31.3030,72
31.3402,76
31.3774,54
31.4145,64
31.4517,66
31.4888,83
31.5260,60
31.5631,78
31.6003,65
31.6374,68
31.6746,63
31.7117,64
31.7489,48
31.7860,59
31.8232,72
31.8603,74
31.8975,71
31.9346,72
31.9718,58
32.0089,65
32.0461,60
32.0832,66
32.1204,59
32.1575,74
32.1947,60
32.2318,63
32.2690,71
32.3061,69
32.3433,69
32.3804,83
32.4176,80
32.4547,65
32.4919,70
32.5290,84
32.5662,87
32.6033,70
32.6405,77
32.6776,45
32.7148,62
32.7519,59
32.7891,53
32.8262,68
32.8634,43
32.9006,60
32.9377,61
32.9749,64
33.0120,62
33.0492,58
33.0863,61
33.1235,69
33.1606,56
33.1978,52
33.2349,54
33.2721,75
33.3092,57
33.3464,54
33.3835,51
33.4207,46
33.4578,69
33.4950,59
33.5321,57
33.5693,59
33.6064,68
33.6436,52
33.6807,64
33.7179,52
33.7550,63
33.7922,79
33.8293,76
33.8665,72
33.9036,48
33.9408,61
33.9779,49
34.0151,54
34.0522,66
34.0894,66
34.1265,44
34.1637,46
34.2008,47
34.2380,54
34.2751,43
34.3123,54
34.3494,62
34.3866,63
34.4238,61
34.4609,64
34.4981,54
34.5352,67
34.5724,70
34.6095,63
34.6467,66
34.6838,62
34.7210,57
34.7581,77
34.7953,63
34.8324,62
34.8696,79
34.9067,53
34.9439,52
34.9810,51
35.0182,46
35.0553,73
35.0925,56
35.1296,45
35.1668,48
35.2039,48
35.2411,63
35.2782,55
35.3154,59
35.3525,53
35.3897,56
35.4268,55
35.4640,45
35.5011,47
35.5383,39
35.5754,55
35.6126,61
35.6497,53
35.6869,42
35.7240,53
35.7612,46
35.7983,54
35.8355,43
35.8726,49
35.9098,44
35.9469,50
35.9841,51
36.0213,47
36.0584,41
36.0956,53
36.1327,47
36.1699,56
36.2070,52
36.2442,54
36.2813,45
36.3185,51
36.3556,33
36.3928,56
36.4299,41
36.4671,44
36.5042,50
36.5414,43
36.5785,49
36.6157,42
36.6528,54
36.6900,37
36.7271,43
36.7643,49
36.8014,54
36.8386,43
36.8757,43
36.9129,50
36.9500,76
36.9872,49
37.0243,52
37.0615,50
37.0986,45
37.1358,48
37.1729,54
37.2101,51
37.2472,40
37.2844,47
37.3215,52
37.3587,37
37.3958,57
37.4330,68
37.4701,69
37.5073,53
37.5445,55
37.5816,48
37.6188,38
37.6559,50
37.6931,47
37.7302,52
37.7674,51
37.8045,39
37.8417,47
37.8788,44
37.9160,55
37.9531,40
37.9903,46
38.0274,49
38.0646,52
38.1017,40
38.1389,37
38.1760,44
38.2132,44
38.2503,39
38.2875,48
38.3246,41
38.3618,27
38.3989,44
38.4361,37
38.4732,44
38.5104,34
38.5475,43
38.5847,46
38.6218,42
38.6590,58
38.6961,51
38.7333,34
38.7704,42
38.8076,56
38.8447,43
38.8819,46
38.9190,41
38.9562,42
38.9933,51
39.0305,46
39.0677,37
39.1048,37
39.1420,44
39.1791,38
39.2163,36
39.2534,34
39.2906,37
39.3277,47
39.3649,42
39.4020,37
39.4392,40
39.4763,49
39.5135,39
39.5506,34
39.5878,36
39.6249,29
39.6621,37
39.6992,48
39.7364,35
39.7735,32
39.8107,36
39.8478,33
39.8850,43
39.9221,42
39.9593,42
39.9964,48
40.0336,31
40.0707,26
40.1079,29
40.1450,47
40.1822,36
40.2193,32
40.2565,36
40.2936,42
40.3308,33
40.3679,35
40.4051,32
40.4422,40
40.4794,29
40.5165,30
40.5537,39
40.5908,41
40.6280,40
40.6652,43
40.7023,43
40.7395,44
40.7766,33
40.8138,37
40.8509,36
40.8881,39
40.9252,26
40.9624,42
40.9995,42
41.0367,44
41.0738,36
41.1110,31
41.1481,32
41.1853,42
41.2224,36
41.2596,33
41.2967,50
41.3339,28
41.3710,32
41.4082,46
41.4453,35
41.4825,43
41.5196,51
41.5568,38
41.5939,45
41.6311,34
41.6682,40
41.7054,47
41.7425,45
41.7797,26
41.8168,39
41.8540,42
41.8911,33
41.9283,41
41.9654,43
42.0026,39
42.0397,25
42.0769,31
42.1140,41
42.1512,30
42.1884,39
42.2255,30
42.2627,38
42.2998,27
42.3370,40
42.3741,33
42.4113,34
42.4484,46
42.4856,43
42.5227,34
42.5599,48
42.5970,31
42.6342,34
42.6713,38
42.7085,43
42.7456,38
42.7828,31
42.8199,39
42.8571,28
42.8942,30
42.9314,36
42.9685,40
43.0057,27
43.0428,56
43.0800,42
43.1171,45
43.1543,35
43.1914,46
43.2286,50
43.2657,41
43.3029,38
43.3400,38
43.3772,40
43.4143,33
43.4515,52
43.4886,71
43.5258,50
43.5629,47
43.6001,52
43.6372,40
43.6744,36
43.7116,41
43.7487,37
43.7859,40
43.8230,42
43.8602,41
43.8973,35
43.9345,42
43.9716,37
44.0088,36
44.0459,36
44.0831,37
44.1202,45
44.1574,37
44.1945,34
44.2317,36
44.2688,30
44.3060,35
44.3431,40
44.3803,39
44.4174,27
44.4546,34
44.4917,38
44.5289,36
44.5660,32
44.6032,40
44.6403,38
44.6775,41
44.7146,33
44.7518,41
44.7889,49
44.8261,46
44.8632,37
44.9004,42
44.9375,30
44.9747,28
45.0118,34
45.0490,29
45.0861,44
45.1233,46
45.1604,38
45.1976,23
45.2347,43
45.2719,44
45.3091,32
45.3462,37
45.3834,29
45.4205,31
45.4577,32
45.4948,33
45.5320,32
45.5691,38
45.6063,38
45.6434,38
45.6806,28
45.7177,29
45.7549,34
45.7920,27
45.8292,32
45.8663,35
45.9035,34
45.9406,23
45.9778,30
46.0149,34
46.0521,30
46.0892,38
46.1264,35
46.1635,37
46.2007,37
46.2378,38
46.2750,31
46.3121,24
46.3493,31
46.3864,38
46.4236,30
46.4607,27
46.4979,24
46.5350,37
46.5722,35
46.6093,40
46.6465,37
46.6836,30
46.7208,38
46.7579,35
46.7951,37
46.8323,34
46.8694,29
46.9066,36
46.9437,36
46.9809,31
47.0180,29
47.0552,26
47.0923,25
47.1295,39
47.1666,24
47.2038,35
47.2409,35
47.2781,30
47.3152,27
47.3524,28
47.3895,27
47.4267,29
47.4638,21
47.5010,29
47.5381,36
47.5753,38
47.6124,37
47.6496,35
47.6867,29
47.7239,30
47.7610,21
47.7982,31
47.8353,35
47.8725,35
47.9096,27
47.9468,25
47.9839,36
48.0211,30
48.0582,32
48.0954,24
48.1325,26
48.1697,36
48.2068,38
48.2440,41
48.2811,23
48.3183,23
48.3555,33
48.3926,29
48.4298,26
48.4669,39
48.5041,34
48.5412,34
48.5784,32
48.6155,33
48.6527,34
48.6898,31
48.7270,33
48.7641,37
48.8013,30
48.8384,27
48.8756,29
48.9127,52
48.9499,61
48.9870,54
49.0242,36
49.0613,47
49.0985,53
49.1356,34
49.1728,39
49.2099,24
49.2471,36
49.2842,34
49.3214,26
49.3585,31
49.3957,40
49.4328,26
49.4700,33
49.5071,25
49.5443,25
49.5814,30
49.6186,33
49.6557,32
49.6929,32
49.7300,35
49.7672,15
49.8043,29
49.8415,34
49.8786,37
49.9158,25
49.9530,25
49.9901,32
50.0273,26
50.0644,20
50.1016,26
50.1387,33
50.1759,28
50.2130,21
50.2502,31
50.2873,33
50.3245,22
50.3616,31
50.3988,26
50.4359,35
50.4731,25
50.5102,29
50.5474,24
50.5845,26
50.6217,39
50.6588,33
50.6960,29
50.7331,29
50.7703,29
50.8074,24
50.8446,34
50.8817,37
50.9189,32
50.9560,21
50.9932,18
51.0303,29
51.0675,32
51.1046,29
51.1418,28
51.1789,28
51.2161,33
51.2532,41
51.2904,34
51.3275,30
51.3647,31
51.4018,36
51.4390,29
51.4762,23
51.5133,39
51.5505,42
51.5876,32
51.6248,32
51.6619,25
51.6991,25
51.7362,28
51.7734,33
51.8105,37
51.8477,34
51.8848,31
51.9220,32
51.9591,28
51.9963,25
52.0334,21
52.0706,28
52.1077,28
52.1449,32
52.1820,31
52.2192,24
52.2563,22
52.2935,27
52.3306,27
52.3678,37
52.4049,29
52.4421,35
52.4792,25
52.5164,19
52.5535,30
52.5907,27
52.6278,31
52.6650,34
52.7021,47
52.7393,29
52.7764,32
52.8136,30
52.8507,31
52.8879,36
52.9250,24
52.9622,31
52.9994,34
53.0365,41
53.0737,31
53.1108,26
53.1480,33
53.1851,31
53.2223,25
53.2594,29
53.2966,32
53.3337,28
53.3709,30
53.4080,43
53.4452,32
53.4823,20
53.5195,19
53.5566,29
53.5938,21
53.6309,24
53.6681,23
53.7052,27
53.7424,26
53.7795,25
53.8167,23
53.8538,41
53.8910,28
53.9281,37
53.9653,40
54.0024,42
54.0396,34
54.0767,31
54.1139,30
54.1510,32
54.1882,31
54.2253,29
54.2625,37
54.2996,29
54.3368,32
54.3739,21
54.4111,29
54.4482,33
54.4854,34
54.5225,31
54.5597,32
54.5969,30
54.6340,38
54.6712,33
54.7083,30
54.7455,33
54.7826,22
54.8198,21
54.8569,18
54.8941,27
54.9312,21
54.9684,26
55.0055,19
55.0427,22
55.0798,42
55.1170,32
55.1541,23
55.1913,23
55.2284,32
55.2656,30
55.3027,31
55.3399,28
55.3770,25
55.4142,27
55.4513,29
55.4885,25
55.5256,31
55.5628,33
55.5999,23
55.6371,29
55.6742,27
55.7114,24
55.7485,29
55.7857,33
55.8228,22
55.8600,32
55.8971,28
55.9343,35
55.9714,19
56.0086,24
56.0457,24
56.0829,29
56.1201,21
56.1572,29
56.1944,21
56.2315,34
56.2687,37
56.3058,41
56.3430,30
56.3801,20
56.4173,30
56.4544,28
56.4916,24
56.5287,32
56.5659,30
56.6030,22
56.6402,38
56.6773,35
56.7145,28
56.7516,32
56.7888,31
56.8259,21
56.8631,33
56.9002,34
56.9374,27
56.9745,33
57.0117,32
57.0488,24
57.0860,22
57.1231,28
57.1603,22
57.1974,26
57.2346,29
57.2717,26
57.3089,22
57.3460,22
57.3832,28
57.4203,17
57.4575,29
57.4946,31
57.5318,29
57.5689,28
57.6061,23
57.6433,33
57.6804,28
57.7176,27
57.7547,23
57.7919,36
57.8290,26
57.8662,19
57.9033,20
57.9405,36
57.9776,25
58.0148,24
58.0519,24
58.0891,29
58.1262,26
58.1634,19
58.2005,19
58.2377,44
58.2748,20
58.3120,31
58.3491,26
58.3863,32
58.4234,30
58.4606,28
58.4977,33
58.5349,26
58.5720,25
58.6092,21
58.6463,22
58.6835,32
58.7206,23
58.7578,22
58.7949,33
58.8321,21
58.8692,29
58.9064,29
58.9435,31
58.9807,31
59.0178,22
59.0550,34
59.0921,34
59.1293,33
59.1664,21
59.2036,26
59.2408,17
59.2779,20
59.3151,21
59.3522,26
59.3894,18
59.4265,28
59.4637,20
59.5008,37
59.5380,25
59.5751,30
59.6123,24
59.6494,31
59.6866,29
59.7237,19
59.7609,24
59.7980,22
59.8352,30
59.8723,31
59.9095,32
59.9466,26
59.9838,30
60.0024,28