File: notebooks/data/xrd_data/ML_20220720_6_SJD_4_LaB6-4min.uxd
; (content of file Y:\Sam\Apurva-07-20-2022\puck2\ML_20220720_6_SJD_0_LaB6-4min.raw)
_FILEVERSION = 3
_SAMPLE = ML_20220720_6_SJD_0_LaB6-4min
_+SAMPLE =
_SITE = USA
_USER = Administrator
_GONIOMETER_CODE = 20
; Goniometer : D8 theta/2theta, stage : Unknown
_ATTACHMENTS_CODE = 0
_GONIOMETER_RADIUS = 200.5
_FIXED_DIVSLIT = 0.6
_FIXED_SAMPLESLIT = 0
_SOLLER_SLITS = 2
_FIXED_DETSLIT = 9.55
_MONOCHROMATOR = 0
; Incident beam monochromator : None
_SOLLER_SLITS_2 = N
_THIN_FILM = N
_BETA_FILTER = Y
_FIXED_ANTISLIT = 5.89
_ANALYZER_CODE = 0
; Received beam analyzer : None
_DATEMEASURED = "25-Jul-2022 17:47:01"
_WL_UNIT = A
_WL1 = 1.5406
_WL2 = 1.54439
_WL3 = 1.39222
_WLRATIO = 0.5
_ANODE = Cu
_V4_INF_CREATOR = XRDWizard
_V4_INF_CREATOR_VERSION = V2.9.0.22
_V4_INF_WIZARD_VERSION = V2.9.0.22
_V4_INF_WIZARD_ADDINS = V2.9.0.22
_V4_INF_WIZARD_DOCTYPE = XRD
_V4_INF_OSUSER = McQueenLab
_V4_INF_USER = Administrator
_V4_INF_SITE = USA
_V4_INF_SAMPLEID = ML_20220720_6_SJD_0_LaB6-4min

; Data for range 1
_DRIVE = COUPLED
_STEPTIME = 11.28
_STEPSIZE = 0.0185756
_STEPMODE = C
_START = 5
_THETA = 2.5
_2THETA = 5
_KHI = 0
_PHI = 0
_X = 0
_Y = 0
_Z = 0
_DETECTOR = 5
; Detector type : Unknown
_DETECTORSLIT = unkn
_AUX1 = 0
_AUX2 = 0
_AUX3 = 0
_TIMESTARTED = 14
_TEMP_RATE = -1
_TEMP_DELAY = -1
_KV = 40
_MA = 40
_RANGE_WL = 1.5406
_3DPLANE = 0
_V4_ADDITIONALDETECTOR = 257
_V4_PSD2THETA = 3.365
_V4_PSDCHANNEL1 = 0
_V4_PSDAPERTURE = 12.68
_V4_PSDTYPE = 5
_V4_PSDFIXED = 0
_V4_COUNTERS_MASK = 4096
_V4_DRIVES_MASK = 0
_V4_ENCODERS_MASK = 0
_2THETACOUNTS = 1
; 2THETA  PSD
   5.0000        263
   5.0372        261
   5.0743        240
   5.1115        252
   5.1486        249
   5.1858        280
   5.2229        225
   5.2601        257
   5.2972        241
   5.3344        230
   5.3715        225
   5.4087        225
   5.4458        203
   5.4830        248
   5.5201        214
   5.5573        202
   5.5944        220
   5.6316        205
   5.6687        205
   5.7059        213
   5.7430        200
   5.7802        195
   5.8173        194
   5.8545        220
   5.8916        202
   5.9288        232
   5.9659        216
   6.0031        197
   6.0402        187
   6.0774        235
   6.1145        199
   6.1517        183
   6.1888        200
   6.2260        202
   6.2631        206
   6.3003        219
   6.3374        166
   6.3746        212
   6.4117        173
   6.4489        195
   6.4860        172
   6.5232        183
   6.5604        171
   6.5975        176
   6.6347        179
   6.6718        162
   6.7090        176
   6.7461        173
   6.7833        176
   6.8204        178
   6.8576        159
   6.8947        171
   6.9319        150
   6.9690        148
   7.0062        171
   7.0433        164
   7.0805        162
   7.1176        152
   7.1548        201
   7.1919        174
   7.2291        182
   7.2662        151
   7.3034        197
   7.3405        148
   7.3777        188
   7.4148        164
   7.4520        185
   7.4891        204
   7.5263        151
   7.5634        184
   7.6006        174
   7.6377        173
   7.6749        185
   7.7120        175
   7.7492        201
   7.7863        176
   7.8235        160
   7.8606        195
   7.8978        183
   7.9349        191
   7.9721        200
   8.0092        177
   8.0464        167
   8.0835        197
   8.1207        179
   8.1579        181
   8.1950        211
   8.2322        184
   8.2693        193
   8.3065        208
   8.3436        223
   8.3808        173
   8.4179        187
   8.4551        180
   8.4922        211
   8.5294        202
   8.5665        181
   8.6037        212
   8.6408        203
   8.6780        176
   8.7151        190
   8.7523        226
   8.7894        222
   8.8266        190
   8.8637        222
   8.9009        220
   8.9380        223
   8.9752        219
   9.0123        225
   9.0495        199
   9.0866        224
   9.1238        226
   9.1609        223
   9.1981        228
   9.2352        223
   9.2724        196
   9.3095        218
   9.3467        224
   9.3838        219
   9.4210        214
   9.4581        214
   9.4953        229
   9.5324        193
   9.5696        221
   9.6067        238
   9.6439        259
   9.6811        192
   9.7182        215
   9.7554        236
   9.7925        242
   9.8297        222
   9.8668        264
   9.9040        239
   9.9411        249
   9.9783        227
  10.0154        249
  10.0526        220
  10.0897        222
  10.1269        242
  10.1640        229
  10.2012        225
  10.2383        220
  10.2755        243
  10.3126        258
  10.3498        243
  10.3869        252
  10.4241        245
  10.4612        258
  10.4984        223
  10.5355        226
  10.5727        251
  10.6098        281
  10.6470        262
  10.6841        256
  10.7213        223
  10.7584        258
  10.7956        228
  10.8327        253
  10.8699        247
  10.9070        245
  10.9442        218
  10.9813        253
  11.0185        273
  11.0556        235
  11.0928        234
  11.1299        244
  11.1671        243
  11.2043        260
  11.2414        238
  11.2786        230
  11.3157        213
  11.3529        278
  11.3900        231
  11.4272        237
  11.4643        217
  11.5015        223
  11.5386        266
  11.5758        224
  11.6129        234
  11.6501        231
  11.6872        215
  11.7244        216
  11.7615        256
  11.7987        203
  11.8358        211
  11.8730        240
  11.9101        218
  11.9473        262
  11.9844        216
  12.0216        210
  12.0587        221
  12.0959        244
  12.1330        252
  12.1702        253
  12.2073        232
  12.2445        234
  12.2816        242
  12.3188        245
  12.3559        209
  12.3931        229
  12.4302        223
  12.4674        226
  12.5045        228
  12.5417        236
  12.5788        198
  12.6160        206
  12.6531        209
  12.6903        201
  12.7274        236
  12.7646        222
  12.8018        192
  12.8389        219
  12.8761        222
  12.9132        241
  12.9504        209
  12.9875        207
  13.0247        233
  13.0618        200
  13.0990        223
  13.1361        208
  13.1733        167
  13.2104        211
  13.2476        188
  13.2847        217
  13.3219        206
  13.3590        178
  13.3962        201
  13.4333        203
  13.4705        204
  13.5076        208
  13.5448        190
  13.5819        191
  13.6191        233
  13.6562        199
  13.6934        205
  13.7305        188
  13.7677        193
  13.8048        183
  13.8420        183
  13.8791        197
  13.9163        184
  13.9534        181
  13.9906        205
  14.0277        201
  14.0649        179
  14.1020        211
  14.1392        143
  14.1763        204
  14.2135        177
  14.2506        196
  14.2878        187
  14.3250        187
  14.3621        162
  14.3993        185
  14.4364        155
  14.4736        208
  14.5107        188
  14.5479        175
  14.5850        195
  14.6222        168
  14.6593        166
  14.6965        184
  14.7336        189
  14.7708        167
  14.8079        136
  14.8451        188
  14.8822        178
  14.9194        162
  14.9565        181
  14.9937        170
  15.0308        171
  15.0680        160
  15.1051        179
  15.1423        148
  15.1794        148
  15.2166        181
  15.2537        165
  15.2909        158
  15.3280        180
  15.3652        206
  15.4023        170
  15.4395        149
  15.4766        180
  15.5138        179
  15.5509        174
  15.5881        173
  15.6252        186
  15.6624        151
  15.6995        154
  15.7367        151
  15.7738        165
  15.8110        181
  15.8482        173
  15.8853        156
  15.9225        161
  15.9596        170
  15.9968        152
  16.0339        159
  16.0711        156
  16.1082        163
  16.1454        171
  16.1825        165
  16.2197        160
  16.2568        180
  16.2940        184
  16.3311        178
  16.3683        150
  16.4054        149
  16.4426        160
  16.4797        149
  16.5169        181
  16.5540        165
  16.5912        159
  16.6283        162
  16.6655        170
  16.7026        189
  16.7398        172
  16.7769        188
  16.8141        171
  16.8512        151
  16.8884        150
  16.9255        153
  16.9627        166
  16.9998        156
  17.0370        164
  17.0741        158
  17.1113        169
  17.1484        155
  17.1856        152
  17.2227        166
  17.2599        187
  17.2970        159
  17.3342        155
  17.3713        180
  17.4085        140
  17.4457        173
  17.4828        162
  17.5200        184
  17.5571        147
  17.5943        146
  17.6314        172
  17.6686        177
  17.7057        164
  17.7429        154
  17.7800        181
  17.8172        186
  17.8543        174
  17.8915        179
  17.9286        147
  17.9658        164
  18.0029        192
  18.0401        178
  18.0772        171
  18.1144        171
  18.1515        144
  18.1887        165
  18.2258        167
  18.2630        153
  18.3001        170
  18.3373        164
  18.3744        162
  18.4116        172
  18.4487        144
  18.4859        174
  18.5230        186
  18.5602        155
  18.5973        179
  18.6345        170
  18.6716        189
  18.7088        187
  18.7459        184
  18.7831        168
  18.8202        179
  18.8574        171
  18.8945        186
  18.9317        170
  18.9689        171
  19.0060        163
  19.0432        164
  19.0803        166
  19.1175        167
  19.1546        174
  19.1918        184
  19.2289        181
  19.2661        147
  19.3032        174
  19.3404        181
  19.3775        175
  19.4147        180
  19.4518        187
  19.4890        169
  19.5261        173
  19.5633        182
  19.6004        174
  19.6376        189
  19.6747        157
  19.7119        181
  19.7490        155
  19.7862        193
  19.8233        172
  19.8605        182
  19.8976        191
  19.9348        183
  19.9719        165
  20.0091        185
  20.0462        176
  20.0834        182
  20.1205        202
  20.1577        165
  20.1948        168
  20.2320        174
  20.2691        175
  20.3063        220
  20.3434        173
  20.3806        186
  20.4177        166
  20.4549        186
  20.4921        181
  20.5292        162
  20.5664        178
  20.6035        204
  20.6407        192
  20.6778        179
  20.7150        199
  20.7521        198
  20.7893        196
  20.8264        175
  20.8636        200
  20.9007        199
  20.9379        186
  20.9750        170
  21.0122        232
  21.0493        199
  21.0865        212
  21.1236        225
  21.1608        221
  21.1979        305
  21.2351        314
  21.2722        319
  21.3094        328
  21.3465        534
  21.3837        423
  21.4208        362
  21.4580        237
  21.4951        186
  21.5323        231
  21.5694        200
  21.6066        199
  21.6437        205
  21.6809        211
  21.7180        168
  21.7552        220
  21.7923        197
  21.8295        215
  21.8666        213
  21.9038        217
  21.9409        189
  21.9781        189
  22.0152        180
  22.0524        217
  22.0896        179
  22.1267        203
  22.1639        187
  22.2010        190
  22.2382        207
  22.2753        195
  22.3125        202
  22.3496        189
  22.3868        200
  22.4239        206
  22.4611        199
  22.4982        197
  22.5354        211
  22.5725        211
  22.6097        192
  22.6468        197
  22.6840        220
  22.7211        203
  22.7583        186
  22.7954        180
  22.8326        208
  22.8697        184
  22.9069        217
  22.9440        208
  22.9812        207
  23.0183        235
  23.0555        230
  23.0926        210
  23.1298        191
  23.1669        190
  23.2041        194
  23.2412        213
  23.2784        202
  23.3155        193
  23.3527        187
  23.3898        191
  23.4270        187
  23.4641        185
  23.5013        214
  23.5384        201
  23.5756        195
  23.6128        220
  23.6499        186
  23.6871        195
  23.7242        217
  23.7614        216
  23.7985        223
  23.8357        214
  23.8728        239
  23.9100        203
  23.9471        209
  23.9843        202
  24.0214        217
  24.0586        200
  24.0957        212
  24.1329        187
  24.1700        225
  24.2072        232
  24.2443        203
  24.2815        225
  24.3186        225
  24.3558        232
  24.3929        224
  24.4301        195
  24.4672        208
  24.5044        207
  24.5415        234
  24.5787        190
  24.6158        211
  24.6530        195
  24.6901        181
  24.7273        203
  24.7644        161
  24.8016        203
  24.8387        206
  24.8759        163
  24.9130        178
  24.9502        188
  24.9873        187
  25.0245        205
  25.0616        204
  25.0988        187
  25.1360        214
  25.1731        223
  25.2103        171
  25.2474        172
  25.2846        205
  25.3217        195
  25.3589        205
  25.3960        178
  25.4332        208
  25.4703        203
  25.5075        211
  25.5446        213
  25.5818        223
  25.6189        189
  25.6561        211
  25.6932        193
  25.7304        189
  25.7675        189
  25.8047        247
  25.8418        188
  25.8790        198
  25.9161        196
  25.9533        207
  25.9904        201
  26.0276        175
  26.0647        201
  26.1019        170
  26.1390        202
  26.1762        194
  26.2133        190
  26.2505        195
  26.2876        183
  26.3248        216
  26.3619        211
  26.3991        203
  26.4362        211
  26.4734        168
  26.5105        183
  26.5477        198
  26.5848        221
  26.6220        167
  26.6591        201
  26.6963        179
  26.7335        188
  26.7706        183
  26.8078        166
  26.8449        163
  26.8821        189
  26.9192        180
  26.9564        188
  26.9935        191
  27.0307        191
  27.0678        171
  27.1050        190
  27.1421        214
  27.1793        252
  27.2164        248
  27.2536        223
  27.2907        214
  27.3279        195
  27.3650        204
  27.4022        179
  27.4393        177
  27.4765        199
  27.5136        190
  27.5508        182
  27.5879        177
  27.6251        188
  27.6622        179
  27.6994        191
  27.7365        174
  27.7737        182
  27.8108        169
  27.8480        176
  27.8851        182
  27.9223        163
  27.9594        182
  27.9966        211
  28.0337        166
  28.0709        165
  28.1080        163
  28.1452        161
  28.1823        164
  28.2195        201
  28.2567        169
  28.2938        155
  28.3310        162
  28.3681        164
  28.4053        159
  28.4424        174
  28.4796        171
  28.5167        177
  28.5539        200
  28.5910        169
  28.6282        184
  28.6653        185
  28.7025        166
  28.7396        166
  28.7768        142
  28.8139        176
  28.8511        178
  28.8882        150
  28.9254        182
  28.9625        175
  28.9997        174
  29.0368        164
  29.0740        195
  29.1111        196
  29.1483        151
  29.1854        146
  29.2226        167
  29.2597        133
  29.2969        168
  29.3340        158
  29.3712        171
  29.4083        164
  29.4455        128
  29.4826        143
  29.5198        186
  29.5569        185
  29.5941        151
  29.6312        165
  29.6684        161
  29.7055        159
  29.7427        162
  29.7799        158
  29.8170        150
  29.8542        132
  29.8913        156
  29.9285        132
  29.9656        144
  30.0028        147
  30.0399        173
  30.0771        157
  30.1142        162
  30.1514        164
  30.1885        138
  30.2257        140
  30.2628        161
  30.3000        180
  30.3371        248
  30.3743        339
  30.4114        264
  30.4486        250
  30.4857        195
  30.5229        184
  30.5600        146
  30.5972        207
  30.6343        154
  30.6715        148
  30.7086        152
  30.7458        168
  30.7829        148
  30.8201        138
  30.8572        150
  30.8944        141
  30.9315        161
  30.9687        164
  31.0058        164
  31.0430        146
  31.0801        162
  31.1173        148
  31.1544        133
  31.1916        162
  31.2287        139
  31.2659        141
  31.3030        140
  31.3402        142
  31.3774        136
  31.4145        134
  31.4517        120
  31.4888        146
  31.5260        142
  31.5631        126
  31.6003        145
  31.6374        154
  31.6746        155
  31.7117        139
  31.7489        123
  31.7860        158
  31.8232        151
  31.8603        147
  31.8975        138
  31.9346        138
  31.9718        137
  32.0089        141
  32.0461        137
  32.0832        123
  32.1204        137
  32.1575        132
  32.1947        149
  32.2318        115
  32.2690        148
  32.3061        149
  32.3433        149
  32.3804        134
  32.4176        142
  32.4547        152
  32.4919        140
  32.5290        146
  32.5662        163
  32.6033        146
  32.6405        120
  32.6776        143
  32.7148        137
  32.7519        133
  32.7891        141
  32.8262        140
  32.8634        130
  32.9006        138
  32.9377        140
  32.9749        105
  33.0120        113
  33.0492        118
  33.0863        110
  33.1235        108
  33.1606        110
  33.1978        124
  33.2349        130
  33.2721        126
  33.3092        126
  33.3464        129
  33.3835        123
  33.4207        116
  33.4578        115
  33.4950         96
  33.5321        116
  33.5693        129
  33.6064        126
  33.6436        102
  33.6807        112
  33.7179        128
  33.7550        140
  33.7922        128
  33.8293        117
  33.8665        131
  33.9036        104
  33.9408        113
  33.9779        138
  34.0151        127
  34.0522        111
  34.0894         92
  34.1265        125
  34.1637        122
  34.2008        123
  34.2380        115
  34.2751        112
  34.3123        121
  34.3494        131
  34.3866        101
  34.4238        151
  34.4609        123
  34.4981         96
  34.5352        109
  34.5724        136
  34.6095        138
  34.6467        141
  34.6838        132
  34.7210        142
  34.7581        176
  34.7953        147
  34.8324        132
  34.8696        145
  34.9067        122
  34.9439        130
  34.9810        112
  35.0182        124
  35.0553        111
  35.0925        103
  35.1296        113
  35.1668         91
  35.2039        108
  35.2411        110
  35.2782         96
  35.3154         99
  35.3525        103
  35.3897        108
  35.4268         98
  35.4640        114
  35.5011        107
  35.5383        117
  35.5754         96
  35.6126        111
  35.6497        104
  35.6869        107
  35.7240         95
  35.7612         97
  35.7983         99
  35.8355        112
  35.8726        100
  35.9098         93
  35.9469         96
  35.9841        106
  36.0213         95
  36.0584        101
  36.0956         87
  36.1327         92
  36.1699         88
  36.2070        104
  36.2442         97
  36.2813        107
  36.3185        109
  36.3556        108
  36.3928         97
  36.4299         92
  36.4671        102
  36.5042        108
  36.5414         95
  36.5785         89
  36.6157        109
  36.6528         86
  36.6900        105
  36.7271         93
  36.7643         95
  36.8014         92
  36.8386        104
  36.8757         86
  36.9129        111
  36.9500         81
  36.9872         81
  37.0243         83
  37.0615        115
  37.0986         99
  37.1358         94
  37.1729         89
  37.2101        100
  37.2472         98
  37.2844         98
  37.3215         86
  37.3587         94
  37.3958        114
  37.4330        171
  37.4701        139
  37.5073        123
  37.5445        122
  37.5816        110
  37.6188         85
  37.6559         95
  37.6931         93
  37.7302         84
  37.7674         78
  37.8045         92
  37.8417         91
  37.8788        102
  37.9160         92
  37.9531         71
  37.9903         98
  38.0274        102
  38.0646         82
  38.1017         95
  38.1389         76
  38.1760         66
  38.2132         89
  38.2503         78
  38.2875         91
  38.3246        108
  38.3618         84
  38.3989         77
  38.4361         85
  38.4732         97
  38.5104         88
  38.5475         70
  38.5847         92
  38.6218         84
  38.6590         76
  38.6961         82
  38.7333        103
  38.7704         89
  38.8076         85
  38.8447         89
  38.8819         79
  38.9190         77
  38.9562         86
  38.9933         78
  39.0305         97
  39.0677         85
  39.1048         92
  39.1420        102
  39.1791         78
  39.2163         86
  39.2534         97
  39.2906         95
  39.3277         68
  39.3649         78
  39.4020         81
  39.4392         81
  39.4763         79
  39.5135         75
  39.5506         90
  39.5878        105
  39.6249         95
  39.6621         56
  39.6992         89
  39.7364         77
  39.7735         87
  39.8107         67
  39.8478         73
  39.8850         71
  39.9221         61
  39.9593         93
  39.9964         67
  40.0336         76
  40.0707         78
  40.1079         81
  40.1450         80
  40.1822         63
  40.2193         83
  40.2565         89
  40.2936        105
  40.3308         83
  40.3679         84
  40.4051         85
  40.4422         59
  40.4794         78
  40.5165         79
  40.5537         63
  40.5908         75
  40.6280         75
  40.6652         70
  40.7023         68
  40.7395         67
  40.7766         87
  40.8138         89
  40.8509         74
  40.8881         71
  40.9252         80
  40.9624         81
  40.9995         67
  41.0367         78
  41.0738         79
  41.1110         77
  41.1481         80
  41.1853         83
  41.2224         92
  41.2596         67
  41.2967         87
  41.3339        100
  41.3710         73
  41.4082         72
  41.4453         73
  41.4825         61
  41.5196         65
  41.5568        102
  41.5939         73
  41.6311         85
  41.6682         83
  41.7054         91
  41.7425         94
  41.7797         79
  41.8168         85
  41.8540         63
  41.8911         60
  41.9283         82
  41.9654         81
  42.0026         74
  42.0397         77
  42.0769         82
  42.1140         86
  42.1512         74
  42.1884         71
  42.2255         83
  42.2627         74
  42.2998         75
  42.3370         68
  42.3741         76
  42.4113         65
  42.4484         69
  42.4856         74
  42.5227         70
  42.5599         84
  42.5970         85
  42.6342         81
  42.6713         77
  42.7085         67
  42.7456         77
  42.7828         67
  42.8199         86
  42.8571         71
  42.8942         69
  42.9314         85
  42.9685         72
  43.0057         63
  43.0428         88
  43.0800         72
  43.1171         75
  43.1543         75
  43.1914         72
  43.2286        106
  43.2657         90
  43.3029         92
  43.3400         82
  43.3772        101
  43.4143         92
  43.4515         94
  43.4886        118
  43.5258        119
  43.5629         89
  43.6001         93
  43.6372         99
  43.6744         68
  43.7116         82
  43.7487         84
  43.7859         69
  43.8230         77
  43.8602         76
  43.8973         60
  43.9345         70
  43.9716         74
  44.0088         63
  44.0459         84
  44.0831         73
  44.1202         72
  44.1574         69
  44.1945         69
  44.2317         81
  44.2688         75
  44.3060         71
  44.3431         78
  44.3803         74
  44.4174         93
  44.4546         72
  44.4917        101
  44.5289         84
  44.5660         92
  44.6032         90
  44.6403         65
  44.6775         77
  44.7146         83
  44.7518         70
  44.7889         75
  44.8261         87
  44.8632         76
  44.9004         81
  44.9375         69
  44.9747         65
  45.0118         82
  45.0490         62
  45.0861         70
  45.1233         94
  45.1604         81
  45.1976         69
  45.2347         78
  45.2719         84
  45.3091         62
  45.3462         82
  45.3834         65
  45.4205         81
  45.4577         70
  45.4948         62
  45.5320         64
  45.5691         68
  45.6063         83
  45.6434         61
  45.6806         73
  45.7177         59
  45.7549         73
  45.7920         78
  45.8292         77
  45.8663         74
  45.9035         69
  45.9406         58
  45.9778         65
  46.0149         63
  46.0521         66
  46.0892         67
  46.1264         74
  46.1635         64
  46.2007         57
  46.2378         69
  46.2750         71
  46.3121         63
  46.3493         59
  46.3864         67
  46.4236         62
  46.4607         79
  46.4979         53
  46.5350         58
  46.5722         65
  46.6093         63
  46.6465         69
  46.6836         70
  46.7208         60
  46.7579         75
  46.7951         87
  46.8323         63
  46.8694         65
  46.9066         77
  46.9437         57
  46.9809         73
  47.0180         54
  47.0552         77
  47.0923         65
  47.1295         56
  47.1666         68
  47.2038         68
  47.2409         73
  47.2781         62
  47.3152         68
  47.3524         70
  47.3895         66
  47.4267         63
  47.4638         57
  47.5010         56
  47.5381         81
  47.5753         60
  47.6124         56
  47.6496         49
  47.6867         57
  47.7239         62
  47.7610         61
  47.7982         60
  47.8353         51
  47.8725         55
  47.9096         57
  47.9468         51
  47.9839         48
  48.0211         53
  48.0582         64
  48.0954         69
  48.1325         68
  48.1697         63
  48.2068         60
  48.2440         62
  48.2811         68
  48.3183         70
  48.3555         56
  48.3926         75
  48.4298         63
  48.4669         71
  48.5041         68
  48.5412         45
  48.5784         75
  48.6155         51
  48.6527         71
  48.6898         68
  48.7270         69
  48.7641         64
  48.8013         64
  48.8384         73
  48.8756         62
  48.9127         70
  48.9499        128
  48.9870         70
  49.0242         86
  49.0613         88
  49.0985        112
  49.1356         74
  49.1728         61
  49.2099         62
  49.2471         62
  49.2842         70
  49.3214         59
  49.3585         47
  49.3957         64
  49.4328         65
  49.4700         59
  49.5071         54
  49.5443         76
  49.5814         57
  49.6186         78
  49.6557         69
  49.6929         58
  49.7300         64
  49.7672         67
  49.8043         70
  49.8415         75
  49.8786         51
  49.9158         52
  49.9530         63
  49.9901         74
  50.0273         77
  50.0644         49
  50.1016         58
  50.1387         56
  50.1759         53
  50.2130         82
  50.2502         79
  50.2873         50
  50.3245         59
  50.3616         51
  50.3988         56
  50.4359         74
  50.4731         61
  50.5102         63
  50.5474         63
  50.5845         71
  50.6217         60
  50.6588         65
  50.6960         54
  50.7331         64
  50.7703         67
  50.8074         48
  50.8446         52
  50.8817         63
  50.9189         59
  50.9560         65
  50.9932         53
  51.0303         53
  51.0675         62
  51.1046         46
  51.1418         53
  51.1789         85
  51.2161         44
  51.2532         59
  51.2904         55
  51.3275         67
  51.3647         68
  51.4018         71
  51.4390         67
  51.4762         57
  51.5133         65
  51.5505         71
  51.5876         68
  51.6248         63
  51.6619         80
  51.6991         61
  51.7362         50
  51.7734         72
  51.8105         69
  51.8477         65
  51.8848         53
  51.9220         57
  51.9591         57
  51.9963         53
  52.0334         62
  52.0706         62
  52.1077         62
  52.1449         64
  52.1820         55
  52.2192         60
  52.2563         54
  52.2935         44
  52.3306         46
  52.3678         57
  52.4049         57
  52.4421         53
  52.4792         69
  52.5164         63
  52.5535         53
  52.5907         63
  52.6278         51
  52.6650         53
  52.7021         60
  52.7393         57
  52.7764         73
  52.8136         62
  52.8507         50
  52.8879         63
  52.9250         55
  52.9622         56
  52.9994         64
  53.0365         61
  53.0737         59
  53.1108         62
  53.1480         60
  53.1851         68
  53.2223         54
  53.2594         59
  53.2966         51
  53.3337         61
  53.3709         49
  53.4080         59
  53.4452         51
  53.4823         59
  53.5195         64
  53.5566         65
  53.5938         67
  53.6309         57
  53.6681         61
  53.7052         55
  53.7424         62
  53.7795         75
  53.8167         52
  53.8538         73
  53.8910         63
  53.9281         71
  53.9653         71
  54.0024         76
  54.0396         70
  54.0767         59
  54.1139         62
  54.1510         57
  54.1882         55
  54.2253         66
  54.2625         50
  54.2996         63
  54.3368         64
  54.3739         60
  54.4111         60
  54.4482         54
  54.4854         57
  54.5225         48
  54.5597         57
  54.5969         71
  54.6340         72
  54.6712         58
  54.7083         58
  54.7455         66
  54.7826         59
  54.8198         62
  54.8569         58
  54.8941         56
  54.9312         50
  54.9684         60
  55.0055         53
  55.0427         50
  55.0798         49
  55.1170         57
  55.1541         61
  55.1913         56
  55.2284         59
  55.2656         71
  55.3027         67
  55.3399         46
  55.3770         46
  55.4142         53
  55.4513         43
  55.4885         58
  55.5256         53
  55.5628         71
  55.5999         71
  55.6371         69
  55.6742         56
  55.7114         55
  55.7485         52
  55.7857         61
  55.8228         66
  55.8600         66
  55.8971         55
  55.9343         45
  55.9714         55
  56.0086         62
  56.0457         65
  56.0829         57
  56.1201         71
  56.1572         71
  56.1944         48
  56.2315         74
  56.2687         61
  56.3058         52
  56.3430         61
  56.3801         67
  56.4173         45
  56.4544         77
  56.4916         59
  56.5287         65
  56.5659         59
  56.6030         53
  56.6402         52
  56.6773         64
  56.7145         52
  56.7516         43
  56.7888         52
  56.8259         69
  56.8631         65
  56.9002         63
  56.9374         64
  56.9745         58
  57.0117         44
  57.0488         37
  57.0860         54
  57.1231         55
  57.1603         45
  57.1974         51
  57.2346         55
  57.2717         54
  57.3089         45
  57.3460         54
  57.3832         52
  57.4203         59
  57.4575         51
  57.4946         58
  57.5318         66
  57.5689         62
  57.6061         53
  57.6433         73
  57.6804         45
  57.7176         59
  57.7547         61
  57.7919         54
  57.8290         59
  57.8662         64
  57.9033         57
  57.9405         64
  57.9776         50
  58.0148         57
  58.0519         51
  58.0891         46
  58.1262         54
  58.1634         51
  58.2005         51
  58.2377         55
  58.2748         51
  58.3120         63
  58.3491         48
  58.3863         56
  58.4234         53
  58.4606         43
  58.4977         61
  58.5349         59
  58.5720         55
  58.6092         44
  58.6463         57
  58.6835         60
  58.7206         58
  58.7578         43
  58.7949         58
  58.8321         48
  58.8692         72
  58.9064         45
  58.9435         51
  58.9807         44
  59.0178         66
  59.0550         61
  59.0921         47
  59.1293         50
  59.1664         58
  59.2036         60
  59.2408         56
  59.2779         63
  59.3151         60
  59.3522         60
  59.3894         55
  59.4265         47
  59.4637         51
  59.5008         50
  59.5380         53
  59.5751         61
  59.6123         75
  59.6494         54
  59.6866         68
  59.7237         60
  59.7609         56
  59.7980         57
  59.8352         61
  59.8723         56
  59.9095         48
  59.9466         69
  59.9838         54
  60.0024         40