File: notebooks/data/xrd_data/ML_20220720_3_SJD_4_LaB6-4min.csv
;,2THETA,
5.0000,278
5.0372,268
5.0743,268
5.1115,255
5.1486,242
5.1858,240
5.2229,239
5.2601,208
5.2972,256
5.3344,252
5.3715,231
5.4087,240
5.4458,245
5.4830,257
5.5201,230
5.5573,269
5.5944,203
5.6316,233
5.6687,211
5.7059,198
5.7430,208
5.7802,219
5.8173,192
5.8545,171
5.8916,203
5.9288,202
5.9659,216
6.0031,212
6.0402,172
6.0774,200
6.1145,213
6.1517,174
6.1888,191
6.2260,215
6.2631,193
6.3003,190
6.3374,181
6.3746,185
6.4117,168
6.4489,200
6.4860,186
6.5232,190
6.5604,177
6.5975,153
6.6347,151
6.6718,194
6.7090,177
6.7461,184
6.7833,160
6.8204,185
6.8576,171
6.8947,155
6.9319,144
6.9690,167
7.0062,145
7.0433,145
7.0805,170
7.1176,158
7.1548,138
7.1919,151
7.2291,167
7.2662,155
7.3034,178
7.3405,163
7.3777,179
7.4148,178
7.4520,165
7.4891,165
7.5263,165
7.5634,171
7.6006,189
7.6377,173
7.6749,167
7.7120,183
7.7492,193
7.7863,181
7.8235,178
7.8606,191
7.8978,178
7.9349,194
7.9721,156
8.0092,198
8.0464,209
8.0835,202
8.1207,198
8.1579,186
8.1950,193
8.2322,193
8.2693,182
8.3065,210
8.3436,204
8.3808,196
8.4179,175
8.4551,189
8.4922,212
8.5294,204
8.5665,193
8.6037,192
8.6408,200
8.6780,187
8.7151,212
8.7523,230
8.7894,192
8.8266,184
8.8637,229
8.9009,201
8.9380,204
8.9752,235
9.0123,213
9.0495,197
9.0866,219
9.1238,224
9.1609,221
9.1981,212
9.2352,208
9.2724,219
9.3095,239
9.3467,275
9.3838,231
9.4210,241
9.4581,226
9.4953,241
9.5324,208
9.5696,243
9.6067,242
9.6439,253
9.6811,207
9.7182,217
9.7554,223
9.7925,234
9.8297,251
9.8668,272
9.9040,258
9.9411,211
9.9783,221
10.0154,244
10.0526,250
10.0897,261
10.1269,231
10.1640,251
10.2012,231
10.2383,235
10.2755,224
10.3126,255
10.3498,250
10.3869,251
10.4241,254
10.4612,260
10.4984,238
10.5355,268
10.5727,219
10.6098,239
10.6470,280
10.6841,237
10.7213,252
10.7584,219
10.7956,245
10.8327,230
10.8699,222
10.9070,244
10.9442,223
10.9813,234
11.0185,242
11.0556,230
11.0928,235
11.1299,246
11.1671,245
11.2043,251
11.2414,236
11.2786,246
11.3157,220
11.3529,231
11.3900,227
11.4272,225
11.4643,249
11.5015,239
11.5386,251
11.5758,235
11.6129,247
11.6501,234
11.6872,249
11.7244,211
11.7615,229
11.7987,262
11.8358,262
11.8730,220
11.9101,254
11.9473,203
11.9844,240
12.0216,240
12.0587,236
12.0959,232
12.1330,223
12.1702,237
12.2073,209
12.2445,211
12.2816,229
12.3188,211
12.3559,188
12.3931,242
12.4302,245
12.4674,222
12.5045,208
12.5417,196
12.5788,217
12.6160,219
12.6531,213
12.6903,198
12.7274,204
12.7646,208
12.8018,198
12.8389,199
12.8761,192
12.9132,207
12.9504,217
12.9875,207
13.0247,209
13.0618,195
13.0990,193
13.1361,210
13.1733,222
13.2104,199
13.2476,203
13.2847,221
13.3219,214
13.3590,191
13.3962,217
13.4333,217
13.4705,222
13.5076,200
13.5448,211
13.5819,217
13.6191,201
13.6562,196
13.6934,193
13.7305,204
13.7677,201
13.8048,199
13.8420,173
13.8791,208
13.9163,175
13.9534,184
13.9906,176
14.0277,191
14.0649,181
14.1020,154
14.1392,196
14.1763,146
14.2135,180
14.2506,179
14.2878,198
14.3250,155
14.3621,161
14.3993,200
14.4364,177
14.4736,210
14.5107,159
14.5479,173
14.5850,167
14.6222,175
14.6593,177
14.6965,159
14.7336,148
14.7708,184
14.8079,173
14.8451,178
14.8822,178
14.9194,149
14.9565,188
14.9937,191
15.0308,173
15.0680,158
15.1051,169
15.1423,146
15.1794,156
15.2166,191
15.2537,152
15.2909,178
15.3280,175
15.3652,175
15.4023,196
15.4395,167
15.4766,168
15.5138,165
15.5509,174
15.5881,144
15.6252,168
15.6624,181
15.6995,161
15.7367,154
15.7738,170
15.8110,171
15.8482,171
15.8853,191
15.9225,169
15.9596,177
15.9968,148
16.0339,153
16.0711,157
16.1082,168
16.1454,183
16.1825,164
16.2197,168
16.2568,175
16.2940,154
16.3311,177
16.3683,157
16.4054,157
16.4426,160
16.4797,146
16.5169,158
16.5540,169
16.5912,161
16.6283,183
16.6655,162
16.7026,173
16.7398,155
16.7769,161
16.8141,153
16.8512,174
16.8884,194
16.9255,148
16.9627,163
16.9998,193
17.0370,181
17.0741,163
17.1113,179
17.1484,167
17.1856,167
17.2227,150
17.2599,172
17.2970,175
17.3342,182
17.3713,176
17.4085,163
17.4457,171
17.4828,150
17.5200,149
17.5571,152
17.5943,175
17.6314,151
17.6686,157
17.7057,149
17.7429,157
17.7800,174
17.8172,155
17.8543,178
17.8915,178
17.9286,170
17.9658,154
18.0029,164
18.0401,141
18.0772,161
18.1144,187
18.1515,171
18.1887,156
18.2258,166
18.2630,165
18.3001,165
18.3373,181
18.3744,147
18.4116,172
18.4487,186
18.4859,162
18.5230,154
18.5602,147
18.5973,168
18.6345,173
18.6716,168
18.7088,172
18.7459,185
18.7831,167
18.8202,170
18.8574,183
18.8945,184
18.9317,208
18.9689,165
19.0060,167
19.0432,165
19.0803,185
19.1175,186
19.1546,169
19.1918,190
19.2289,177
19.2661,161
19.3032,181
19.3404,151
19.3775,189
19.4147,172
19.4518,161
19.4890,173
19.5261,178
19.5633,168
19.6004,170
19.6376,183
19.6747,156
19.7119,190
19.7490,178
19.7862,183
19.8233,186
19.8605,190
19.8976,172
19.9348,185
19.9719,189
20.0091,189
20.0462,182
20.0834,157
20.1205,190
20.1577,160
20.1948,179
20.2320,192
20.2691,169
20.3063,173
20.3434,213
20.3806,177
20.4177,179
20.4549,169
20.4921,210
20.5292,189
20.5664,188
20.6035,170
20.6407,198
20.6778,171
20.7150,166
20.7521,194
20.7893,182
20.8264,220
20.8636,185
20.9007,205
20.9379,195
20.9750,198
21.0122,180
21.0493,193
21.0865,205
21.1236,216
21.1608,242
21.1979,296
21.2351,323
21.2722,347
21.3094,344
21.3465,542
21.3837,421
21.4208,326
21.4580,244
21.4951,201
21.5323,221
21.5694,186
21.6066,180
21.6437,208
21.6809,188
21.7180,215
21.7552,208
21.7923,181
21.8295,184
21.8666,202
21.9038,199
21.9409,203
21.9781,191
22.0152,202
22.0524,185
22.0896,181
22.1267,171
22.1639,179
22.2010,196
22.2382,181
22.2753,190
22.3125,189
22.3496,169
22.3868,229
22.4239,228
22.4611,208
22.4982,219
22.5354,222
22.5725,191
22.6097,207
22.6468,173
22.6840,196
22.7211,205
22.7583,212
22.7954,216
22.8326,220
22.8697,200
22.9069,218
22.9440,199
22.9812,212
23.0183,189
23.0555,221
23.0926,225
23.1298,194
23.1669,200
23.2041,198
23.2412,219
23.2784,201
23.3155,207
23.3527,184
23.3898,232
23.4270,201
23.4641,236
23.5013,189
23.5384,185
23.5756,195
23.6128,220
23.6499,194
23.6871,211
23.7242,206
23.7614,220
23.7985,195
23.8357,200
23.8728,197
23.9100,190
23.9471,213
23.9843,199
24.0214,213
24.0586,177
24.0957,194
24.1329,205
24.1700,198
24.2072,217
24.2443,221
24.2815,233
24.3186,227
24.3558,242
24.3929,210
24.4301,196
24.4672,219
24.5044,188
24.5415,211
24.5787,193
24.6158,209
24.6530,199
24.6901,224
24.7273,197
24.7644,207
24.8016,190
24.8387,190
24.8759,193
24.9130,194
24.9502,192
24.9873,183
25.0245,194
25.0616,187
25.0988,198
25.1360,220
25.1731,189
25.2103,191
25.2474,214
25.2846,203
25.3217,193
25.3589,181
25.3960,180
25.4332,184
25.4703,206
25.5075,226
25.5446,196
25.5818,169
25.6189,208
25.6561,199
25.6932,194
25.7304,201
25.7675,201
25.8047,197
25.8418,213
25.8790,205
25.9161,198
25.9533,187
25.9904,172
26.0276,192
26.0647,196
26.1019,204
26.1390,210
26.1762,191
26.2133,207
26.2505,194
26.2876,184
26.3248,198
26.3619,200
26.3991,195
26.4362,185
26.4734,194
26.5105,178
26.5477,194
26.5848,195
26.6220,161
26.6591,183
26.6963,177
26.7335,204
26.7706,228
26.8078,186
26.8449,189
26.8821,197
26.9192,183
26.9564,190
26.9935,206
27.0307,201
27.0678,169
27.1050,200
27.1421,210
27.1793,226
27.2164,241
27.2536,180
27.2907,204
27.3279,162
27.3650,184
27.4022,193
27.4393,210
27.4765,134
27.5136,162
27.5508,176
27.5879,192
27.6251,165
27.6622,176
27.6994,169
27.7365,174
27.7737,176
27.8108,173
27.8480,183
27.8851,164
27.9223,171
27.9594,213
27.9966,164
28.0337,187
28.0709,180
28.1080,179
28.1452,167
28.1823,161
28.2195,179
28.2567,175
28.2938,169
28.3310,178
28.3681,180
28.4053,165
28.4424,172
28.4796,155
28.5167,140
28.5539,156
28.5910,176
28.6282,162
28.6653,165
28.7025,161
28.7396,172
28.7768,179
28.8139,159
28.8511,141
28.8882,168
28.9254,175
28.9625,173
28.9997,175
29.0368,168
29.0740,182
29.1111,151
29.1483,145
29.1854,145
29.2226,149
29.2597,153
29.2969,159
29.3340,203
29.3712,151
29.4083,168
29.4455,166
29.4826,176
29.5198,149
29.5569,158
29.5941,163
29.6312,173
29.6684,172
29.7055,170
29.7427,168
29.7799,155
29.8170,169
29.8542,173
29.8913,157
29.9285,157
29.9656,158
30.0028,168
30.0399,174
30.0771,180
30.1142,150
30.1514,158
30.1885,138
30.2257,185
30.2628,159
30.3000,163
30.3371,189
30.3743,318
30.4114,262
30.4486,232
30.4857,230
30.5229,186
30.5600,155
30.5972,149
30.6343,169
30.6715,171
30.7086,161
30.7458,140
30.7829,140
30.8201,148
30.8572,139
30.8944,143
30.9315,153
30.9687,130
31.0058,141
31.0430,136
31.0801,145
31.1173,150
31.1544,150
31.1916,135
31.2287,161
31.2659,144
31.3030,147
31.3402,151
31.3774,151
31.4145,132
31.4517,139
31.4888,140
31.5260,139
31.5631,160
31.6003,157
31.6374,146
31.6746,116
31.7117,119
31.7489,165
31.7860,150
31.8232,128
31.8603,132
31.8975,137
31.9346,147
31.9718,136
32.0089,167
32.0461,135
32.0832,125
32.1204,140
32.1575,129
32.1947,136
32.2318,149
32.2690,111
32.3061,116
32.3433,153
32.3804,128
32.4176,124
32.4547,162
32.4919,165
32.5290,158
32.5662,149
32.6033,138
32.6405,148
32.6776,125
32.7148,124
32.7519,139
32.7891,121
32.8262,138
32.8634,117
32.9006,134
32.9377,140
32.9749,119
33.0120,141
33.0492,112
33.0863,134
33.1235,152
33.1606,123
33.1978,118
33.2349,133
33.2721,113
33.3092,135
33.3464,116
33.3835,132
33.4207,114
33.4578,123
33.4950,132
33.5321,123
33.5693,109
33.6064,108
33.6436,118
33.6807,97
33.7179,131
33.7550,106
33.7922,110
33.8293,126
33.8665,113
33.9036,115
33.9408,121
33.9779,99
34.0151,118
34.0522,124
34.0894,120
34.1265,126
34.1637,138
34.2008,105
34.2380,117
34.2751,129
34.3123,115
34.3494,106
34.3866,120
34.4238,132
34.4609,115
34.4981,104
34.5352,116
34.5724,105
34.6095,128
34.6467,126
34.6838,110
34.7210,131
34.7581,153
34.7953,166
34.8324,130
34.8696,136
34.9067,119
34.9439,110
34.9810,96
35.0182,112
35.0553,96
35.0925,118
35.1296,91
35.1668,102
35.2039,120
35.2411,91
35.2782,119
35.3154,95
35.3525,117
35.3897,118
35.4268,104
35.4640,109
35.5011,93
35.5383,100
35.5754,105
35.6126,96
35.6497,115
35.6869,93
35.7240,93
35.7612,110
35.7983,112
35.8355,81
35.8726,84
35.9098,98
35.9469,91
35.9841,107
36.0213,97
36.0584,92
36.0956,98
36.1327,110
36.1699,102
36.2070,97
36.2442,99
36.2813,87
36.3185,83
36.3556,98
36.3928,94
36.4299,82
36.4671,88
36.5042,110
36.5414,101
36.5785,103
36.6157,100
36.6528,98
36.6900,95
36.7271,86
36.7643,80
36.8014,107
36.8386,94
36.8757,100
36.9129,98
36.9500,81
36.9872,95
37.0243,102
37.0615,88
37.0986,67
37.1358,93
37.1729,91
37.2101,76
37.2472,87
37.2844,105
37.3215,93
37.3587,103
37.3958,87
37.4330,160
37.4701,132
37.5073,128
37.5445,140
37.5816,110
37.6188,95
37.6559,91
37.6931,88
37.7302,93
37.7674,108
37.8045,71
37.8417,80
37.8788,86
37.9160,85
37.9531,81
37.9903,88
38.0274,79
38.0646,80
38.1017,90
38.1389,82
38.1760,93
38.2132,107
38.2503,75
38.2875,90
38.3246,85
38.3618,89
38.3989,84
38.4361,75
38.4732,85
38.5104,81
38.5475,106
38.5847,74
38.6218,73
38.6590,82
38.6961,74
38.7333,96
38.7704,91
38.8076,73
38.8447,81
38.8819,92
38.9190,104
38.9562,92
38.9933,85
39.0305,75
39.0677,116
39.1048,78
39.1420,80
39.1791,80
39.2163,95
39.2534,84
39.2906,86
39.3277,79
39.3649,91
39.4020,75
39.4392,87
39.4763,85
39.5135,72
39.5506,73
39.5878,84
39.6249,88
39.6621,75
39.6992,82
39.7364,82
39.7735,91
39.8107,77
39.8478,91
39.8850,83
39.9221,71
39.9593,83
39.9964,80
40.0336,76
40.0707,83
40.1079,70
40.1450,71
40.1822,74
40.2193,73
40.2565,75
40.2936,90
40.3308,70
40.3679,74
40.4051,60
40.4422,82
40.4794,76
40.5165,93
40.5537,77
40.5908,90
40.6280,79
40.6652,95
40.7023,70
40.7395,74
40.7766,71
40.8138,80
40.8509,93
40.8881,88
40.9252,102
40.9624,83
40.9995,76
41.0367,90
41.0738,67
41.1110,68
41.1481,77
41.1853,82
41.2224,74
41.2596,59
41.2967,88
41.3339,69
41.3710,79
41.4082,78
41.4453,74
41.4825,76
41.5196,70
41.5568,89
41.5939,80
41.6311,73
41.6682,71
41.7054,74
41.7425,71
41.7797,74
41.8168,76
41.8540,69
41.8911,59
41.9283,102
41.9654,80
42.0026,70
42.0397,73
42.0769,96
42.1140,73
42.1512,77
42.1884,73
42.2255,78
42.2627,74
42.2998,76
42.3370,83
42.3741,68
42.4113,73
42.4484,88
42.4856,65
42.5227,76
42.5599,75
42.5970,68
42.6342,70
42.6713,67
42.7085,81
42.7456,76
42.7828,79
42.8199,65
42.8571,85
42.8942,64
42.9314,77
42.9685,78
43.0057,74
43.0428,84
43.0800,87
43.1171,93
43.1543,100
43.1914,67
43.2286,93
43.2657,85
43.3029,89
43.3400,79
43.3772,84
43.4143,97
43.4515,87
43.4886,127
43.5258,125
43.5629,108
43.6001,125
43.6372,96
43.6744,82
43.7116,81
43.7487,79
43.7859,85
43.8230,74
43.8602,85
43.8973,78
43.9345,74
43.9716,79
44.0088,72
44.0459,69
44.0831,66
44.1202,83
44.1574,67
44.1945,73
44.2317,78
44.2688,73
44.3060,65
44.3431,78
44.3803,83
44.4174,89
44.4546,64
44.4917,57
44.5289,90
44.5660,74
44.6032,86
44.6403,81
44.6775,84
44.7146,80
44.7518,86
44.7889,75
44.8261,66
44.8632,62
44.9004,68
44.9375,72
44.9747,67
45.0118,86
45.0490,78
45.0861,80
45.1233,73
45.1604,68
45.1976,74
45.2347,80
45.2719,69
45.3091,51
45.3462,75
45.3834,75
45.4205,68
45.4577,65
45.4948,68
45.5320,60
45.5691,60
45.6063,75
45.6434,64
45.6806,62
45.7177,82
45.7549,77
45.7920,69
45.8292,69
45.8663,55
45.9035,60
45.9406,77
45.9778,63
46.0149,63
46.0521,65
46.0892,59
46.1264,58
46.1635,65
46.2007,70
46.2378,65
46.2750,68
46.3121,65
46.3493,84
46.3864,70
46.4236,75
46.4607,61
46.4979,64
46.5350,67
46.5722,67
46.6093,59
46.6465,77
46.6836,61
46.7208,78
46.7579,75
46.7951,53
46.8323,69
46.8694,65
46.9066,75
46.9437,56
46.9809,64
47.0180,87
47.0552,62
47.0923,67
47.1295,68
47.1666,76
47.2038,67
47.2409,68
47.2781,72
47.3152,75
47.3524,88
47.3895,66
47.4267,73
47.4638,71
47.5010,68
47.5381,82
47.5753,64
47.6124,60
47.6496,68
47.6867,64
47.7239,74
47.7610,60
47.7982,60
47.8353,65
47.8725,53
47.9096,75
47.9468,71
47.9839,75
48.0211,62
48.0582,75
48.0954,52
48.1325,49
48.1697,45
48.2068,53
48.2440,58
48.2811,68
48.3183,63
48.3555,76
48.3926,75
48.4298,63
48.4669,75
48.5041,72
48.5412,76
48.5784,73
48.6155,68
48.6527,65
48.6898,55
48.7270,68
48.7641,72
48.8013,71
48.8384,64
48.8756,54
48.9127,80
48.9499,110
48.9870,101
49.0242,66
49.0613,86
49.0985,80
49.1356,58
49.1728,69
49.2099,70
49.2471,57
49.2842,63
49.3214,90
49.3585,52
49.3957,78
49.4328,72
49.4700,58
49.5071,53
49.5443,64
49.5814,68
49.6186,70
49.6557,64
49.6929,66
49.7300,62
49.7672,69
49.8043,60
49.8415,50
49.8786,54
49.9158,55
49.9530,58
49.9901,48
50.0273,70
50.0644,44
50.1016,48
50.1387,55
50.1759,52
50.2130,72
50.2502,71
50.2873,58
50.3245,79
50.3616,59
50.3988,61
50.4359,63
50.4731,67
50.5102,63
50.5474,59
50.5845,58
50.6217,65
50.6588,67
50.6960,58
50.7331,63
50.7703,57
50.8074,61
50.8446,69
50.8817,71
50.9189,62
50.9560,54
50.9932,52
51.0303,57
51.0675,69
51.1046,54
51.1418,75
51.1789,69
51.2161,69
51.2532,55
51.2904,73
51.3275,54
51.3647,59
51.4018,97
51.4390,55
51.4762,65
51.5133,61
51.5505,59
51.5876,64
51.6248,67
51.6619,72
51.6991,63
51.7362,58
51.7734,62
51.8105,61
51.8477,73
51.8848,65
51.9220,70
51.9591,72
51.9963,57
52.0334,65
52.0706,51
52.1077,60
52.1449,55
52.1820,58
52.2192,53
52.2563,59
52.2935,53
52.3306,63
52.3678,53
52.4049,67
52.4421,65
52.4792,64
52.5164,60
52.5535,58
52.5907,58
52.6278,62
52.6650,64
52.7021,51
52.7393,61
52.7764,49
52.8136,51
52.8507,65
52.8879,59
52.9250,61
52.9622,56
52.9994,56
53.0365,65
53.0737,52
53.1108,73
53.1480,59
53.1851,63
53.2223,61
53.2594,73
53.2966,47
53.3337,54
53.3709,52
53.4080,47
53.4452,56
53.4823,55
53.5195,59
53.5566,60
53.5938,48
53.6309,43
53.6681,58
53.7052,64
53.7424,63
53.7795,61
53.8167,54
53.8538,53
53.8910,59
53.9281,69
53.9653,64
54.0024,64
54.0396,61
54.0767,70
54.1139,72
54.1510,55
54.1882,55
54.2253,65
54.2625,64
54.2996,52
54.3368,78
54.3739,62
54.4111,57
54.4482,62
54.4854,54
54.5225,63
54.5597,48
54.5969,47
54.6340,62
54.6712,66
54.7083,53
54.7455,57
54.7826,70
54.8198,45
54.8569,55
54.8941,63
54.9312,67
54.9684,71
55.0055,55
55.0427,59
55.0798,59
55.1170,60
55.1541,57
55.1913,65
55.2284,50
55.2656,55
55.3027,50
55.3399,50
55.3770,38
55.4142,47
55.4513,47
55.4885,54
55.5256,57
55.5628,60
55.5999,55
55.6371,50
55.6742,44
55.7114,48
55.7485,51
55.7857,49
55.8228,47
55.8600,59
55.8971,59
55.9343,53
55.9714,59
56.0086,75
56.0457,60
56.0829,60
56.1201,64
56.1572,76
56.1944,62
56.2315,77
56.2687,73
56.3058,80
56.3430,61
56.3801,69
56.4173,63
56.4544,65
56.4916,68
56.5287,62
56.5659,42
56.6030,51
56.6402,69
56.6773,59
56.7145,59
56.7516,56
56.7888,52
56.8259,56
56.8631,66
56.9002,57
56.9374,70
56.9745,54
57.0117,67
57.0488,59
57.0860,51
57.1231,61
57.1603,63
57.1974,50
57.2346,63
57.2717,60
57.3089,61
57.3460,51
57.3832,51
57.4203,63
57.4575,58
57.4946,66
57.5318,52
57.5689,47
57.6061,60
57.6433,61
57.6804,53
57.7176,78
57.7547,68
57.7919,64
57.8290,54
57.8662,45
57.9033,56
57.9405,53
57.9776,58
58.0148,47
58.0519,53
58.0891,51
58.1262,60
58.1634,48
58.2005,51
58.2377,59
58.2748,61
58.3120,73
58.3491,53
58.3863,50
58.4234,63
58.4606,44
58.4977,56
58.5349,59
58.5720,67
58.6092,46
58.6463,45
58.6835,46
58.7206,48
58.7578,61
58.7949,64
58.8321,47
58.8692,63
58.9064,56
58.9435,67
58.9807,58
59.0178,50
59.0550,56
59.0921,43
59.1293,54
59.1664,64
59.2036,51
59.2408,49
59.2779,54
59.3151,53
59.3522,59
59.3894,58
59.4265,53
59.4637,46
59.5008,55
59.5380,52
59.5751,58
59.6123,49
59.6494,56
59.6866,63
59.7237,65
59.7609,47
59.7980,65
59.8352,48
59.8723,55
59.9095,68
59.9466,47
59.9838,68
60.0024,62