File: notebooks/data/xrd_data/ML_20220718_55_SJD_4_LaB6-2min.uxd
; (content of file Y:\Sam\Apurva-07-20-2022\puck4\ML_20220718_55_SJD_4_LaB6-2min.raw)
_FILEVERSION = 3
_SAMPLE = ML_20220718_55_SJD_4_LaB6-2min
_+SAMPLE =
_SITE = USA
_USER = Administrator
_GONIOMETER_CODE = 20
; Goniometer : D8 theta/2theta, stage : Unknown
_ATTACHMENTS_CODE = 0
_GONIOMETER_RADIUS = 200.5
_FIXED_DIVSLIT = 0.6
_FIXED_SAMPLESLIT = 0
_SOLLER_SLITS = 2
_FIXED_DETSLIT = 9.55
_MONOCHROMATOR = 0
; Incident beam monochromator : None
_SOLLER_SLITS_2 = N
_THIN_FILM = N
_BETA_FILTER = Y
_FIXED_ANTISLIT = 5.89
_ANALYZER_CODE = 0
; Received beam analyzer : None
_DATEMEASURED = "26-Jul-2022 12:39:36"
_WL_UNIT = A
_WL1 = 1.5406
_WL2 = 1.54439
_WL3 = 1.39222
_WLRATIO = 0.5
_ANODE = Cu
_V4_INF_CREATOR = XRDWizard
_V4_INF_CREATOR_VERSION = V2.9.0.22
_V4_INF_WIZARD_VERSION = V2.9.0.22
_V4_INF_WIZARD_ADDINS = V2.9.0.22
_V4_INF_WIZARD_DOCTYPE = XRD
_V4_INF_OSUSER = McQueenLab
_V4_INF_USER = Administrator
_V4_INF_SITE = USA
_V4_INF_SAMPLEID = ML_20220718_55_SJD_4_LaB6-2min

; Data for range 1
_DRIVE = COUPLED
_STEPTIME = 5.64
_STEPSIZE = 0.0185756
_STEPMODE = C
_START = 5
_THETA = 2.5
_2THETA = 5
_KHI = 0
_PHI = 0
_X = 0
_Y = 0
_Z = 0
_DETECTOR = 5
; Detector type : Unknown
_DETECTORSLIT = unkn
_AUX1 = 0
_AUX2 = 0
_AUX3 = 0
_TIMESTARTED = 15
_TEMP_RATE = -1
_TEMP_DELAY = -1
_KV = 40
_MA = 40
_RANGE_WL = 1.5406
_3DPLANE = 0
_V4_ADDITIONALDETECTOR = 257
_V4_PSD2THETA = 3.4187
_V4_PSDCHANNEL1 = 0
_V4_PSDAPERTURE = 12.68
_V4_PSDTYPE = 5
_V4_PSDFIXED = 0
_V4_COUNTERS_MASK = 4096
_V4_DRIVES_MASK = 0
_V4_ENCODERS_MASK = 0
_2THETACOUNTS = 1
; 2THETA  PSD
   5.0000        138
   5.0372        134
   5.0743        120
   5.1115        121
   5.1486        134
   5.1858        114
   5.2229        119
   5.2601        130
   5.2972        118
   5.3344        125
   5.3715        120
   5.4087        122
   5.4458        109
   5.4830        104
   5.5201        114
   5.5573        110
   5.5944        104
   5.6316        109
   5.6687        108
   5.7059        101
   5.7430        101
   5.7802         83
   5.8173        101
   5.8545         87
   5.8916         93
   5.9288        101
   5.9659         87
   6.0031         85
   6.0402         95
   6.0774        101
   6.1145         73
   6.1517         88
   6.1888         87
   6.2260        105
   6.2631        104
   6.3003         85
   6.3374         96
   6.3746         86
   6.4117         94
   6.4489         77
   6.4860         89
   6.5232         80
   6.5604         84
   6.5975         83
   6.6347         79
   6.6718         79
   6.7090         90
   6.7461         90
   6.7833         91
   6.8204         81
   6.8576         72
   6.8947         89
   6.9319         74
   6.9690         73
   7.0062         78
   7.0433         84
   7.0805         71
   7.1176         81
   7.1548         81
   7.1919         87
   7.2291         81
   7.2662         89
   7.3034         84
   7.3405         69
   7.3777         78
   7.4148         85
   7.4520         86
   7.4891         81
   7.5263         74
   7.5634         61
   7.6006         88
   7.6377         87
   7.6749         91
   7.7120        104
   7.7492         97
   7.7863         80
   7.8235         83
   7.8606         75
   7.8978         91
   7.9349         92
   7.9721         85
   8.0092         86
   8.0464         95
   8.0835         96
   8.1207        106
   8.1579         92
   8.1950         98
   8.2322         86
   8.2693         85
   8.3065         94
   8.3436        102
   8.3808         94
   8.4179         79
   8.4551         85
   8.4922         91
   8.5294         84
   8.5665         93
   8.6037         95
   8.6408        111
   8.6780         98
   8.7151        109
   8.7523        105
   8.7894        104
   8.8266        102
   8.8637        123
   8.9009        105
   8.9380         98
   8.9752        107
   9.0123        107
   9.0495         93
   9.0866        109
   9.1238        103
   9.1609        101
   9.1981        107
   9.2352        119
   9.2724        106
   9.3095         96
   9.3467        116
   9.3838        111
   9.4210        104
   9.4581        115
   9.4953        110
   9.5324        101
   9.5696        116
   9.6067        125
   9.6439         82
   9.6811        114
   9.7182        114
   9.7554        132
   9.7925        135
   9.8297        107
   9.8668        107
   9.9040        111
   9.9411        124
   9.9783        109
  10.0154        120
  10.0526        130
  10.0897        120
  10.1269        112
  10.1640        127
  10.2012         83
  10.2383        107
  10.2755        117
  10.3126        113
  10.3498        126
  10.3869        112
  10.4241        103
  10.4612        107
  10.4984        139
  10.5355        113
  10.5727        129
  10.6098        109
  10.6470        114
  10.6841        143
  10.7213        111
  10.7584        100
  10.7956        122
  10.8327        125
  10.8699        102
  10.9070        113
  10.9442        113
  10.9813        109
  11.0185        116
  11.0556        118
  11.0928        113
  11.1299        112
  11.1671        118
  11.2043        108
  11.2414        114
  11.2786        117
  11.3157        117
  11.3529        119
  11.3900        129
  11.4272        111
  11.4643        116
  11.5015        118
  11.5386        109
  11.5758        130
  11.6129         99
  11.6501        116
  11.6872        121
  11.7244        108
  11.7615        103
  11.7987        127
  11.8358        129
  11.8730         99
  11.9101        115
  11.9473        122
  11.9844        138
  12.0216        119
  12.0587        118
  12.0959        113
  12.1330        105
  12.1702         87
  12.2073        108
  12.2445         99
  12.2816        116
  12.3188        126
  12.3559        108
  12.3931        109
  12.4302         91
  12.4674        112
  12.5045        107
  12.5417         86
  12.5788        106
  12.6160        101
  12.6531        109
  12.6903        120
  12.7274        117
  12.7646        124
  12.8018        109
  12.8389        102
  12.8761        118
  12.9132         96
  12.9504         95
  12.9875        109
  13.0247         87
  13.0618         84
  13.0990         94
  13.1361         99
  13.1733        100
  13.2104        121
  13.2476        109
  13.2847         85
  13.3219        112
  13.3590         94
  13.3962        104
  13.4333        113
  13.4705         89
  13.5076         80
  13.5448        122
  13.5819         98
  13.6191        112
  13.6562        108
  13.6934        101
  13.7305         87
  13.7677        112
  13.8048         94
  13.8420         85
  13.8791         93
  13.9163         95
  13.9534         97
  13.9906         95
  14.0277         89
  14.0649        109
  14.1020         77
  14.1392        105
  14.1763        101
  14.2135        103
  14.2506         80
  14.2878         90
  14.3250         87
  14.3621         82
  14.3993         93
  14.4364        103
  14.4736         80
  14.5107         77
  14.5479         78
  14.5850         86
  14.6222         87
  14.6593         85
  14.6965         66
  14.7336         96
  14.7708         83
  14.8079         78
  14.8451         86
  14.8822         88
  14.9194         91
  14.9565        109
  14.9937         79
  15.0308         81
  15.0680         77
  15.1051         89
  15.1423         98
  15.1794         80
  15.2166        108
  15.2537         90
  15.2909         92
  15.3280         76
  15.3652         89
  15.4023         73
  15.4395         77
  15.4766         90
  15.5138         89
  15.5509         78
  15.5881         75
  15.6252        105
  15.6624         74
  15.6995         79
  15.7367         80
  15.7738         73
  15.8110         83
  15.8482         79
  15.8853         85
  15.9225         92
  15.9596         92
  15.9968        100
  16.0339         63
  16.0711         88
  16.1082         89
  16.1454         90
  16.1825         64
  16.2197         82
  16.2568         82
  16.2940         90
  16.3311         81
  16.3683         97
  16.4054         77
  16.4426         63
  16.4797         62
  16.5169         74
  16.5540         62
  16.5912         77
  16.6283         87
  16.6655         69
  16.7026         80
  16.7398         77
  16.7769         71
  16.8141         83
  16.8512         79
  16.8884         94
  16.9255         71
  16.9627         71
  16.9998         80
  17.0370         68
  17.0741         95
  17.1113         89
  17.1484         91
  17.1856         82
  17.2227         82
  17.2599         76
  17.2970         64
  17.3342         81
  17.3713         70
  17.4085         79
  17.4457         86
  17.4828         86
  17.5200         78
  17.5571         75
  17.5943         84
  17.6314         81
  17.6686         88
  17.7057         75
  17.7429         83
  17.7800         92
  17.8172         75
  17.8543         95
  17.8915         70
  17.9286         80
  17.9658         85
  18.0029         86
  18.0401         91
  18.0772         69
  18.1144         87
  18.1515         77
  18.1887         71
  18.2258         88
  18.2630         71
  18.3001         91
  18.3373         87
  18.3744         84
  18.4116         89
  18.4487         82
  18.4859         93
  18.5230         89
  18.5602         99
  18.5973         81
  18.6345         95
  18.6716         95
  18.7088         84
  18.7459         82
  18.7831         71
  18.8202         81
  18.8574         71
  18.8945         97
  18.9317         87
  18.9689         81
  19.0060         71
  19.0432         82
  19.0803         93
  19.1175         91
  19.1546         83
  19.1918         93
  19.2289         89
  19.2661         87
  19.3032         81
  19.3404         78
  19.3775         75
  19.4147         89
  19.4518         84
  19.4890         90
  19.5261         86
  19.5633         97
  19.6004         78
  19.6376         70
  19.6747        106
  19.7119         78
  19.7490         89
  19.7862         88
  19.8233        103
  19.8605         97
  19.8976        116
  19.9348         82
  19.9719         74
  20.0091         73
  20.0462         88
  20.0834         85
  20.1205         84
  20.1577         92
  20.1948        107
  20.2320         77
  20.2691         91
  20.3063         95
  20.3434         91
  20.3806         83
  20.4177         98
  20.4549         97
  20.4921         95
  20.5292         84
  20.5664         81
  20.6035         83
  20.6407         82
  20.6778         97
  20.7150         81
  20.7521        102
  20.7893         81
  20.8264         78
  20.8636        105
  20.9007         97
  20.9379        107
  20.9750         94
  21.0122         87
  21.0493        111
  21.0865         96
  21.1236        135
  21.1608        114
  21.1979        122
  21.2351        158
  21.2722        142
  21.3094        158
  21.3465        243
  21.3837        243
  21.4208        174
  21.4580        121
  21.4951        103
  21.5323        100
  21.5694        105
  21.6066        101
  21.6437        101
  21.6809        101
  21.7180        104
  21.7552         90
  21.7923         94
  21.8295        101
  21.8666         99
  21.9038         91
  21.9409        104
  21.9781         99
  22.0152        108
  22.0524         99
  22.0896         92
  22.1267        103
  22.1639         97
  22.2010        125
  22.2382        102
  22.2753         92
  22.3125         87
  22.3496        105
  22.3868         91
  22.4239         94
  22.4611         76
  22.4982         78
  22.5354        106
  22.5725         93
  22.6097         91
  22.6468         89
  22.6840        114
  22.7211        102
  22.7583         88
  22.7954         91
  22.8326        112
  22.8697         94
  22.9069        103
  22.9440         92
  22.9812         92
  23.0183        108
  23.0555         94
  23.0926         97
  23.1298        104
  23.1669        109
  23.2041         94
  23.2412        107
  23.2784        108
  23.3155        114
  23.3527         95
  23.3898        107
  23.4270        105
  23.4641         99
  23.5013         92
  23.5384         97
  23.5756        113
  23.6128         90
  23.6499         93
  23.6871         89
  23.7242        101
  23.7614         92
  23.7985         88
  23.8357        115
  23.8728         84
  23.9100        105
  23.9471         84
  23.9843         96
  24.0214        103
  24.0586        104
  24.0957         96
  24.1329         79
  24.1700        125
  24.2072        104
  24.2443         93
  24.2815        106
  24.3186        109
  24.3558        124
  24.3929        108
  24.4301        113
  24.4672         95
  24.5044         99
  24.5415        109
  24.5787         90
  24.6158         97
  24.6530         99
  24.6901        107
  24.7273         99
  24.7644        100
  24.8016         87
  24.8387         92
  24.8759         96
  24.9130        104
  24.9502        101
  24.9873        109
  25.0245         93
  25.0616         92
  25.0988         95
  25.1360        100
  25.1731        105
  25.2103         91
  25.2474        102
  25.2846        107
  25.3217        107
  25.3589        108
  25.3960         89
  25.4332         90
  25.4703        110
  25.5075         94
  25.5446        106
  25.5818         95
  25.6189         99
  25.6561         95
  25.6932         81
  25.7304         91
  25.7675        100
  25.8047        107
  25.8418        105
  25.8790        103
  25.9161         95
  25.9533        105
  25.9904        104
  26.0276         79
  26.0647         91
  26.1019         97
  26.1390         93
  26.1762         78
  26.2133         70
  26.2505        110
  26.2876         94
  26.3248         88
  26.3619         94
  26.3991         98
  26.4362         97
  26.4734        102
  26.5105         99
  26.5477         89
  26.5848         95
  26.6220        105
  26.6591         61
  26.6963        108
  26.7335         92
  26.7706         98
  26.8078         89
  26.8449        100
  26.8821         79
  26.9192        100
  26.9564         92
  26.9935         95
  27.0307         90
  27.0678         85
  27.1050         94
  27.1421        124
  27.1793        129
  27.2164        121
  27.2536        119
  27.2907        102
  27.3279        101
  27.3650        103
  27.4022         88
  27.4393         87
  27.4765        102
  27.5136         78
  27.5508         89
  27.5879         93
  27.6251         87
  27.6622         87
  27.6994        104
  27.7365         83
  27.7737         94
  27.8108         98
  27.8480         79
  27.8851         88
  27.9223         91
  27.9594         85
  27.9966         74
  28.0337         98
  28.0709         80
  28.1080         74
  28.1452         78
  28.1823         88
  28.2195         82
  28.2567        107
  28.2938         61
  28.3310         79
  28.3681         73
  28.4053         78
  28.4424         88
  28.4796         86
  28.5167         82
  28.5539         63
  28.5910         72
  28.6282         76
  28.6653         81
  28.7025         71
  28.7396         63
  28.7768         86
  28.8139         93
  28.8511         77
  28.8882         67
  28.9254         78
  28.9625         74
  28.9997         87
  29.0368         73
  29.0740         93
  29.1111         74
  29.1483         86
  29.1854         78
  29.2226         91
  29.2597         86
  29.2969         75
  29.3340         79
  29.3712         80
  29.4083         93
  29.4455         77
  29.4826         89
  29.5198         79
  29.5569         64
  29.5941         86
  29.6312         81
  29.6684         91
  29.7055         90
  29.7427         70
  29.7799         87
  29.8170         73
  29.8542         63
  29.8913         68
  29.9285         66
  29.9656         77
  30.0028         86
  30.0399         67
  30.0771         92
  30.1142         74
  30.1514         82
  30.1885         84
  30.2257         85
  30.2628         80
  30.3000         86
  30.3371        107
  30.3743        160
  30.4114        141
  30.4486        124
  30.4857         88
  30.5229         71
  30.5600         80
  30.5972         76
  30.6343         90
  30.6715         67
  30.7086         70
  30.7458         64
  30.7829         71
  30.8201         71
  30.8572         80
  30.8944         62
  30.9315         76
  30.9687         70
  31.0058         65
  31.0430         55
  31.0801         65
  31.1173         78
  31.1544         67
  31.1916         59
  31.2287         65
  31.2659         62
  31.3030         57
  31.3402         72
  31.3774         63
  31.4145         74
  31.4517         73
  31.4888         67
  31.5260         90
  31.5631         71
  31.6003         54
  31.6374         61
  31.6746         69
  31.7117         76
  31.7489         59
  31.7860         66
  31.8232         59
  31.8603         60
  31.8975         76
  31.9346         52
  31.9718         81
  32.0089         73
  32.0461         70
  32.0832         80
  32.1204         73
  32.1575         74
  32.1947         70
  32.2318         70
  32.2690         74
  32.3061         78
  32.3433         73
  32.3804         68
  32.4176         71
  32.4547         77
  32.4919         61
  32.5290         81
  32.5662         83
  32.6033         61
  32.6405         54
  32.6776         57
  32.7148         73
  32.7519         62
  32.7891         60
  32.8262         59
  32.8634         48
  32.9006         60
  32.9377         61
  32.9749         42
  33.0120         69
  33.0492         55
  33.0863         58
  33.1235         58
  33.1606         83
  33.1978         57
  33.2349         59
  33.2721         61
  33.3092         56
  33.3464         64
  33.3835         60
  33.4207         53
  33.4578         70
  33.4950         59
  33.5321         64
  33.5693         63
  33.6064         48
  33.6436         71
  33.6807         57
  33.7179         49
  33.7550         66
  33.7922         56
  33.8293         72
  33.8665         54
  33.9036         53
  33.9408         57
  33.9779         53
  34.0151         50
  34.0522         56
  34.0894         54
  34.1265         64
  34.1637         54
  34.2008         56
  34.2380         67
  34.2751         56
  34.3123         55
  34.3494         65
  34.3866         52
  34.4238         45
  34.4609         48
  34.4981         57
  34.5352         51
  34.5724         57
  34.6095         61
  34.6467         49
  34.6838         65
  34.7210         81
  34.7581         60
  34.7953         78
  34.8324         60
  34.8696         62
  34.9067         60
  34.9439         51
  34.9810         51
  35.0182         52
  35.0553         50
  35.0925         57
  35.1296         49
  35.1668         45
  35.2039         52
  35.2411         34
  35.2782         52
  35.3154         53
  35.3525         41
  35.3897         44
  35.4268         55
  35.4640         53
  35.5011         49
  35.5383         41
  35.5754         89
  35.6126         44
  35.6497         50
  35.6869         39
  35.7240         56
  35.7612         52
  35.7983         40
  35.8355         57
  35.8726         60
  35.9098         42
  35.9469         55
  35.9841         52
  36.0213         42
  36.0584         45
  36.0956         54
  36.1327         48
  36.1699         48
  36.2070         43
  36.2442         60
  36.2813         50
  36.3185         54
  36.3556         42
  36.3928         46
  36.4299         51
  36.4671         51
  36.5042         48
  36.5414         43
  36.5785         41
  36.6157         52
  36.6528         47
  36.6900         40
  36.7271         41
  36.7643         41
  36.8014         34
  36.8386         48
  36.8757         54
  36.9129         40
  36.9500         51
  36.9872         42
  37.0243         53
  37.0615         57
  37.0986         40
  37.1358         45
  37.1729         62
  37.2101         41
  37.2472         51
  37.2844         53
  37.3215         46
  37.3587         47
  37.3958         51
  37.4330         70
  37.4701         55
  37.5073         53
  37.5445         54
  37.5816         51
  37.6188         46
  37.6559         47
  37.6931         37
  37.7302         38
  37.7674         44
  37.8045         40
  37.8417         39
  37.8788         34
  37.9160         60
  37.9531         43
  37.9903         41
  38.0274         52
  38.0646         44
  38.1017         42
  38.1389         41
  38.1760         45
  38.2132         40
  38.2503         34
  38.2875         29
  38.3246         51
  38.3618         48
  38.3989         35
  38.4361         46
  38.4732         41
  38.5104         41
  38.5475         37
  38.5847         32
  38.6218         49
  38.6590         38
  38.6961         39
  38.7333         38
  38.7704         44
  38.8076         38
  38.8447         31
  38.8819         43
  38.9190         39
  38.9562         33
  38.9933         29
  39.0305         49
  39.0677         43
  39.1048         43
  39.1420         42
  39.1791         36
  39.2163         46
  39.2534         48
  39.2906         38
  39.3277         44
  39.3649         35
  39.4020         45
  39.4392         39
  39.4763         52
  39.5135         43
  39.5506         37
  39.5878         34
  39.6249         35
  39.6621         39
  39.6992         34
  39.7364         34
  39.7735         36
  39.8107         35
  39.8478         43
  39.8850         46
  39.9221         35
  39.9593         28
  39.9964         43
  40.0336         26
  40.0707         43
  40.1079         31
  40.1450         49
  40.1822         34
  40.2193         41
  40.2565         31
  40.2936         37
  40.3308         27
  40.3679         33
  40.4051         27
  40.4422         42
  40.4794         39
  40.5165         39
  40.5537         34
  40.5908         35
  40.6280         34
  40.6652         35
  40.7023         37
  40.7395         38
  40.7766         45
  40.8138         39
  40.8509         38
  40.8881         40
  40.9252         32
  40.9624         43
  40.9995         35
  41.0367         36
  41.0738         43
  41.1110         37
  41.1481         47
  41.1853         35
  41.2224         51
  41.2596         34
  41.2967         35
  41.3339         32
  41.3710         34
  41.4082         39
  41.4453         47
  41.4825         37
  41.5196         38
  41.5568         46
  41.5939         43
  41.6311         48
  41.6682         27
  41.7054         35
  41.7425         45
  41.7797         38
  41.8168         39
  41.8540         41
  41.8911         30
  41.9283         32
  41.9654         42
  42.0026         34
  42.0397         34
  42.0769         37
  42.1140         41
  42.1512         45
  42.1884         57
  42.2255         30
  42.2627         34
  42.2998         43
  42.3370         31
  42.3741         39
  42.4113         41
  42.4484         45
  42.4856         37
  42.5227         23
  42.5599         42
  42.5970         35
  42.6342         36
  42.6713         46
  42.7085         45
  42.7456         27
  42.7828         34
  42.8199         39
  42.8571         38
  42.8942         37
  42.9314         35
  42.9685         36
  43.0057         40
  43.0428         29
  43.0800         38
  43.1171         35
  43.1543         47
  43.1914         42
  43.2286         36
  43.2657         45
  43.3029         39
  43.3400         41
  43.3772         49
  43.4143         44
  43.4515         35
  43.4886         41
  43.5258         65
  43.5629         41
  43.6001         51
  43.6372         52
  43.6744         39
  43.7116         39
  43.7487         28
  43.7859         47
  43.8230         33
  43.8602         31
  43.8973         26
  43.9345         37
  43.9716         41
  44.0088         39
  44.0459         33
  44.0831         38
  44.1202         36
  44.1574         31
  44.1945         36
  44.2317         45
  44.2688         40
  44.3060         31
  44.3431         28
  44.3803         27
  44.4174         35
  44.4546         35
  44.4917         48
  44.5289         39
  44.5660         46
  44.6032         36
  44.6403         49
  44.6775         40
  44.7146         38
  44.7518         34
  44.7889         31
  44.8261         39
  44.8632         42
  44.9004         40
  44.9375         30
  44.9747         35
  45.0118         35
  45.0490         49
  45.0861         34
  45.1233         29
  45.1604         31
  45.1976         35
  45.2347         37
  45.2719         27
  45.3091         26
  45.3462         20
  45.3834         27
  45.4205         33
  45.4577         41
  45.4948         31
  45.5320         41
  45.5691         36
  45.6063         29
  45.6434         33
  45.6806         38
  45.7177         26
  45.7549         39
  45.7920         38
  45.8292         36
  45.8663         34
  45.9035         44
  45.9406         44
  45.9778         32
  46.0149         25
  46.0521         37
  46.0892         32
  46.1264         41
  46.1635         23
  46.2007         32
  46.2378         28
  46.2750         35
  46.3121         33
  46.3493         39
  46.3864         22
  46.4236         33
  46.4607         30
  46.4979         27
  46.5350         39
  46.5722         37
  46.6093         34
  46.6465         45
  46.6836         22
  46.7208         24
  46.7579         28
  46.7951         26
  46.8323         39
  46.8694         36
  46.9066         29
  46.9437         39
  46.9809         36
  47.0180         24
  47.0552         29
  47.0923         27
  47.1295         27
  47.1666         37
  47.2038         32
  47.2409         32
  47.2781         26
  47.3152         41
  47.3524         29
  47.3895         25
  47.4267         32
  47.4638         33
  47.5010         35
  47.5381         32
  47.5753         25
  47.6124         38
  47.6496         36
  47.6867         27
  47.7239         27
  47.7610         36
  47.7982         39
  47.8353         34
  47.8725         28
  47.9096         26
  47.9468         31
  47.9839         31
  48.0211         33
  48.0582         33
  48.0954         36
  48.1325         43
  48.1697         33
  48.2068         38
  48.2440         33
  48.2811         29
  48.3183         24
  48.3555         30
  48.3926         40
  48.4298         32
  48.4669         40
  48.5041         31
  48.5412         34
  48.5784         29
  48.6155         28
  48.6527         36
  48.6898         30
  48.7270         33
  48.7641         38
  48.8013         34
  48.8384         30
  48.8756         34
  48.9127         44
  48.9499         55
  48.9870         38
  49.0242         42
  49.0613         36
  49.0985         46
  49.1356         29
  49.1728         27
  49.2099         33
  49.2471         35
  49.2842         28
  49.3214         32
  49.3585         34
  49.3957         29
  49.4328         30
  49.4700         22
  49.5071         18
  49.5443         29
  49.5814         38
  49.6186         22
  49.6557         38
  49.6929         31
  49.7300         26
  49.7672         26
  49.8043         31
  49.8415         33
  49.8786         22
  49.9158         24
  49.9530         31
  49.9901         33
  50.0273         29
  50.0644         24
  50.1016         38
  50.1387         35
  50.1759         22
  50.2130         28
  50.2502         23
  50.2873         26
  50.3245         28
  50.3616         40
  50.3988         29
  50.4359         21
  50.4731         26
  50.5102         25
  50.5474         38
  50.5845         37
  50.6217         20
  50.6588         28
  50.6960         28
  50.7331         33
  50.7703         22
  50.8074         24
  50.8446         28
  50.8817         29
  50.9189         28
  50.9560         26
  50.9932         19
  51.0303         29
  51.0675         28
  51.1046         26
  51.1418         24
  51.1789         30
  51.2161         28
  51.2532         32
  51.2904         34
  51.3275         33
  51.3647         23
  51.4018         39
  51.4390         30
  51.4762         26
  51.5133         40
  51.5505         38
  51.5876         30
  51.6248         20
  51.6619         18
  51.6991         28
  51.7362         30
  51.7734         28
  51.8105         31
  51.8477         32
  51.8848         29
  51.9220         26
  51.9591         26
  51.9963         37
  52.0334         29
  52.0706         30
  52.1077         32
  52.1449         20
  52.1820         32
  52.2192         34
  52.2563         24
  52.2935         31
  52.3306         27
  52.3678         34
  52.4049         29
  52.4421         25
  52.4792         30
  52.5164         26
  52.5535         22
  52.5907         37
  52.6278         27
  52.6650         36
  52.7021         30
  52.7393         34
  52.7764         19
  52.8136         18
  52.8507         31
  52.8879         20
  52.9250         34
  52.9622         20
  52.9994         42
  53.0365         31
  53.0737         31
  53.1108         26
  53.1480         35
  53.1851         26
  53.2223         28
  53.2594         27
  53.2966         19
  53.3337         38
  53.3709         25
  53.4080         29
  53.4452         22
  53.4823         30
  53.5195         26
  53.5566         17
  53.5938         33
  53.6309         26
  53.6681         23
  53.7052         29
  53.7424         25
  53.7795         28
  53.8167         25
  53.8538         23
  53.8910         30
  53.9281         28
  53.9653         30
  54.0024         52
  54.0396         22
  54.0767         31
  54.1139         42
  54.1510         42
  54.1882         27
  54.2253         40
  54.2625         38
  54.2996         20
  54.3368         26
  54.3739         31
  54.4111         24
  54.4482         23
  54.4854         23
  54.5225         29
  54.5597         40
  54.5969         28
  54.6340         27
  54.6712         21
  54.7083         22
  54.7455         23
  54.7826         25
  54.8198         18
  54.8569         28
  54.8941         22
  54.9312         25
  54.9684         27
  55.0055         24
  55.0427         32
  55.0798         23
  55.1170         33
  55.1541         23
  55.1913         27
  55.2284         25
  55.2656         27
  55.3027         29
  55.3399         24
  55.3770         28
  55.4142         37
  55.4513         23
  55.4885         26
  55.5256         24
  55.5628         21
  55.5999         33
  55.6371         21
  55.6742         32
  55.7114         26
  55.7485         28
  55.7857         18
  55.8228         25
  55.8600         32
  55.8971         25
  55.9343         22
  55.9714         36
  56.0086         21
  56.0457         33
  56.0829         29
  56.1201         30
  56.1572         28
  56.1944         26
  56.2315         22
  56.2687         42
  56.3058         36
  56.3430         38
  56.3801         20
  56.4173         33
  56.4544         34
  56.4916         26
  56.5287         25
  56.5659         32
  56.6030         21
  56.6402         27
  56.6773         27
  56.7145         25
  56.7516         21
  56.7888         30
  56.8259         30
  56.8631         23
  56.9002         27
  56.9374         24
  56.9745         34
  57.0117         22
  57.0488         26
  57.0860         26
  57.1231         20
  57.1603         26
  57.1974         33
  57.2346         31
  57.2717         34
  57.3089         34
  57.3460         28
  57.3832         19
  57.4203         30
  57.4575         25
  57.4946         19
  57.5318         21
  57.5689         26
  57.6061         35
  57.6433         28
  57.6804         24
  57.7176         21
  57.7547         24
  57.7919         29
  57.8290         25
  57.8662         37
  57.9033         34
  57.9405         25
  57.9776         22
  58.0148         28
  58.0519         26
  58.0891         29
  58.1262         28
  58.1634         21
  58.2005         25
  58.2377         41
  58.2748         24
  58.3120         23
  58.3491         26
  58.3863         25
  58.4234         24
  58.4606         29
  58.4977         25
  58.5349         22
  58.5720         31
  58.6092         26
  58.6463         32
  58.6835         23
  58.7206         23
  58.7578         30
  58.7949         27
  58.8321         27
  58.8692         23
  58.9064         22
  58.9435         28
  58.9807         30
  59.0178         28
  59.0550         21
  59.0921         19
  59.1293         17
  59.1664         18
  59.2036         22
  59.2408         31
  59.2779         35
  59.3151         30
  59.3522         27
  59.3894         39
  59.4265         25
  59.4637         30
  59.5008         27
  59.5380         24
  59.5751         30
  59.6123         25
  59.6494         20
  59.6866         30
  59.7237         33
  59.7609         26
  59.7980         25
  59.8352         27
  59.8723         22
  59.9095         32
  59.9466         26
  59.9838         33
  60.0024         33