File: notebooks/data/xrd_data/ML_20220718_12_SJD_4_LaB6-2min.csv
;,2THETA,
5.0000,126
5.0372,125
5.0743,141
5.1115,123
5.1486,140
5.1858,125
5.2229,119
5.2601,134
5.2972,111
5.3344,102
5.3715,147
5.4087,123
5.4458,110
5.4830,127
5.5201,137
5.5573,111
5.5944,115
5.6316,107
5.6687,111
5.7059,110
5.7430,124
5.7802,83
5.8173,101
5.8545,107
5.8916,89
5.9288,97
5.9659,106
6.0031,113
6.0402,94
6.0774,102
6.1145,100
6.1517,96
6.1888,76
6.2260,89
6.2631,100
6.3003,87
6.3374,76
6.3746,110
6.4117,103
6.4489,108
6.4860,98
6.5232,100
6.5604,92
6.5975,92
6.6347,98
6.6718,108
6.7090,85
6.7461,95
6.7833,82
6.8204,91
6.8576,83
6.8947,59
6.9319,70
6.9690,73
7.0062,90
7.0433,87
7.0805,72
7.1176,86
7.1548,82
7.1919,84
7.2291,74
7.2662,83
7.3034,67
7.3405,77
7.3777,87
7.4148,91
7.4520,74
7.4891,79
7.5263,86
7.5634,80
7.6006,91
7.6377,87
7.6749,73
7.7120,68
7.7492,87
7.7863,89
7.8235,94
7.8606,87
7.8978,86
7.9349,90
7.9721,91
8.0092,87
8.0464,80
8.0835,73
8.1207,95
8.1579,82
8.1950,82
8.2322,95
8.2693,105
8.3065,85
8.3436,103
8.3808,93
8.4179,91
8.4551,102
8.4922,92
8.5294,82
8.5665,106
8.6037,94
8.6408,101
8.6780,84
8.7151,93
8.7523,101
8.7894,105
8.8266,92
8.8637,108
8.9009,98
8.9380,103
8.9752,100
9.0123,115
9.0495,135
9.0866,99
9.1238,100
9.1609,110
9.1981,91
9.2352,103
9.2724,105
9.3095,99
9.3467,110
9.3838,116
9.4210,103
9.4581,117
9.4953,101
9.5324,118
9.5696,103
9.6067,127
9.6439,133
9.6811,107
9.7182,103
9.7554,116
9.7925,122
9.8297,134
9.8668,130
9.9040,127
9.9411,116
9.9783,124
10.0154,117
10.0526,122
10.0897,115
10.1269,105
10.1640,121
10.2012,115
10.2383,125
10.2755,114
10.3126,120
10.3498,114
10.3869,138
10.4241,125
10.4612,111
10.4984,136
10.5355,131
10.5727,130
10.6098,115
10.6470,116
10.6841,128
10.7213,117
10.7584,121
10.7956,114
10.8327,92
10.8699,120
10.9070,122
10.9442,108
10.9813,120
11.0185,128
11.0556,124
11.0928,134
11.1299,92
11.1671,102
11.2043,137
11.2414,102
11.2786,112
11.3157,119
11.3529,118
11.3900,108
11.4272,144
11.4643,112
11.5015,99
11.5386,110
11.5758,133
11.6129,110
11.6501,111
11.6872,95
11.7244,114
11.7615,111
11.7987,111
11.8358,127
11.8730,122
11.9101,115
11.9473,112
11.9844,136
12.0216,109
12.0587,116
12.0959,107
12.1330,104
12.1702,110
12.2073,104
12.2445,116
12.2816,112
12.3188,114
12.3559,110
12.3931,84
12.4302,130
12.4674,95
12.5045,111
12.5417,132
12.5788,134
12.6160,109
12.6531,99
12.6903,104
12.7274,123
12.7646,108
12.8018,98
12.8389,94
12.8761,95
12.9132,108
12.9504,99
12.9875,113
13.0247,104
13.0618,95
13.0990,113
13.1361,100
13.1733,96
13.2104,107
13.2476,119
13.2847,101
13.3219,100
13.3590,99
13.3962,89
13.4333,93
13.4705,101
13.5076,109
13.5448,97
13.5819,115
13.6191,102
13.6562,107
13.6934,99
13.7305,89
13.7677,99
13.8048,99
13.8420,87
13.8791,100
13.9163,97
13.9534,74
13.9906,96
14.0277,102
14.0649,90
14.1020,79
14.1392,91
14.1763,86
14.2135,82
14.2506,104
14.2878,87
14.3250,90
14.3621,86
14.3993,71
14.4364,90
14.4736,99
14.5107,84
14.5479,103
14.5850,73
14.6222,89
14.6593,74
14.6965,77
14.7336,80
14.7708,79
14.8079,90
14.8451,98
14.8822,96
14.9194,95
14.9565,71
14.9937,76
15.0308,80
15.0680,82
15.1051,66
15.1423,82
15.1794,74
15.2166,72
15.2537,86
15.2909,76
15.3280,80
15.3652,72
15.4023,81
15.4395,84
15.4766,82
15.5138,79
15.5509,83
15.5881,79
15.6252,79
15.6624,84
15.6995,89
15.7367,83
15.7738,85
15.8110,84
15.8482,95
15.8853,75
15.9225,91
15.9596,87
15.9968,78
16.0339,76
16.0711,79
16.1082,88
16.1454,78
16.1825,75
16.2197,74
16.2568,75
16.2940,91
16.3311,76
16.3683,85
16.4054,92
16.4426,54
16.4797,74
16.5169,81
16.5540,100
16.5912,86
16.6283,79
16.6655,78
16.7026,93
16.7398,73
16.7769,74
16.8141,105
16.8512,92
16.8884,89
16.9255,96
16.9627,82
16.9998,81
17.0370,81
17.0741,81
17.1113,83
17.1484,75
17.1856,85
17.2227,88
17.2599,99
17.2970,89
17.3342,88
17.3713,78
17.4085,71
17.4457,81
17.4828,80
17.5200,75
17.5571,69
17.5943,80
17.6314,81
17.6686,85
17.7057,91
17.7429,78
17.7800,70
17.8172,86
17.8543,83
17.8915,67
17.9286,80
17.9658,91
18.0029,71
18.0401,79
18.0772,79
18.1144,76
18.1515,87
18.1887,74
18.2258,79
18.2630,82
18.3001,76
18.3373,73
18.3744,89
18.4116,68
18.4487,86
18.4859,72
18.5230,77
18.5602,79
18.5973,77
18.6345,96
18.6716,90
18.7088,80
18.7459,91
18.7831,94
18.8202,78
18.8574,73
18.8945,78
18.9317,81
18.9689,72
19.0060,85
19.0432,97
19.0803,84
19.1175,91
19.1546,75
19.1918,107
19.2289,102
19.2661,79
19.3032,77
19.3404,95
19.3775,83
19.4147,100
19.4518,96
19.4890,80
19.5261,90
19.5633,81
19.6004,76
19.6376,83
19.6747,95
19.7119,74
19.7490,77
19.7862,87
19.8233,77
19.8605,90
19.8976,107
19.9348,88
19.9719,81
20.0091,110
20.0462,85
20.0834,98
20.1205,82
20.1577,90
20.1948,76
20.2320,77
20.2691,91
20.3063,75
20.3434,100
20.3806,105
20.4177,89
20.4549,83
20.4921,96
20.5292,88
20.5664,115
20.6035,101
20.6407,98
20.6778,92
20.7150,87
20.7521,96
20.7893,91
20.8264,98
20.8636,95
20.9007,96
20.9379,108
20.9750,94
21.0122,100
21.0493,97
21.0865,105
21.1236,109
21.1608,99
21.1979,144
21.2351,158
21.2722,136
21.3094,145
21.3465,242
21.3837,229
21.4208,178
21.4580,97
21.4951,104
21.5323,85
21.5694,113
21.6066,99
21.6437,86
21.6809,102
21.7180,73
21.7552,95
21.7923,93
21.8295,100
21.8666,94
21.9038,97
21.9409,104
21.9781,81
22.0152,107
22.0524,87
22.0896,96
22.1267,73
22.1639,104
22.2010,98
22.2382,99
22.2753,91
22.3125,88
22.3496,102
22.3868,109
22.4239,103
22.4611,122
22.4982,92
22.5354,114
22.5725,116
22.6097,116
22.6468,102
22.6840,88
22.7211,106
22.7583,105
22.7954,103
22.8326,103
22.8697,111
22.9069,103
22.9440,99
22.9812,106
23.0183,106
23.0555,86
23.0926,105
23.1298,90
23.1669,102
23.2041,114
23.2412,103
23.2784,103
23.3155,112
23.3527,96
23.3898,110
23.4270,119
23.4641,91
23.5013,103
23.5384,125
23.5756,89
23.6128,115
23.6499,109
23.6871,106
23.7242,93
23.7614,85
23.7985,113
23.8357,104
23.8728,118
23.9100,103
23.9471,87
23.9843,101
24.0214,101
24.0586,86
24.0957,124
24.1329,99
24.1700,104
24.2072,93
24.2443,101
24.2815,123
24.3186,96
24.3558,107
24.3929,96
24.4301,100
24.4672,103
24.5044,108
24.5415,100
24.5787,106
24.6158,128
24.6530,91
24.6901,119
24.7273,91
24.7644,90
24.8016,109
24.8387,93
24.8759,100
24.9130,111
24.9502,114
24.9873,108
25.0245,97
25.0616,87
25.0988,110
25.1360,87
25.1731,104
25.2103,87
25.2474,82
25.2846,98
25.3217,108
25.3589,89
25.3960,102
25.4332,99
25.4703,85
25.5075,104
25.5446,79
25.5818,98
25.6189,82
25.6561,103
25.6932,93
25.7304,99
25.7675,89
25.8047,96
25.8418,90
25.8790,104
25.9161,96
25.9533,115
25.9904,96
26.0276,84
26.0647,90
26.1019,101
26.1390,91
26.1762,89
26.2133,93
26.2505,73
26.2876,97
26.3248,94
26.3619,92
26.3991,97
26.4362,108
26.4734,80
26.5105,90
26.5477,95
26.5848,98
26.6220,93
26.6591,125
26.6963,96
26.7335,86
26.7706,101
26.8078,94
26.8449,104
26.8821,92
26.9192,89
26.9564,92
26.9935,82
27.0307,96
27.0678,98
27.1050,105
27.1421,115
27.1793,105
27.2164,113
27.2536,116
27.2907,115
27.3279,77
27.3650,114
27.4022,94
27.4393,81
27.4765,78
27.5136,85
27.5508,89
27.5879,93
27.6251,87
27.6622,86
27.6994,90
27.7365,97
27.7737,71
27.8108,96
27.8480,77
27.8851,93
27.9223,78
27.9594,79
27.9966,79
28.0337,78
28.0709,76
28.1080,80
28.1452,84
28.1823,88
28.2195,92
28.2567,96
28.2938,116
28.3310,80
28.3681,75
28.4053,92
28.4424,86
28.4796,84
28.5167,86
28.5539,79
28.5910,90
28.6282,96
28.6653,97
28.7025,94
28.7396,81
28.7768,73
28.8139,88
28.8511,68
28.8882,87
28.9254,69
28.9625,80
28.9997,112
29.0368,77
29.0740,90
29.1111,81
29.1483,88
29.1854,75
29.2226,94
29.2597,91
29.2969,80
29.3340,74
29.3712,87
29.4083,77
29.4455,86
29.4826,90
29.5198,73
29.5569,82
29.5941,90
29.6312,71
29.6684,78
29.7055,69
29.7427,81
29.7799,72
29.8170,69
29.8542,73
29.8913,72
29.9285,96
29.9656,74
30.0028,70
30.0399,82
30.0771,75
30.1142,84
30.1514,75
30.1885,81
30.2257,75
30.2628,71
30.3000,77
30.3371,100
30.3743,171
30.4114,129
30.4486,123
30.4857,114
30.5229,69
30.5600,83
30.5972,77
30.6343,72
30.6715,82
30.7086,83
30.7458,80
30.7829,72
30.8201,58
30.8572,87
30.8944,81
30.9315,94
30.9687,76
31.0058,74
31.0430,60
31.0801,50
31.1173,81
31.1544,66
31.1916,79
31.2287,72
31.2659,65
31.3030,66
31.3402,68
31.3774,65
31.4145,78
31.4517,56
31.4888,57
31.5260,74
31.5631,63
31.6003,71
31.6374,71
31.6746,61
31.7117,71
31.7489,84
31.7860,53
31.8232,64
31.8603,73
31.8975,73
31.9346,68
31.9718,73
32.0089,70
32.0461,60
32.0832,54
32.1204,54
32.1575,46
32.1947,71
32.2318,70
32.2690,67
32.3061,59
32.3433,66
32.3804,69
32.4176,55
32.4547,80
32.4919,70
32.5290,76
32.5662,73
32.6033,79
32.6405,57
32.6776,72
32.7148,79
32.7519,65
32.7891,71
32.8262,61
32.8634,72
32.9006,82
32.9377,66
32.9749,69
33.0120,68
33.0492,62
33.0863,56
33.1235,66
33.1606,70
33.1978,68
33.2349,60
33.2721,52
33.3092,66
33.3464,71
33.3835,50
33.4207,66
33.4578,60
33.4950,54
33.5321,67
33.5693,55
33.6064,59
33.6436,65
33.6807,53
33.7179,54
33.7550,53
33.7922,55
33.8293,57
33.8665,67
33.9036,53
33.9408,62
33.9779,60
34.0151,65
34.0522,63
34.0894,53
34.1265,55
34.1637,58
34.2008,64
34.2380,56
34.2751,43
34.3123,59
34.3494,54
34.3866,57
34.4238,48
34.4609,49
34.4981,58
34.5352,51
34.5724,65
34.6095,47
34.6467,62
34.6838,67
34.7210,86
34.7581,71
34.7953,72
34.8324,63
34.8696,80
34.9067,76
34.9439,53
34.9810,60
35.0182,46
35.0553,63
35.0925,59
35.1296,59
35.1668,48
35.2039,59
35.2411,38
35.2782,55
35.3154,44
35.3525,52
35.3897,53
35.4268,57
35.4640,46
35.5011,57
35.5383,32
35.5754,49
35.6126,47
35.6497,56
35.6869,38
35.7240,44
35.7612,56
35.7983,45
35.8355,44
35.8726,48
35.9098,52
35.9469,46
35.9841,42
36.0213,49
36.0584,56
36.0956,41
36.1327,45
36.1699,46
36.2070,61
36.2442,44
36.2813,47
36.3185,44
36.3556,46
36.3928,29
36.4299,43
36.4671,57
36.5042,47
36.5414,49
36.5785,42
36.6157,47
36.6528,43
36.6900,45
36.7271,44
36.7643,52
36.8014,60
36.8386,53
36.8757,50
36.9129,45
36.9500,48
36.9872,38
37.0243,54
37.0615,37
37.0986,36
37.1358,46
37.1729,35
37.2101,52
37.2472,45
37.2844,44
37.3215,48
37.3587,52
37.3958,63
37.4330,80
37.4701,56
37.5073,62
37.5445,68
37.5816,51
37.6188,37
37.6559,45
37.6931,43
37.7302,45
37.7674,51
37.8045,40
37.8417,45
37.8788,34
37.9160,45
37.9531,52
37.9903,48
38.0274,46
38.0646,48
38.1017,52
38.1389,53
38.1760,38
38.2132,38
38.2503,44
38.2875,53
38.3246,30
38.3618,43
38.3989,35
38.4361,31
38.4732,45
38.5104,36
38.5475,41
38.5847,39
38.6218,47
38.6590,44
38.6961,41
38.7333,37
38.7704,44
38.8076,44
38.8447,28
38.8819,48
38.9190,45
38.9562,46
38.9933,38
39.0305,47
39.0677,60
39.1048,54
39.1420,40
39.1791,29
39.2163,37
39.2534,44
39.2906,49
39.3277,39
39.3649,46
39.4020,41
39.4392,40
39.4763,26
39.5135,50
39.5506,36
39.5878,33
39.6249,30
39.6621,41
39.6992,33
39.7364,42
39.7735,40
39.8107,39
39.8478,37
39.8850,42
39.9221,42
39.9593,43
39.9964,41
40.0336,36
40.0707,43
40.1079,34
40.1450,43
40.1822,32
40.2193,35
40.2565,25
40.2936,35
40.3308,37
40.3679,30
40.4051,54
40.4422,39
40.4794,41
40.5165,34
40.5537,30
40.5908,49
40.6280,42
40.6652,41
40.7023,38
40.7395,46
40.7766,41
40.8138,39
40.8509,44
40.8881,41
40.9252,34
40.9624,49
40.9995,44
41.0367,35
41.0738,50
41.1110,40
41.1481,39
41.1853,44
41.2224,40
41.2596,26
41.2967,34
41.3339,28
41.3710,41
41.4082,45
41.4453,31
41.4825,33
41.5196,42
41.5568,40
41.5939,39
41.6311,43
41.6682,25
41.7054,28
41.7425,37
41.7797,26
41.8168,46
41.8540,35
41.8911,37
41.9283,27
41.9654,36
42.0026,33
42.0397,38
42.0769,32
42.1140,44
42.1512,38
42.1884,31
42.2255,27
42.2627,28
42.2998,34
42.3370,37
42.3741,42
42.4113,49
42.4484,44
42.4856,38
42.5227,34
42.5599,24
42.5970,35
42.6342,33
42.6713,38
42.7085,34
42.7456,39
42.7828,46
42.8199,36
42.8571,30
42.8942,34
42.9314,40
42.9685,42
43.0057,30
43.0428,49
43.0800,35
43.1171,37
43.1543,38
43.1914,42
43.2286,47
43.2657,42
43.3029,50
43.3400,44
43.3772,36
43.4143,37
43.4515,40
43.4886,71
43.5258,60
43.5629,40
43.6001,43
43.6372,53
43.6744,43
43.7116,36
43.7487,34
43.7859,33
43.8230,26
43.8602,51
43.8973,34
43.9345,36
43.9716,30
44.0088,36
44.0459,37
44.0831,34
44.1202,43
44.1574,37
44.1945,29
44.2317,49
44.2688,30
44.3060,39
44.3431,30
44.3803,27
44.4174,31
44.4546,40
44.4917,37
44.5289,43
44.5660,43
44.6032,32
44.6403,27
44.6775,48
44.7146,28
44.7518,50
44.7889,38
44.8261,32
44.8632,43
44.9004,53
44.9375,37
44.9747,27
45.0118,32
45.0490,42
45.0861,32
45.1233,34
45.1604,23
45.1976,35
45.2347,38
45.2719,35
45.3091,33
45.3462,31
45.3834,39
45.4205,47
45.4577,33
45.4948,38
45.5320,32
45.5691,35
45.6063,27
45.6434,35
45.6806,36
45.7177,29
45.7549,23
45.7920,27
45.8292,28
45.8663,31
45.9035,27
45.9406,30
45.9778,37
46.0149,32
46.0521,36
46.0892,34
46.1264,33
46.1635,31
46.2007,33
46.2378,26
46.2750,34
46.3121,33
46.3493,38
46.3864,34
46.4236,32
46.4607,29
46.4979,28
46.5350,47
46.5722,35
46.6093,34
46.6465,31
46.6836,47
46.7208,34
46.7579,22
46.7951,36
46.8323,38
46.8694,41
46.9066,26
46.9437,35
46.9809,46
47.0180,27
47.0552,38
47.0923,34
47.1295,34
47.1666,33
47.2038,29
47.2409,28
47.2781,24
47.3152,33
47.3524,36
47.3895,31
47.4267,35
47.4638,38
47.5010,24
47.5381,26
47.5753,34
47.6124,39
47.6496,37
47.6867,28
47.7239,47
47.7610,33
47.7982,32
47.8353,22
47.8725,35
47.9096,25
47.9468,20
47.9839,42
48.0211,43
48.0582,30
48.0954,28
48.1325,28
48.1697,33
48.2068,35
48.2440,37
48.2811,32
48.3183,29
48.3555,25
48.3926,19
48.4298,39
48.4669,28
48.5041,34
48.5412,16
48.5784,44
48.6155,38
48.6527,30
48.6898,34
48.7270,26
48.7641,39
48.8013,45
48.8384,39
48.8756,38
48.9127,42
48.9499,63
48.9870,45
49.0242,36
49.0613,32
49.0985,58
49.1356,42
49.1728,30
49.2099,28
49.2471,28
49.2842,31
49.3214,32
49.3585,37
49.3957,23
49.4328,33
49.4700,30
49.5071,29
49.5443,28
49.5814,30
49.6186,28
49.6557,40
49.6929,39
49.7300,35
49.7672,30
49.8043,29
49.8415,35
49.8786,24
49.9158,35
49.9530,38
49.9901,36
50.0273,35
50.0644,32
50.1016,23
50.1387,30
50.1759,31
50.2130,30
50.2502,30
50.2873,31
50.3245,26
50.3616,31
50.3988,16
50.4359,29
50.4731,34
50.5102,15
50.5474,31
50.5845,33
50.6217,24
50.6588,28
50.6960,27
50.7331,39
50.7703,23
50.8074,29
50.8446,29
50.8817,33
50.9189,31
50.9560,27
50.9932,37
51.0303,26
51.0675,31
51.1046,23
51.1418,24
51.1789,44
51.2161,33
51.2532,32
51.2904,30
51.3275,38
51.3647,38
51.4018,19
51.4390,37
51.4762,15
51.5133,32
51.5505,40
51.5876,21
51.6248,31
51.6619,44
51.6991,31
51.7362,33
51.7734,37
51.8105,26
51.8477,38
51.8848,38
51.9220,33
51.9591,37
51.9963,39
52.0334,38
52.0706,37
52.1077,22
52.1449,27
52.1820,22
52.2192,31
52.2563,26
52.2935,26
52.3306,20
52.3678,26
52.4049,36
52.4421,32
52.4792,39
52.5164,32
52.5535,28
52.5907,34
52.6278,33
52.6650,26
52.7021,19
52.7393,35
52.7764,33
52.8136,22
52.8507,31
52.8879,23
52.9250,32
52.9622,31
52.9994,35
53.0365,36
53.0737,28
53.1108,29
53.1480,26
53.1851,27
53.2223,35
53.2594,27
53.2966,34
53.3337,20
53.3709,30
53.4080,28
53.4452,31
53.4823,40
53.5195,33
53.5566,29
53.5938,33
53.6309,32
53.6681,33
53.7052,32
53.7424,28
53.7795,29
53.8167,27
53.8538,32
53.8910,44
53.9281,34
53.9653,33
54.0024,48
54.0396,30
54.0767,38
54.1139,26
54.1510,43
54.1882,25
54.2253,27
54.2625,19
54.2996,27
54.3368,24
54.3739,20
54.4111,41
54.4482,30
54.4854,34
54.5225,29
54.5597,25
54.5969,28
54.6340,21
54.6712,27
54.7083,30
54.7455,25
54.7826,20
54.8198,28
54.8569,27
54.8941,34
54.9312,40
54.9684,28
55.0055,36
55.0427,28
55.0798,18
55.1170,26
55.1541,28
55.1913,21
55.2284,29
55.2656,28
55.3027,30
55.3399,27
55.3770,26
55.4142,27
55.4513,26
55.4885,36
55.5256,26
55.5628,36
55.5999,25
55.6371,26
55.6742,28
55.7114,22
55.7485,23
55.7857,26
55.8228,27
55.8600,24
55.8971,30
55.9343,22
55.9714,32
56.0086,36
56.0457,20
56.0829,27
56.1201,26
56.1572,26
56.1944,29
56.2315,37
56.2687,33
56.3058,33
56.3430,39
56.3801,27
56.4173,32
56.4544,28
56.4916,18
56.5287,39
56.5659,32
56.6030,35
56.6402,32
56.6773,15
56.7145,34
56.7516,36
56.7888,22
56.8259,24
56.8631,31
56.9002,27
56.9374,28
56.9745,28
57.0117,18
57.0488,29
57.0860,22
57.1231,39
57.1603,23
57.1974,27
57.2346,37
57.2717,32
57.3089,17
57.3460,25
57.3832,21
57.4203,21
57.4575,26
57.4946,36
57.5318,24
57.5689,30
57.6061,38
57.6433,22
57.6804,31
57.7176,25
57.7547,30
57.7919,20
57.8290,28
57.8662,25
57.9033,26
57.9405,26
57.9776,25
58.0148,21
58.0519,38
58.0891,11
58.1262,22
58.1634,30
58.2005,25
58.2377,15
58.2748,30
58.3120,32
58.3491,16
58.3863,22
58.4234,32
58.4606,30
58.4977,26
58.5349,27
58.5720,23
58.6092,17
58.6463,23
58.6835,26
58.7206,29
58.7578,22
58.7949,21
58.8321,27
58.8692,23
58.9064,32
58.9435,28
58.9807,31
59.0178,26
59.0550,27
59.0921,34
59.1293,20
59.1664,26
59.2036,18
59.2408,32
59.2779,24
59.3151,15
59.3522,27
59.3894,24
59.4265,27
59.4637,26
59.5008,25
59.5380,29
59.5751,37
59.6123,27
59.6494,26
59.6866,18
59.7237,26
59.7609,32
59.7980,23
59.8352,30
59.8723,27
59.9095,28
59.9466,25
59.9838,27
60.0024,31