File: notebooks/data/xrd_data/ML_20220721_14_SJD_4_LaB6-4min.uxd
; (content of file Y:\Sam\Apurva-07-20-2022\puck1\ML_20220721_14_SJD_0_LaB6-4min.raw)
_FILEVERSION = 3
_SAMPLE = ML_20220721_14_SJD_0_LaB6-4min
_+SAMPLE =
_SITE = USA
_USER = Administrator
_GONIOMETER_CODE = 20
; Goniometer : D8 theta/2theta, stage : Unknown
_ATTACHMENTS_CODE = 0
_GONIOMETER_RADIUS = 200.5
_FIXED_DIVSLIT = 0.6
_FIXED_SAMPLESLIT = 0
_SOLLER_SLITS = 2
_FIXED_DETSLIT = 9.55
_MONOCHROMATOR = 0
; Incident beam monochromator : None
_SOLLER_SLITS_2 = N
_THIN_FILM = N
_BETA_FILTER = Y
_FIXED_ANTISLIT = 5.89
_ANALYZER_CODE = 0
; Received beam analyzer : None
_DATEMEASURED = "25-Jul-2022 14:55:21"
_WL_UNIT = A
_WL1 = 1.5406
_WL2 = 1.54439
_WL3 = 1.39222
_WLRATIO = 0.5
_ANODE = Cu
_V4_INF_CREATOR = XRDWizard
_V4_INF_CREATOR_VERSION = V2.9.0.22
_V4_INF_WIZARD_VERSION = V2.9.0.22
_V4_INF_WIZARD_ADDINS = V2.9.0.22
_V4_INF_WIZARD_DOCTYPE = XRD
_V4_INF_OSUSER = McQueenLab
_V4_INF_USER = Administrator
_V4_INF_SITE = USA
_V4_INF_SAMPLEID = ML_20220721_14_SJD_0_LaB6-4min

; Data for range 1
_DRIVE = COUPLED
_STEPTIME = 11.28
_STEPSIZE = 0.0185756
_STEPMODE = C
_START = 5
_THETA = 2.5
_2THETA = 5
_KHI = 0
_PHI = 0
_X = 0
_Y = 0
_Z = 0
_DETECTOR = 5
; Detector type : Unknown
_DETECTORSLIT = unkn
_AUX1 = 0
_AUX2 = 0
_AUX3 = 0
_TIMESTARTED = 15
_TEMP_RATE = -1
_TEMP_DELAY = -1
_KV = 40
_MA = 40
_RANGE_WL = 1.5406
_3DPLANE = 0
_V4_ADDITIONALDETECTOR = 257
_V4_PSD2THETA = 3.3888
_V4_PSDCHANNEL1 = 0
_V4_PSDAPERTURE = 12.68
_V4_PSDTYPE = 5
_V4_PSDFIXED = 0
_V4_COUNTERS_MASK = 4096
_V4_DRIVES_MASK = 0
_V4_ENCODERS_MASK = 0
_2THETACOUNTS = 1
; 2THETA  PSD
   5.0000        285
   5.0372        276
   5.0743        263
   5.1115        250
   5.1486        267
   5.1858        240
   5.2229        255
   5.2601        275
   5.2972        229
   5.3344        253
   5.3715        229
   5.4087        224
   5.4458        232
   5.4830        257
   5.5201        208
   5.5573        192
   5.5944        227
   5.6316        222
   5.6687        208
   5.7059        221
   5.7430        225
   5.7802        195
   5.8173        220
   5.8545        193
   5.8916        221
   5.9288        235
   5.9659        248
   6.0031        194
   6.0402        185
   6.0774        209
   6.1145        168
   6.1517        214
   6.1888        183
   6.2260        179
   6.2631        172
   6.3003        197
   6.3374        161
   6.3746        176
   6.4117        166
   6.4489        173
   6.4860        206
   6.5232        175
   6.5604        190
   6.5975        185
   6.6347        169
   6.6718        146
   6.7090        178
   6.7461        180
   6.7833        177
   6.8204        178
   6.8576        175
   6.8947        178
   6.9319        169
   6.9690        154
   7.0062        170
   7.0433        182
   7.0805        199
   7.1176        157
   7.1548        175
   7.1919        147
   7.2291        165
   7.2662        149
   7.3034        152
   7.3405        166
   7.3777        140
   7.4148        169
   7.4520        169
   7.4891        162
   7.5263        162
   7.5634        157
   7.6006        184
   7.6377        197
   7.6749        187
   7.7120        177
   7.7492        186
   7.7863        172
   7.8235        181
   7.8606        183
   7.8978        200
   7.9349        148
   7.9721        194
   8.0092        189
   8.0464        203
   8.0835        185
   8.1207        170
   8.1579        190
   8.1950        174
   8.2322        169
   8.2693        187
   8.3065        191
   8.3436        186
   8.3808        207
   8.4179        186
   8.4551        211
   8.4922        199
   8.5294        213
   8.5665        206
   8.6037        185
   8.6408        189
   8.6780        187
   8.7151        198
   8.7523        214
   8.7894        199
   8.8266        211
   8.8637        207
   8.9009        239
   8.9380        225
   8.9752        210
   9.0123        205
   9.0495        217
   9.0866        227
   9.1238        210
   9.1609        217
   9.1981        242
   9.2352        208
   9.2724        228
   9.3095        229
   9.3467        214
   9.3838        212
   9.4210        216
   9.4581        219
   9.4953        214
   9.5324        222
   9.5696        199
   9.6067        270
   9.6439        219
   9.6811        224
   9.7182        242
   9.7554        221
   9.7925        240
   9.8297        262
   9.8668        243
   9.9040        232
   9.9411        232
   9.9783        283
  10.0154        230
  10.0526        219
  10.0897        233
  10.1269        252
  10.1640        245
  10.2012        239
  10.2383        241
  10.2755        245
  10.3126        239
  10.3498        245
  10.3869        224
  10.4241        238
  10.4612        240
  10.4984        208
  10.5355        252
  10.5727        237
  10.6098        215
  10.6470        240
  10.6841        251
  10.7213        241
  10.7584        279
  10.7956        243
  10.8327        259
  10.8699        247
  10.9070        243
  10.9442        224
  10.9813        242
  11.0185        260
  11.0556        254
  11.0928        238
  11.1299        222
  11.1671        255
  11.2043        243
  11.2414        239
  11.2786        239
  11.3157        257
  11.3529        234
  11.3900        241
  11.4272        254
  11.4643        261
  11.5015        250
  11.5386        278
  11.5758        223
  11.6129        247
  11.6501        236
  11.6872        233
  11.7244        220
  11.7615        229
  11.7987        245
  11.8358        228
  11.8730        241
  11.9101        225
  11.9473        245
  11.9844        221
  12.0216        245
  12.0587        239
  12.0959        254
  12.1330        221
  12.1702        249
  12.2073        234
  12.2445        236
  12.2816        232
  12.3188        202
  12.3559        211
  12.3931        198
  12.4302        197
  12.4674        232
  12.5045        213
  12.5417        232
  12.5788        227
  12.6160        210
  12.6531        235
  12.6903        184
  12.7274        202
  12.7646        225
  12.8018        222
  12.8389        248
  12.8761        226
  12.9132        204
  12.9504        205
  12.9875        224
  13.0247        197
  13.0618        229
  13.0990        200
  13.1361        220
  13.1733        192
  13.2104        201
  13.2476        225
  13.2847        189
  13.3219        221
  13.3590        213
  13.3962        180
  13.4333        187
  13.4705        198
  13.5076        155
  13.5448        194
  13.5819        192
  13.6191        188
  13.6562        204
  13.6934        189
  13.7305        195
  13.7677        188
  13.8048        203
  13.8420        203
  13.8791        161
  13.9163        207
  13.9534        187
  13.9906        211
  14.0277        189
  14.0649        198
  14.1020        168
  14.1392        175
  14.1763        194
  14.2135        176
  14.2506        169
  14.2878        197
  14.3250        158
  14.3621        190
  14.3993        179
  14.4364        198
  14.4736        180
  14.5107        179
  14.5479        167
  14.5850        161
  14.6222        183
  14.6593        162
  14.6965        192
  14.7336        153
  14.7708        165
  14.8079        170
  14.8451        163
  14.8822        173
  14.9194        168
  14.9565        170
  14.9937        172
  15.0308        164
  15.0680        165
  15.1051        163
  15.1423        163
  15.1794        162
  15.2166        150
  15.2537        161
  15.2909        153
  15.3280        170
  15.3652        160
  15.4023        154
  15.4395        135
  15.4766        174
  15.5138        137
  15.5509        153
  15.5881        144
  15.6252        173
  15.6624        191
  15.6995        173
  15.7367        165
  15.7738        181
  15.8110        165
  15.8482        143
  15.8853        166
  15.9225        139
  15.9596        166
  15.9968        162
  16.0339        173
  16.0711        151
  16.1082        168
  16.1454        160
  16.1825        159
  16.2197        163
  16.2568        161
  16.2940        164
  16.3311        150
  16.3683        159
  16.4054        164
  16.4426        163
  16.4797        164
  16.5169        143
  16.5540        160
  16.5912        175
  16.6283        156
  16.6655        172
  16.7026        150
  16.7398        156
  16.7769        162
  16.8141        170
  16.8512        182
  16.8884        159
  16.9255        182
  16.9627        186
  16.9998        162
  17.0370        155
  17.0741        133
  17.1113        153
  17.1484        151
  17.1856        195
  17.2227        155
  17.2599        172
  17.2970        170
  17.3342        161
  17.3713        170
  17.4085        162
  17.4457        155
  17.4828        158
  17.5200        174
  17.5571        155
  17.5943        144
  17.6314        159
  17.6686        164
  17.7057        166
  17.7429        175
  17.7800        167
  17.8172        167
  17.8543        151
  17.8915        145
  17.9286        128
  17.9658        172
  18.0029        184
  18.0401        175
  18.0772        189
  18.1144        175
  18.1515        171
  18.1887        197
  18.2258        175
  18.2630        167
  18.3001        169
  18.3373        152
  18.3744        169
  18.4116        171
  18.4487        151
  18.4859        172
  18.5230        154
  18.5602        180
  18.5973        175
  18.6345        167
  18.6716        185
  18.7088        149
  18.7459        168
  18.7831        158
  18.8202        184
  18.8574        187
  18.8945        168
  18.9317        159
  18.9689        155
  19.0060        160
  19.0432        179
  19.0803        194
  19.1175        156
  19.1546        209
  19.1918        179
  19.2289        170
  19.2661        198
  19.3032        172
  19.3404        203
  19.3775        146
  19.4147        171
  19.4518        172
  19.4890        182
  19.5261        191
  19.5633        171
  19.6004        167
  19.6376        178
  19.6747        166
  19.7119        207
  19.7490        173
  19.7862        172
  19.8233        179
  19.8605        156
  19.8976        162
  19.9348        195
  19.9719        175
  20.0091        176
  20.0462        171
  20.0834        192
  20.1205        152
  20.1577        177
  20.1948        157
  20.2320        219
  20.2691        185
  20.3063        171
  20.3434        178
  20.3806        172
  20.4177        197
  20.4549        177
  20.4921        187
  20.5292        179
  20.5664        189
  20.6035        167
  20.6407        206
  20.6778        182
  20.7150        176
  20.7521        196
  20.7893        174
  20.8264        199
  20.8636        185
  20.9007        149
  20.9379        185
  20.9750        171
  21.0122        190
  21.0493        201
  21.0865        196
  21.1236        202
  21.1608        238
  21.1979        284
  21.2351        304
  21.2722        287
  21.3094        284
  21.3465        510
  21.3837        407
  21.4208        365
  21.4580        207
  21.4951        239
  21.5323        206
  21.5694        223
  21.6066        193
  21.6437        198
  21.6809        187
  21.7180        189
  21.7552        189
  21.7923        204
  21.8295        187
  21.8666        202
  21.9038        198
  21.9409        200
  21.9781        198
  22.0152        164
  22.0524        182
  22.0896        186
  22.1267        205
  22.1639        205
  22.2010        194
  22.2382        191
  22.2753        199
  22.3125        195
  22.3496        192
  22.3868        223
  22.4239        194
  22.4611        215
  22.4982        222
  22.5354        204
  22.5725        194
  22.6097        211
  22.6468        175
  22.6840        182
  22.7211        202
  22.7583        207
  22.7954        204
  22.8326        212
  22.8697        196
  22.9069        205
  22.9440        220
  22.9812        220
  23.0183        211
  23.0555        185
  23.0926        222
  23.1298        187
  23.1669        202
  23.2041        183
  23.2412        156
  23.2784        196
  23.3155        230
  23.3527        216
  23.3898        208
  23.4270        214
  23.4641        187
  23.5013        200
  23.5384        200
  23.5756        209
  23.6128        202
  23.6499        185
  23.6871        205
  23.7242        214
  23.7614        186
  23.7985        196
  23.8357        186
  23.8728        199
  23.9100        204
  23.9471        198
  23.9843        201
  24.0214        218
  24.0586        212
  24.0957        214
  24.1329        209
  24.1700        217
  24.2072        206
  24.2443        201
  24.2815        231
  24.3186        223
  24.3558        220
  24.3929        194
  24.4301        199
  24.4672        189
  24.5044        219
  24.5415        209
  24.5787        194
  24.6158        242
  24.6530        212
  24.6901        208
  24.7273        205
  24.7644        226
  24.8016        228
  24.8387        191
  24.8759        206
  24.9130        193
  24.9502        216
  24.9873        194
  25.0245        212
  25.0616        222
  25.0988        182
  25.1360        224
  25.1731        188
  25.2103        208
  25.2474        173
  25.2846        200
  25.3217        202
  25.3589        207
  25.3960        176
  25.4332        214
  25.4703        200
  25.5075        189
  25.5446        175
  25.5818        191
  25.6189        175
  25.6561        218
  25.6932        201
  25.7304        198
  25.7675        181
  25.8047        199
  25.8418        217
  25.8790        201
  25.9161        194
  25.9533        216
  25.9904        199
  26.0276        202
  26.0647        189
  26.1019        177
  26.1390        179
  26.1762        193
  26.2133        169
  26.2505        192
  26.2876        200
  26.3248        189
  26.3619        172
  26.3991        193
  26.4362        223
  26.4734        217
  26.5105        172
  26.5477        180
  26.5848        188
  26.6220        201
  26.6591        213
  26.6963        208
  26.7335        196
  26.7706        181
  26.8078        178
  26.8449        192
  26.8821        196
  26.9192        178
  26.9564        184
  26.9935        199
  27.0307        205
  27.0678        185
  27.1050        196
  27.1421        209
  27.1793        249
  27.2164        254
  27.2536        232
  27.2907        200
  27.3279        205
  27.3650        203
  27.4022        190
  27.4393        205
  27.4765        184
  27.5136        171
  27.5508        172
  27.5879        179
  27.6251        179
  27.6622        177
  27.6994        169
  27.7365        175
  27.7737        165
  27.8108        186
  27.8480        183
  27.8851        163
  27.9223        174
  27.9594        186
  27.9966        165
  28.0337        160
  28.0709        177
  28.1080        169
  28.1452        206
  28.1823        165
  28.2195        188
  28.2567        180
  28.2938        177
  28.3310        194
  28.3681        145
  28.4053        160
  28.4424        183
  28.4796        174
  28.5167        169
  28.5539        175
  28.5910        164
  28.6282        164
  28.6653        158
  28.7025        171
  28.7396        163
  28.7768        167
  28.8139        178
  28.8511        167
  28.8882        164
  28.9254        175
  28.9625        176
  28.9997        167
  29.0368        176
  29.0740        170
  29.1111        179
  29.1483        192
  29.1854        175
  29.2226        155
  29.2597        163
  29.2969        159
  29.3340        138
  29.3712        163
  29.4083        142
  29.4455        169
  29.4826        203
  29.5198        166
  29.5569        149
  29.5941        171
  29.6312        174
  29.6684        186
  29.7055        166
  29.7427        158
  29.7799        144
  29.8170        155
  29.8542        166
  29.8913        159
  29.9285        159
  29.9656        159
  30.0028        172
  30.0399        179
  30.0771        131
  30.1142        144
  30.1514        175
  30.1885        165
  30.2257        166
  30.2628        150
  30.3000        182
  30.3371        197
  30.3743        335
  30.4114        267
  30.4486        235
  30.4857        221
  30.5229        151
  30.5600        177
  30.5972        148
  30.6343        161
  30.6715        144
  30.7086        142
  30.7458        147
  30.7829        135
  30.8201        155
  30.8572        161
  30.8944        139
  30.9315        133
  30.9687        157
  31.0058        143
  31.0430        153
  31.0801        123
  31.1173        151
  31.1544        152
  31.1916        142
  31.2287        127
  31.2659        132
  31.3030        140
  31.3402        139
  31.3774        162
  31.4145        140
  31.4517        137
  31.4888        132
  31.5260        141
  31.5631        116
  31.6003        136
  31.6374        146
  31.6746        141
  31.7117        137
  31.7489        129
  31.7860        131
  31.8232        124
  31.8603        148
  31.8975        134
  31.9346        135
  31.9718        153
  32.0089        128
  32.0461        139
  32.0832        147
  32.1204        142
  32.1575        142
  32.1947        115
  32.2318        140
  32.2690        132
  32.3061        162
  32.3433        136
  32.3804        131
  32.4176        177
  32.4547        156
  32.4919        159
  32.5290        154
  32.5662        122
  32.6033        124
  32.6405        138
  32.6776        125
  32.7148        140
  32.7519        123
  32.7891        127
  32.8262        128
  32.8634        135
  32.9006        124
  32.9377        123
  32.9749        119
  33.0120        142
  33.0492        134
  33.0863        119
  33.1235        113
  33.1606        125
  33.1978        136
  33.2349        146
  33.2721        137
  33.3092         91
  33.3464        125
  33.3835        108
  33.4207        124
  33.4578        115
  33.4950        118
  33.5321        135
  33.5693        109
  33.6064        123
  33.6436        116
  33.6807        106
  33.7179        107
  33.7550         87
  33.7922        125
  33.8293        125
  33.8665        135
  33.9036        122
  33.9408        113
  33.9779        121
  34.0151        129
  34.0522        124
  34.0894        115
  34.1265        108
  34.1637        113
  34.2008        118
  34.2380        126
  34.2751        117
  34.3123        119
  34.3494         99
  34.3866        102
  34.4238        105
  34.4609         99
  34.4981        102
  34.5352        112
  34.5724        123
  34.6095        132
  34.6467        113
  34.6838        133
  34.7210        148
  34.7581        156
  34.7953        132
  34.8324        131
  34.8696        145
  34.9067        126
  34.9439        132
  34.9810        109
  35.0182        113
  35.0553        107
  35.0925        132
  35.1296        115
  35.1668        119
  35.2039        100
  35.2411        101
  35.2782        112
  35.3154        101
  35.3525        102
  35.3897        106
  35.4268        103
  35.4640        103
  35.5011         80
  35.5383         94
  35.5754        102
  35.6126        117
  35.6497        109
  35.6869         95
  35.7240         98
  35.7612         95
  35.7983        112
  35.8355        118
  35.8726         95
  35.9098        112
  35.9469         87
  35.9841         98
  36.0213         99
  36.0584        115
  36.0956        106
  36.1327        101
  36.1699        103
  36.2070        101
  36.2442        107
  36.2813         83
  36.3185         98
  36.3556        109
  36.3928        117
  36.4299        111
  36.4671         86
  36.5042         91
  36.5414         89
  36.5785         81
  36.6157         89
  36.6528         87
  36.6900        106
  36.7271         89
  36.7643         82
  36.8014         97
  36.8386         74
  36.8757        105
  36.9129        105
  36.9500         98
  36.9872         85
  37.0243         83
  37.0615        102
  37.0986        107
  37.1358         99
  37.1729         88
  37.2101        101
  37.2472         77
  37.2844         98
  37.3215        105
  37.3587        100
  37.3958        117
  37.4330        130
  37.4701        144
  37.5073        111
  37.5445        159
  37.5816         92
  37.6188        105
  37.6559         83
  37.6931         80
  37.7302         87
  37.7674         81
  37.8045         68
  37.8417         71
  37.8788        111
  37.9160         89
  37.9531         81
  37.9903         85
  38.0274         81
  38.0646         73
  38.1017         87
  38.1389         78
  38.1760         84
  38.2132         85
  38.2503         79
  38.2875        105
  38.3246         92
  38.3618         77
  38.3989         82
  38.4361         82
  38.4732         74
  38.5104         87
  38.5475         72
  38.5847        102
  38.6218        100
  38.6590        100
  38.6961         62
  38.7333         85
  38.7704         90
  38.8076         81
  38.8447         80
  38.8819        102
  38.9190         73
  38.9562         82
  38.9933         80
  39.0305         79
  39.0677         81
  39.1048         85
  39.1420         94
  39.1791         94
  39.2163         83
  39.2534         70
  39.2906         81
  39.3277         77
  39.3649         81
  39.4020         71
  39.4392         73
  39.4763         80
  39.5135         83
  39.5506         95
  39.5878         77
  39.6249         67
  39.6621         75
  39.6992         89
  39.7364         68
  39.7735         59
  39.8107         98
  39.8478         67
  39.8850         72
  39.9221         63
  39.9593         79
  39.9964         64
  40.0336         72
  40.0707        100
  40.1079         77
  40.1450         82
  40.1822         69
  40.2193         86
  40.2565         66
  40.2936         81
  40.3308         89
  40.3679         74
  40.4051         78
  40.4422         83
  40.4794         73
  40.5165         74
  40.5537         78
  40.5908         98
  40.6280         74
  40.6652         61
  40.7023         94
  40.7395         98
  40.7766         94
  40.8138         72
  40.8509         68
  40.8881         92
  40.9252         92
  40.9624         76
  40.9995         94
  41.0367         75
  41.0738         75
  41.1110         73
  41.1481         69
  41.1853         82
  41.2224         78
  41.2596         67
  41.2967         83
  41.3339         69
  41.3710         83
  41.4082         91
  41.4453         75
  41.4825         85
  41.5196         75
  41.5568         81
  41.5939         69
  41.6311         84
  41.6682         74
  41.7054         72
  41.7425         75
  41.7797         70
  41.8168         67
  41.8540         67
  41.8911         73
  41.9283         76
  41.9654         76
  42.0026         89
  42.0397         85
  42.0769         69
  42.1140         77
  42.1512         78
  42.1884         88
  42.2255         70
  42.2627         88
  42.2998         72
  42.3370         82
  42.3741         69
  42.4113         81
  42.4484         76
  42.4856         61
  42.5227         70
  42.5599         74
  42.5970         80
  42.6342         75
  42.6713         63
  42.7085         62
  42.7456         88
  42.7828         83
  42.8199         74
  42.8571         77
  42.8942         76
  42.9314         78
  42.9685         89
  43.0057         70
  43.0428         93
  43.0800         88
  43.1171         65
  43.1543         82
  43.1914         78
  43.2286        113
  43.2657         93
  43.3029         97
  43.3400         72
  43.3772         90
  43.4143         82
  43.4515         71
  43.4886        119
  43.5258        117
  43.5629         79
  43.6001         95
  43.6372        115
  43.6744         77
  43.7116         76
  43.7487         77
  43.7859         67
  43.8230         67
  43.8602         66
  43.8973         66
  43.9345         78
  43.9716         71
  44.0088         67
  44.0459         74
  44.0831         76
  44.1202         74
  44.1574         79
  44.1945         69
  44.2317         74
  44.2688         85
  44.3060         70
  44.3431         71
  44.3803         83
  44.4174         76
  44.4546         67
  44.4917         86
  44.5289         79
  44.5660         85
  44.6032         93
  44.6403         74
  44.6775         81
  44.7146         85
  44.7518         86
  44.7889         82
  44.8261         71
  44.8632         86
  44.9004         82
  44.9375         67
  44.9747         85
  45.0118         68
  45.0490         95
  45.0861         73
  45.1233         79
  45.1604         79
  45.1976         83
  45.2347         80
  45.2719         76
  45.3091         82
  45.3462         67
  45.3834         64
  45.4205         69
  45.4577         64
  45.4948         55
  45.5320         75
  45.5691         58
  45.6063         63
  45.6434         73
  45.6806         72
  45.7177         75
  45.7549         72
  45.7920         83
  45.8292         77
  45.8663         60
  45.9035         57
  45.9406         71
  45.9778         59
  46.0149         60
  46.0521         68
  46.0892         67
  46.1264         78
  46.1635         81
  46.2007         63
  46.2378         69
  46.2750         63
  46.3121         65
  46.3493         81
  46.3864         61
  46.4236         63
  46.4607         77
  46.4979         66
  46.5350         54
  46.5722         61
  46.6093         56
  46.6465         69
  46.6836         61
  46.7208         61
  46.7579         68
  46.7951         73
  46.8323         72
  46.8694         61
  46.9066         65
  46.9437         63
  46.9809         85
  47.0180         50
  47.0552         81
  47.0923         56
  47.1295         74
  47.1666         63
  47.2038         70
  47.2409         46
  47.2781         68
  47.3152         56
  47.3524         68
  47.3895         81
  47.4267         62
  47.4638         55
  47.5010         78
  47.5381         60
  47.5753         64
  47.6124         65
  47.6496         64
  47.6867         66
  47.7239         64
  47.7610         62
  47.7982         47
  47.8353         61
  47.8725         64
  47.9096         59
  47.9468         72
  47.9839         75
  48.0211         74
  48.0582         78
  48.0954         59
  48.1325         56
  48.1697         64
  48.2068         67
  48.2440         72
  48.2811         68
  48.3183         70
  48.3555         63
  48.3926         56
  48.4298         63
  48.4669         61
  48.5041         72
  48.5412         60
  48.5784         68
  48.6155         59
  48.6527         67
  48.6898         60
  48.7270         60
  48.7641         64
  48.8013         64
  48.8384         63
  48.8756         62
  48.9127         89
  48.9499        115
  48.9870         92
  49.0242         71
  49.0613         96
  49.0985         71
  49.1356         81
  49.1728         73
  49.2099         72
  49.2471         63
  49.2842         64
  49.3214         66
  49.3585         64
  49.3957         62
  49.4328         69
  49.4700         50
  49.5071         69
  49.5443         72
  49.5814         59
  49.6186         58
  49.6557         50
  49.6929         62
  49.7300         70
  49.7672         52
  49.8043         69
  49.8415         66
  49.8786         58
  49.9158         68
  49.9530         68
  49.9901         58
  50.0273         63
  50.0644         62
  50.1016         75
  50.1387         63
  50.1759         63
  50.2130         72
  50.2502         60
  50.2873         67
  50.3245         66
  50.3616         68
  50.3988         70
  50.4359         44
  50.4731         63
  50.5102         63
  50.5474         60
  50.5845         59
  50.6217         59
  50.6588         47
  50.6960         68
  50.7331         57
  50.7703         53
  50.8074         43
  50.8446         67
  50.8817         57
  50.9189         54
  50.9560         65
  50.9932         64
  51.0303         69
  51.0675         64
  51.1046         57
  51.1418         56
  51.1789         57
  51.2161         59
  51.2532         66
  51.2904         59
  51.3275         60
  51.3647         63
  51.4018         74
  51.4390         53
  51.4762         60
  51.5133         60
  51.5505         55
  51.5876         77
  51.6248         59
  51.6619         59
  51.6991         37
  51.7362         55
  51.7734         51
  51.8105         75
  51.8477         69
  51.8848         78
  51.9220         66
  51.9591         70
  51.9963         58
  52.0334         63
  52.0706         69
  52.1077         62
  52.1449         63
  52.1820         47
  52.2192         56
  52.2563         48
  52.2935         51
  52.3306         55
  52.3678         54
  52.4049         54
  52.4421         57
  52.4792         52
  52.5164         62
  52.5535         53
  52.5907         47
  52.6278         59
  52.6650         63
  52.7021         64
  52.7393         59
  52.7764         46
  52.8136         65
  52.8507         56
  52.8879         70
  52.9250         61
  52.9622         69
  52.9994         59
  53.0365         62
  53.0737         71
  53.1108         61
  53.1480         62
  53.1851         61
  53.2223         46
  53.2594         62
  53.2966         65
  53.3337         48
  53.3709         53
  53.4080         65
  53.4452         62
  53.4823         43
  53.5195         59
  53.5566         68
  53.5938         64
  53.6309         71
  53.6681         69
  53.7052         67
  53.7424         59
  53.7795         45
  53.8167         71
  53.8538         66
  53.8910         72
  53.9281         69
  53.9653         65
  54.0024         72
  54.0396         55
  54.0767         60
  54.1139         62
  54.1510         64
  54.1882         59
  54.2253         60
  54.2625         57
  54.2996         51
  54.3368         71
  54.3739         58
  54.4111         62
  54.4482         65
  54.4854         57
  54.5225         55
  54.5597         60
  54.5969         57
  54.6340         57
  54.6712         51
  54.7083         62
  54.7455         39
  54.7826         52
  54.8198         48
  54.8569         78
  54.8941         54
  54.9312         70
  54.9684         57
  55.0055         59
  55.0427         49
  55.0798         58
  55.1170         61
  55.1541         61
  55.1913         60
  55.2284         68
  55.2656         67
  55.3027         67
  55.3399         46
  55.3770         61
  55.4142         50
  55.4513         66
  55.4885         62
  55.5256         48
  55.5628         62
  55.5999         49
  55.6371         56
  55.6742         42
  55.7114         48
  55.7485         55
  55.7857         62
  55.8228         57
  55.8600         56
  55.8971         71
  55.9343         65
  55.9714         54
  56.0086         58
  56.0457         64
  56.0829         54
  56.1201         64
  56.1572         56
  56.1944         64
  56.2315         63
  56.2687         66
  56.3058         68
  56.3430         52
  56.3801         71
  56.4173         42
  56.4544         56
  56.4916         63
  56.5287         53
  56.5659         70
  56.6030         58
  56.6402         58
  56.6773         66
  56.7145         42
  56.7516         68
  56.7888         55
  56.8259         49
  56.8631         53
  56.9002         62
  56.9374         55
  56.9745         61
  57.0117         58
  57.0488         41
  57.0860         56
  57.1231         44
  57.1603         54
  57.1974         56
  57.2346         57
  57.2717         55
  57.3089         63
  57.3460         56
  57.3832         59
  57.4203         50
  57.4575         56
  57.4946         63
  57.5318         46
  57.5689         56
  57.6061         56
  57.6433         66
  57.6804         60
  57.7176         66
  57.7547         67
  57.7919         41
  57.8290         70
  57.8662         56
  57.9033         60
  57.9405         57
  57.9776         58
  58.0148         56
  58.0519         59
  58.0891         58
  58.1262         57
  58.1634         57
  58.2005         55
  58.2377         50
  58.2748         55
  58.3120         65
  58.3491         49
  58.3863         79
  58.4234         60
  58.4606         44
  58.4977         60
  58.5349         63
  58.5720         53
  58.6092         62
  58.6463         55
  58.6835         56
  58.7206         62
  58.7578         46
  58.7949         42
  58.8321         62
  58.8692         53
  58.9064         43
  58.9435         50
  58.9807         68
  59.0178         53
  59.0550         50
  59.0921         49
  59.1293         65
  59.1664         61
  59.2036         49
  59.2408         45
  59.2779         60
  59.3151         37
  59.3522         72
  59.3894         58
  59.4265         62
  59.4637         43
  59.5008         60
  59.5380         65
  59.5751         49
  59.6123         54
  59.6494         54
  59.6866         40
  59.7237         55
  59.7609         50
  59.7980         60
  59.8352         53
  59.8723         53
  59.9095         50
  59.9466         64
  59.9838         60
  60.0024         59