File: notebooks/data/xrd_data/ML_20220718_57_SJD_4_LaB6-1min.csv
;,2THETA,
5.0000,110
5.0372,91
5.0743,105
5.1115,95
5.1486,84
5.1858,95
5.2229,80
5.2601,93
5.2972,85
5.3344,91
5.3715,77
5.4087,92
5.4458,85
5.4830,96
5.5201,79
5.5573,81
5.5944,67
5.6316,92
5.6687,78
5.7059,76
5.7430,80
5.7802,91
5.8173,79
5.8545,72
5.8916,75
5.9288,88
5.9659,79
6.0031,80
6.0402,90
6.0774,74
6.1145,68
6.1517,62
6.1888,74
6.2260,64
6.2631,60
6.3003,69
6.3374,71
6.3746,63
6.4117,56
6.4489,53
6.4860,71
6.5232,64
6.5604,69
6.5975,62
6.6347,59
6.6718,72
6.7090,65
6.7461,65
6.7833,59
6.8204,73
6.8576,64
6.8947,76
6.9319,55
6.9690,67
7.0062,59
7.0433,55
7.0805,61
7.1176,60
7.1548,50
7.1919,64
7.2291,65
7.2662,63
7.3034,48
7.3405,61
7.3777,59
7.4148,53
7.4520,48
7.4891,57
7.5263,55
7.5634,61
7.6006,54
7.6377,50
7.6749,67
7.7120,67
7.7492,83
7.7863,60
7.8235,59
7.8606,61
7.8978,70
7.9349,57
7.9721,71
8.0092,75
8.0464,70
8.0835,61
8.1207,68
8.1579,75
8.1950,81
8.2322,64
8.2693,65
8.3065,71
8.3436,71
8.3808,69
8.4179,68
8.4551,62
8.4922,92
8.5294,71
8.5665,70
8.6037,74
8.6408,83
8.6780,65
8.7151,69
8.7523,83
8.7894,67
8.8266,72
8.8637,95
8.9009,81
8.9380,84
8.9752,93
9.0123,76
9.0495,69
9.0866,79
9.1238,84
9.1609,88
9.1981,85
9.2352,80
9.2724,71
9.3095,97
9.3467,88
9.3838,112
9.4210,82
9.4581,84
9.4953,90
9.5324,66
9.5696,89
9.6067,82
9.6439,78
9.6811,83
9.7182,78
9.7554,89
9.7925,77
9.8297,87
9.8668,85
9.9040,79
9.9411,91
9.9783,90
10.0154,82
10.0526,82
10.0897,70
10.1269,81
10.1640,94
10.2012,96
10.2383,79
10.2755,90
10.3126,102
10.3498,106
10.3869,95
10.4241,82
10.4612,75
10.4984,80
10.5355,85
10.5727,81
10.6098,82
10.6470,76
10.6841,79
10.7213,82
10.7584,87
10.7956,87
10.8327,83
10.8699,86
10.9070,89
10.9442,89
10.9813,86
11.0185,102
11.0556,82
11.0928,91
11.1299,83
11.1671,60
11.2043,101
11.2414,77
11.2786,80
11.3157,86
11.3529,100
11.3900,66
11.4272,105
11.4643,108
11.5015,89
11.5386,113
11.5758,94
11.6129,69
11.6501,101
11.6872,91
11.7244,82
11.7615,87
11.7987,88
11.8358,85
11.8730,74
11.9101,90
11.9473,93
11.9844,78
12.0216,82
12.0587,76
12.0959,87
12.1330,76
12.1702,82
12.2073,71
12.2445,83
12.2816,81
12.3188,76
12.3559,80
12.3931,69
12.4302,88
12.4674,92
12.5045,76
12.5417,77
12.5788,74
12.6160,66
12.6531,74
12.6903,99
12.7274,82
12.7646,64
12.8018,68
12.8389,78
12.8761,70
12.9132,83
12.9504,67
12.9875,58
13.0247,92
13.0618,66
13.0990,81
13.1361,63
13.1733,90
13.2104,77
13.2476,84
13.2847,86
13.3219,81
13.3590,61
13.3962,62
13.4333,69
13.4705,66
13.5076,78
13.5448,70
13.5819,79
13.6191,53
13.6562,76
13.6934,75
13.7305,57
13.7677,65
13.8048,76
13.8420,67
13.8791,73
13.9163,84
13.9534,65
13.9906,63
14.0277,75
14.0649,70
14.1020,77
14.1392,51
14.1763,80
14.2135,60
14.2506,69
14.2878,54
14.3250,68
14.3621,65
14.3993,69
14.4364,75
14.4736,57
14.5107,58
14.5479,72
14.5850,72
14.6222,61
14.6593,63
14.6965,60
14.7336,71
14.7708,71
14.8079,65
14.8451,62
14.8822,58
14.9194,50
14.9565,54
14.9937,66
15.0308,63
15.0680,61
15.1051,71
15.1423,60
15.1794,60
15.2166,68
15.2537,46
15.2909,63
15.3280,73
15.3652,62
15.4023,53
15.4395,51
15.4766,63
15.5138,65
15.5509,66
15.5881,61
15.6252,64
15.6624,81
15.6995,49
15.7367,56
15.7738,48
15.8110,63
15.8482,55
15.8853,61
15.9225,66
15.9596,69
15.9968,55
16.0339,62
16.0711,77
16.1082,66
16.1454,60
16.1825,53
16.2197,63
16.2568,55
16.2940,68
16.3311,59
16.3683,46
16.4054,69
16.4426,49
16.4797,62
16.5169,59
16.5540,63
16.5912,64
16.6283,59
16.6655,54
16.7026,51
16.7398,46
16.7769,69
16.8141,55
16.8512,53
16.8884,71
16.9255,49
16.9627,51
16.9998,62
17.0370,65
17.0741,52
17.1113,61
17.1484,47
17.1856,62
17.2227,77
17.2599,54
17.2970,51
17.3342,46
17.3713,62
17.4085,50
17.4457,63
17.4828,66
17.5200,56
17.5571,57
17.5943,59
17.6314,60
17.6686,62
17.7057,64
17.7429,68
17.7800,65
17.8172,58
17.8543,54
17.8915,55
17.9286,48
17.9658,51
18.0029,49
18.0401,46
18.0772,72
18.1144,65
18.1515,65
18.1887,55
18.2258,54
18.2630,69
18.3001,46
18.3373,66
18.3744,62
18.4116,47
18.4487,51
18.4859,65
18.5230,49
18.5602,65
18.5973,49
18.6345,65
18.6716,70
18.7088,60
18.7459,69
18.7831,53
18.8202,55
18.8574,51
18.8945,62
18.9317,59
18.9689,42
19.0060,50
19.0432,58
19.0803,57
19.1175,68
19.1546,56
19.1918,60
19.2289,63
19.2661,53
19.3032,65
19.3404,55
19.3775,63
19.4147,52
19.4518,54
19.4890,57
19.5261,58
19.5633,66
19.6004,60
19.6376,71
19.6747,82
19.7119,74
19.7490,70
19.7862,64
19.8233,79
19.8605,68
19.8976,80
19.9348,72
19.9719,81
20.0091,65
20.0462,70
20.0834,72
20.1205,70
20.1577,59
20.1948,72
20.2320,75
20.2691,55
20.3063,91
20.3434,56
20.3806,62
20.4177,67
20.4549,61
20.4921,62
20.5292,75
20.5664,66
20.6035,69
20.6407,71
20.6778,72
20.7150,67
20.7521,67
20.7893,62
20.8264,88
20.8636,63
20.9007,61
20.9379,70
20.9750,68
21.0122,76
21.0493,68
21.0865,72
21.1236,75
21.1608,73
21.1979,118
21.2351,107
21.2722,106
21.3094,125
21.3465,170
21.3837,119
21.4208,128
21.4580,76
21.4951,69
21.5323,77
21.5694,52
21.6066,78
21.6437,85
21.6809,76
21.7180,55
21.7552,68
21.7923,68
21.8295,79
21.8666,60
21.9038,78
21.9409,50
21.9781,85
22.0152,78
22.0524,72
22.0896,59
22.1267,67
22.1639,72
22.2010,69
22.2382,81
22.2753,76
22.3125,75
22.3496,90
22.3868,63
22.4239,80
22.4611,69
22.4982,65
22.5354,73
22.5725,58
22.6097,63
22.6468,69
22.6840,94
22.7211,88
22.7583,82
22.7954,73
22.8326,72
22.8697,69
22.9069,62
22.9440,67
22.9812,77
23.0183,66
23.0555,75
23.0926,62
23.1298,81
23.1669,70
23.2041,79
23.2412,79
23.2784,78
23.3155,75
23.3527,70
23.3898,80
23.4270,74
23.4641,80
23.5013,85
23.5384,70
23.5756,69
23.6128,67
23.6499,62
23.6871,59
23.7242,73
23.7614,69
23.7985,81
23.8357,83
23.8728,83
23.9100,77
23.9471,72
23.9843,82
24.0214,62
24.0586,77
24.0957,67
24.1329,71
24.1700,69
24.2072,76
24.2443,75
24.2815,106
24.3186,88
24.3558,90
24.3929,75
24.4301,76
24.4672,75
24.5044,79
24.5415,76
24.5787,78
24.6158,70
24.6530,80
24.6901,59
24.7273,79
24.7644,72
24.8016,81
24.8387,87
24.8759,78
24.9130,64
24.9502,80
24.9873,79
25.0245,72
25.0616,64
25.0988,60
25.1360,65
25.1731,71
25.2103,71
25.2474,57
25.2846,68
25.3217,78
25.3589,76
25.3960,78
25.4332,71
25.4703,60
25.5075,69
25.5446,76
25.5818,79
25.6189,58
25.6561,68
25.6932,67
25.7304,67
25.7675,81
25.8047,82
25.8418,68
25.8790,57
25.9161,65
25.9533,70
25.9904,64
26.0276,57
26.0647,74
26.1019,66
26.1390,67
26.1762,64
26.2133,61
26.2505,70
26.2876,67
26.3248,76
26.3619,79
26.3991,69
26.4362,68
26.4734,79
26.5105,62
26.5477,62
26.5848,73
26.6220,69
26.6591,66
26.6963,66
26.7335,69
26.7706,66
26.8078,76
26.8449,57
26.8821,68
26.9192,66
26.9564,74
26.9935,74
27.0307,86
27.0678,55
27.1050,74
27.1421,60
27.1793,81
27.2164,77
27.2536,98
27.2907,83
27.3279,63
27.3650,63
27.4022,66
27.4393,56
27.4765,80
27.5136,67
27.5508,83
27.5879,74
27.6251,77
27.6622,77
27.6994,66
27.7365,61
27.7737,58
27.8108,64
27.8480,42
27.8851,68
27.9223,68
27.9594,56
27.9966,71
28.0337,58
28.0709,63
28.1080,65
28.1452,63
28.1823,60
28.2195,61
28.2567,68
28.2938,81
28.3310,71
28.3681,57
28.4053,61
28.4424,52
28.4796,51
28.5167,86
28.5539,65
28.5910,62
28.6282,57
28.6653,59
28.7025,51
28.7396,54
28.7768,71
28.8139,58
28.8511,52
28.8882,46
28.9254,55
28.9625,61
28.9997,68
29.0368,78
29.0740,57
29.1111,66
29.1483,55
29.1854,58
29.2226,57
29.2597,57
29.2969,51
29.3340,56
29.3712,47
29.4083,56
29.4455,62
29.4826,70
29.5198,62
29.5569,59
29.5941,60
29.6312,58
29.6684,63
29.7055,46
29.7427,61
29.7799,64
29.8170,50
29.8542,48
29.8913,53
29.9285,44
29.9656,62
30.0028,63
30.0399,41
30.0771,58
30.1142,58
30.1514,71
30.1885,60
30.2257,64
30.2628,71
30.3000,65
30.3371,70
30.3743,114
30.4114,97
30.4486,88
30.4857,72
30.5229,55
30.5600,67
30.5972,57
30.6343,63
30.6715,64
30.7086,44
30.7458,40
30.7829,56
30.8201,63
30.8572,48
30.8944,59
30.9315,60
30.9687,42
31.0058,63
31.0430,56
31.0801,55
31.1173,33
31.1544,59
31.1916,51
31.2287,57
31.2659,54
31.3030,49
31.3402,49
31.3774,48
31.4145,45
31.4517,47
31.4888,57
31.5260,48
31.5631,52
31.6003,41
31.6374,51
31.6746,54
31.7117,54
31.7489,44
31.7860,52
31.8232,58
31.8603,44
31.8975,39
31.9346,58
31.9718,46
32.0089,48
32.0461,60
32.0832,60
32.1204,45
32.1575,51
32.1947,36
32.2318,52
32.2690,37
32.3061,51
32.3433,38
32.3804,44
32.4176,53
32.4547,57
32.4919,62
32.5290,53
32.5662,56
32.6033,67
32.6405,47
32.6776,45
32.7148,44
32.7519,45
32.7891,45
32.8262,49
32.8634,36
32.9006,50
32.9377,37
32.9749,43
33.0120,43
33.0492,31
33.0863,59
33.1235,32
33.1606,33
33.1978,36
33.2349,48
33.2721,56
33.3092,42
33.3464,36
33.3835,36
33.4207,36
33.4578,46
33.4950,45
33.5321,50
33.5693,64
33.6064,21
33.6436,38
33.6807,41
33.7179,54
33.7550,39
33.7922,43
33.8293,38
33.8665,42
33.9036,33
33.9408,37
33.9779,36
34.0151,44
34.0522,47
34.0894,42
34.1265,38
34.1637,37
34.2008,55
34.2380,47
34.2751,48
34.3123,47
34.3494,41
34.3866,39
34.4238,39
34.4609,31
34.4981,44
34.5352,35
34.5724,41
34.6095,38
34.6467,45
34.6838,51
34.7210,44
34.7581,60
34.7953,59
34.8324,37
34.8696,47
34.9067,42
34.9439,37
34.9810,45
35.0182,45
35.0553,47
35.0925,31
35.1296,44
35.1668,31
35.2039,32
35.2411,35
35.2782,52
35.3154,35
35.3525,39
35.3897,40
35.4268,45
35.4640,41
35.5011,39
35.5383,33
35.5754,45
35.6126,36
35.6497,34
35.6869,46
35.7240,33
35.7612,42
35.7983,39
35.8355,34
35.8726,30
35.9098,42
35.9469,40
35.9841,28
36.0213,47
36.0584,36
36.0956,36
36.1327,46
36.1699,37
36.2070,38
36.2442,39
36.2813,29
36.3185,33
36.3556,33
36.3928,34
36.4299,34
36.4671,42
36.5042,30
36.5414,35
36.5785,33
36.6157,27
36.6528,42
36.6900,28
36.7271,33
36.7643,34
36.8014,34
36.8386,34
36.8757,31
36.9129,31
36.9500,39
36.9872,36
37.0243,30
37.0615,35
37.0986,29
37.1358,30
37.1729,34
37.2101,36
37.2472,25
37.2844,34
37.3215,35
37.3587,49
37.3958,57
37.4330,60
37.4701,45
37.5073,42
37.5445,47
37.5816,45
37.6188,32
37.6559,40
37.6931,37
37.7302,37
37.7674,39
37.8045,42
37.8417,27
37.8788,26
37.9160,27
37.9531,34
37.9903,35
38.0274,21
38.0646,27
38.1017,32
38.1389,20
38.1760,30
38.2132,25
38.2503,33
38.2875,29
38.3246,34
38.3618,39
38.3989,36
38.4361,38
38.4732,27
38.5104,31
38.5475,41
38.5847,32
38.6218,33
38.6590,26
38.6961,38
38.7333,34
38.7704,34
38.8076,34
38.8447,34
38.8819,30
38.9190,37
38.9562,20
38.9933,23
39.0305,32
39.0677,36
39.1048,30
39.1420,17
39.1791,26
39.2163,38
39.2534,23
39.2906,31
39.3277,36
39.3649,26
39.4020,26
39.4392,24
39.4763,30
39.5135,26
39.5506,26
39.5878,33
39.6249,28
39.6621,31
39.6992,35
39.7364,20
39.7735,28
39.8107,38
39.8478,18
39.8850,32
39.9221,31
39.9593,32
39.9964,23
40.0336,20
40.0707,15
40.1079,35
40.1450,27
40.1822,28
40.2193,21
40.2565,22
40.2936,25
40.3308,29
40.3679,15
40.4051,30
40.4422,22
40.4794,28
40.5165,31
40.5537,26
40.5908,26
40.6280,24
40.6652,35
40.7023,32
40.7395,24
40.7766,24
40.8138,23
40.8509,26
40.8881,35
40.9252,31
40.9624,34
40.9995,29
41.0367,33
41.0738,25
41.1110,31
41.1481,29
41.1853,24
41.2224,31
41.2596,26
41.2967,37
41.3339,27
41.3710,21
41.4082,29
41.4453,28
41.4825,30
41.5196,21
41.5568,30
41.5939,17
41.6311,30
41.6682,14
41.7054,37
41.7425,29
41.7797,28
41.8168,24
41.8540,26
41.8911,39
41.9283,31
41.9654,22
42.0026,29
42.0397,24
42.0769,26
42.1140,40
42.1512,26
42.1884,31
42.2255,29
42.2627,24
42.2998,39
42.3370,26
42.3741,31
42.4113,26
42.4484,30
42.4856,31
42.5227,35
42.5599,27
42.5970,35
42.6342,28
42.6713,32
42.7085,30
42.7456,23
42.7828,25
42.8199,37
42.8571,18
42.8942,28
42.9314,31
42.9685,32
43.0057,20
43.0428,24
43.0800,26
43.1171,24
43.1543,23
43.1914,33
43.2286,40
43.2657,30
43.3029,32
43.3400,33
43.3772,26
43.4143,27
43.4515,22
43.4886,39
43.5258,53
43.5629,32
43.6001,31
43.6372,34
43.6744,39
43.7116,24
43.7487,27
43.7859,24
43.8230,25
43.8602,41
43.8973,33
43.9345,22
43.9716,25
44.0088,17
44.0459,17
44.0831,28
44.1202,32
44.1574,31
44.1945,26
44.2317,33
44.2688,24
44.3060,23
44.3431,26
44.3803,27
44.4174,30
44.4546,28
44.4917,25
44.5289,30
44.5660,25
44.6032,29
44.6403,31
44.6775,31
44.7146,24
44.7518,29
44.7889,24
44.8261,26
44.8632,24
44.9004,21
44.9375,25
44.9747,31
45.0118,23
45.0490,16
45.0861,27
45.1233,22
45.1604,26
45.1976,30
45.2347,25
45.2719,26
45.3091,29
45.3462,30
45.3834,23
45.4205,25
45.4577,24
45.4948,30
45.5320,31
45.5691,32
45.6063,24
45.6434,20
45.6806,31
45.7177,22
45.7549,22
45.7920,33
45.8292,26
45.8663,18
45.9035,19
45.9406,34
45.9778,27
46.0149,28
46.0521,18
46.0892,20
46.1264,21
46.1635,26
46.2007,17
46.2378,17
46.2750,29
46.3121,26
46.3493,25
46.3864,22
46.4236,33
46.4607,22
46.4979,23
46.5350,30
46.5722,22
46.6093,22
46.6465,27
46.6836,21
46.7208,20
46.7579,23
46.7951,34
46.8323,19
46.8694,25
46.9066,34
46.9437,25
46.9809,32
47.0180,20
47.0552,18
47.0923,27
47.1295,24
47.1666,19
47.2038,33
47.2409,16
47.2781,21
47.3152,27
47.3524,31
47.3895,20
47.4267,26
47.4638,24
47.5010,27
47.5381,27
47.5753,26
47.6124,27
47.6496,20
47.6867,27
47.7239,36
47.7610,18
47.7982,26
47.8353,20
47.8725,22
47.9096,22
47.9468,20
47.9839,29
48.0211,18
48.0582,30
48.0954,17
48.1325,23
48.1697,27
48.2068,20
48.2440,23
48.2811,22
48.3183,16
48.3555,21
48.3926,21
48.4298,19
48.4669,29
48.5041,21
48.5412,29
48.5784,34
48.6155,18
48.6527,31
48.6898,28
48.7270,25
48.7641,29
48.8013,20
48.8384,23
48.8756,21
48.9127,28
48.9499,46
48.9870,30
49.0242,23
49.0613,24
49.0985,39
49.1356,28
49.1728,23
49.2099,30
49.2471,25
49.2842,26
49.3214,25
49.3585,32
49.3957,31
49.4328,31
49.4700,24
49.5071,22
49.5443,24
49.5814,26
49.6186,22
49.6557,26
49.6929,19
49.7300,36
49.7672,26
49.8043,20
49.8415,26
49.8786,17
49.9158,20
49.9530,17
49.9901,24
50.0273,21
50.0644,25
50.1016,28
50.1387,19
50.1759,28
50.2130,26
50.2502,21
50.2873,24
50.3245,20
50.3616,27
50.3988,18
50.4359,19
50.4731,21
50.5102,14
50.5474,23
50.5845,23
50.6217,25
50.6588,17
50.6960,22
50.7331,15
50.7703,22
50.8074,24
50.8446,30
50.8817,26
50.9189,29
50.9560,24
50.9932,27
51.0303,25
51.0675,21
51.1046,19
51.1418,14
51.1789,15
51.2161,23
51.2532,18
51.2904,20
51.3275,18
51.3647,25
51.4018,23
51.4390,30
51.4762,24
51.5133,27
51.5505,19
51.5876,22
51.6248,21
51.6619,26
51.6991,32
51.7362,26
51.7734,22
51.8105,31
51.8477,23
51.8848,19
51.9220,25
51.9591,22
51.9963,27
52.0334,25
52.0706,20
52.1077,25
52.1449,18
52.1820,16
52.2192,17
52.2563,26
52.2935,19
52.3306,16
52.3678,13
52.4049,18
52.4421,22
52.4792,31
52.5164,22
52.5535,27
52.5907,21
52.6278,15
52.6650,22
52.7021,23
52.7393,26
52.7764,24
52.8136,28
52.8507,20
52.8879,27
52.9250,23
52.9622,18
52.9994,20
53.0365,19
53.0737,21
53.1108,20
53.1480,20
53.1851,19
53.2223,17
53.2594,18
53.2966,12
53.3337,26
53.3709,21
53.4080,24
53.4452,11
53.4823,26
53.5195,14
53.5566,19
53.5938,33
53.6309,19
53.6681,24
53.7052,19
53.7424,27
53.7795,31
53.8167,15
53.8538,21
53.8910,16
53.9281,25
53.9653,28
54.0024,32
54.0396,8
54.0767,22
54.1139,15
54.1510,35
54.1882,18
54.2253,22
54.2625,19
54.2996,23
54.3368,29
54.3739,20
54.4111,13
54.4482,28
54.4854,18
54.5225,17
54.5597,25
54.5969,16
54.6340,25
54.6712,21
54.7083,26
54.7455,22
54.7826,20
54.8198,26
54.8569,25
54.8941,20
54.9312,13
54.9684,24
55.0055,31
55.0427,17
55.0798,11
55.1170,26
55.1541,21
55.1913,19
55.2284,24
55.2656,16
55.3027,22
55.3399,26
55.3770,17
55.4142,25
55.4513,23
55.4885,24
55.5256,17
55.5628,18
55.5999,13
55.6371,28
55.6742,14
55.7114,13
55.7485,16
55.7857,14
55.8228,22
55.8600,19
55.8971,18
55.9343,28
55.9714,27
56.0086,20
56.0457,22
56.0829,27
56.1201,16
56.1572,21
56.1944,22
56.2315,21
56.2687,17
56.3058,24
56.3430,28
56.3801,29
56.4173,19
56.4544,21
56.4916,17
56.5287,18
56.5659,23
56.6030,21
56.6402,21
56.6773,23
56.7145,23
56.7516,28
56.7888,22
56.8259,14
56.8631,19
56.9002,22
56.9374,18
56.9745,20
57.0117,21
57.0488,15
57.0860,17
57.1231,19
57.1603,22
57.1974,21
57.2346,14
57.2717,24
57.3089,27
57.3460,20
57.3832,14
57.4203,13
57.4575,18
57.4946,25
57.5318,21
57.5689,24
57.6061,12
57.6433,26
57.6804,19
57.7176,24
57.7547,24
57.7919,14
57.8290,11
57.8662,15
57.9033,14
57.9405,18
57.9776,17
58.0148,12
58.0519,25
58.0891,23
58.1262,14
58.1634,24
58.2005,22
58.2377,27
58.2748,22
58.3120,31
58.3491,25
58.3863,20
58.4234,20
58.4606,24
58.4977,21
58.5349,30
58.5720,16
58.6092,24
58.6463,13
58.6835,19
58.7206,33
58.7578,22
58.7949,23
58.8321,21
58.8692,21
58.9064,17
58.9435,13
58.9807,18
59.0178,19
59.0550,9
59.0921,18
59.1293,25
59.1664,21
59.2036,19
59.2408,21
59.2779,27
59.3151,16
59.3522,11
59.3894,15
59.4265,10
59.4637,24
59.5008,18
59.5380,19
59.5751,22
59.6123,28
59.6494,27
59.6866,19
59.7237,13
59.7609,15
59.7980,21
59.8352,23
59.8723,16
59.9095,28
59.9466,27
59.9838,23
60.0024,19