File: notebooks/data/xrd_data/ML_20220721_16_SJD_4_LaB6-4min.csv
;,2THETA,
5.0000,278
5.0372,316
5.0743,251
5.1115,275
5.1486,269
5.1858,254
5.2229,264
5.2601,261
5.2972,245
5.3344,230
5.3715,246
5.4087,230
5.4458,227
5.4830,225
5.5201,252
5.5573,249
5.5944,226
5.6316,215
5.6687,232
5.7059,238
5.7430,206
5.7802,221
5.8173,220
5.8545,217
5.8916,210
5.9288,218
5.9659,223
6.0031,177
6.0402,187
6.0774,192
6.1145,200
6.1517,176
6.1888,195
6.2260,175
6.2631,178
6.3003,197
6.3374,188
6.3746,179
6.4117,184
6.4489,190
6.4860,184
6.5232,174
6.5604,189
6.5975,166
6.6347,174
6.6718,202
6.7090,171
6.7461,178
6.7833,195
6.8204,161
6.8576,144
6.8947,154
6.9319,144
6.9690,160
7.0062,165
7.0433,166
7.0805,146
7.1176,160
7.1548,165
7.1919,159
7.2291,175
7.2662,172
7.3034,171
7.3405,157
7.3777,153
7.4148,172
7.4520,154
7.4891,161
7.5263,178
7.5634,158
7.6006,184
7.6377,164
7.6749,156
7.7120,162
7.7492,179
7.7863,188
7.8235,170
7.8606,175
7.8978,189
7.9349,186
7.9721,192
8.0092,200
8.0464,188
8.0835,176
8.1207,224
8.1579,214
8.1950,172
8.2322,218
8.2693,191
8.3065,194
8.3436,205
8.3808,208
8.4179,198
8.4551,197
8.4922,193
8.5294,214
8.5665,204
8.6037,191
8.6408,189
8.6780,197
8.7151,190
8.7523,217
8.7894,211
8.8266,217
8.8637,202
8.9009,213
8.9380,209
8.9752,231
9.0123,207
9.0495,210
9.0866,194
9.1238,235
9.1609,232
9.1981,246
9.2352,193
9.2724,193
9.3095,223
9.3467,217
9.3838,229
9.4210,236
9.4581,209
9.4953,231
9.5324,244
9.5696,219
9.6067,228
9.6439,217
9.6811,242
9.7182,215
9.7554,225
9.7925,231
9.8297,216
9.8668,262
9.9040,257
9.9411,264
9.9783,235
10.0154,272
10.0526,247
10.0897,280
10.1269,242
10.1640,264
10.2012,273
10.2383,233
10.2755,246
10.3126,231
10.3498,288
10.3869,257
10.4241,229
10.4612,233
10.4984,247
10.5355,242
10.5727,257
10.6098,253
10.6470,245
10.6841,257
10.7213,234
10.7584,256
10.7956,234
10.8327,263
10.8699,236
10.9070,242
10.9442,260
10.9813,247
11.0185,275
11.0556,248
11.0928,254
11.1299,252
11.1671,238
11.2043,234
11.2414,236
11.2786,253
11.3157,235
11.3529,215
11.3900,230
11.4272,241
11.4643,262
11.5015,247
11.5386,208
11.5758,215
11.6129,260
11.6501,247
11.6872,240
11.7244,230
11.7615,252
11.7987,235
11.8358,244
11.8730,276
11.9101,240
11.9473,219
11.9844,235
12.0216,236
12.0587,240
12.0959,226
12.1330,230
12.1702,232
12.2073,212
12.2445,243
12.2816,201
12.3188,229
12.3559,212
12.3931,217
12.4302,246
12.4674,242
12.5045,233
12.5417,208
12.5788,226
12.6160,221
12.6531,198
12.6903,212
12.7274,183
12.7646,208
12.8018,233
12.8389,208
12.8761,196
12.9132,175
12.9504,192
12.9875,196
13.0247,220
13.0618,183
13.0990,221
13.1361,212
13.1733,206
13.2104,186
13.2476,200
13.2847,232
13.3219,195
13.3590,201
13.3962,199
13.4333,197
13.4705,208
13.5076,203
13.5448,218
13.5819,231
13.6191,181
13.6562,186
13.6934,187
13.7305,192
13.7677,200
13.8048,187
13.8420,167
13.8791,184
13.9163,187
13.9534,212
13.9906,184
14.0277,168
14.0649,190
14.1020,190
14.1392,184
14.1763,173
14.2135,184
14.2506,193
14.2878,183
14.3250,201
14.3621,185
14.3993,180
14.4364,173
14.4736,174
14.5107,189
14.5479,186
14.5850,154
14.6222,177
14.6593,178
14.6965,190
14.7336,168
14.7708,148
14.8079,163
14.8451,176
14.8822,187
14.9194,161
14.9565,150
14.9937,181
15.0308,186
15.0680,170
15.1051,166
15.1423,168
15.1794,186
15.2166,168
15.2537,164
15.2909,187
15.3280,182
15.3652,136
15.4023,166
15.4395,165
15.4766,158
15.5138,147
15.5509,164
15.5881,154
15.6252,177
15.6624,158
15.6995,155
15.7367,159
15.7738,166
15.8110,167
15.8482,146
15.8853,151
15.9225,173
15.9596,171
15.9968,196
16.0339,145
16.0711,149
16.1082,187
16.1454,173
16.1825,169
16.2197,188
16.2568,199
16.2940,157
16.3311,154
16.3683,162
16.4054,156
16.4426,153
16.4797,159
16.5169,156
16.5540,161
16.5912,154
16.6283,159
16.6655,173
16.7026,152
16.7398,152
16.7769,152
16.8141,162
16.8512,157
16.8884,165
16.9255,164
16.9627,158
16.9998,151
17.0370,137
17.0741,156
17.1113,149
17.1484,154
17.1856,170
17.2227,152
17.2599,168
17.2970,161
17.3342,165
17.3713,178
17.4085,157
17.4457,162
17.4828,167
17.5200,155
17.5571,153
17.5943,188
17.6314,168
17.6686,145
17.7057,157
17.7429,174
17.7800,160
17.8172,162
17.8543,162
17.8915,150
17.9286,153
17.9658,174
18.0029,150
18.0401,146
18.0772,165
18.1144,168
18.1515,150
18.1887,158
18.2258,154
18.2630,172
18.3001,178
18.3373,163
18.3744,204
18.4116,175
18.4487,168
18.4859,184
18.5230,165
18.5602,159
18.5973,174
18.6345,187
18.6716,161
18.7088,190
18.7459,152
18.7831,160
18.8202,135
18.8574,178
18.8945,159
18.9317,189
18.9689,180
19.0060,181
19.0432,179
19.0803,175
19.1175,147
19.1546,165
19.1918,184
19.2289,173
19.2661,175
19.3032,169
19.3404,156
19.3775,173
19.4147,177
19.4518,169
19.4890,187
19.5261,178
19.5633,153
19.6004,170
19.6376,172
19.6747,193
19.7119,167
19.7490,203
19.7862,191
19.8233,174
19.8605,188
19.8976,203
19.9348,191
19.9719,167
20.0091,198
20.0462,177
20.0834,171
20.1205,162
20.1577,194
20.1948,179
20.2320,185
20.2691,183
20.3063,197
20.3434,171
20.3806,174
20.4177,182
20.4549,172
20.4921,184
20.5292,194
20.5664,219
20.6035,191
20.6407,206
20.6778,193
20.7150,191
20.7521,203
20.7893,184
20.8264,174
20.8636,201
20.9007,204
20.9379,196
20.9750,179
21.0122,185
21.0493,211
21.0865,225
21.1236,204
21.1608,217
21.1979,284
21.2351,332
21.2722,323
21.3094,324
21.3465,520
21.3837,407
21.4208,397
21.4580,233
21.4951,199
21.5323,235
21.5694,163
21.6066,212
21.6437,196
21.6809,211
21.7180,203
21.7552,201
21.7923,205
21.8295,196
21.8666,208
21.9038,217
21.9409,189
21.9781,181
22.0152,194
22.0524,212
22.0896,189
22.1267,173
22.1639,208
22.2010,202
22.2382,187
22.2753,200
22.3125,199
22.3496,196
22.3868,185
22.4239,217
22.4611,191
22.4982,209
22.5354,214
22.5725,195
22.6097,185
22.6468,199
22.6840,199
22.7211,216
22.7583,187
22.7954,193
22.8326,195
22.8697,193
22.9069,204
22.9440,184
22.9812,197
23.0183,180
23.0555,176
23.0926,214
23.1298,183
23.1669,189
23.2041,202
23.2412,188
23.2784,229
23.3155,220
23.3527,191
23.3898,201
23.4270,190
23.4641,190
23.5013,204
23.5384,206
23.5756,209
23.6128,199
23.6499,217
23.6871,211
23.7242,206
23.7614,211
23.7985,225
23.8357,198
23.8728,192
23.9100,205
23.9471,199
23.9843,214
24.0214,190
24.0586,224
24.0957,212
24.1329,232
24.1700,213
24.2072,209
24.2443,202
24.2815,228
24.3186,219
24.3558,214
24.3929,208
24.4301,191
24.4672,197
24.5044,229
24.5415,208
24.5787,217
24.6158,216
24.6530,212
24.6901,201
24.7273,210
24.7644,225
24.8016,192
24.8387,186
24.8759,215
24.9130,209
24.9502,210
24.9873,202
25.0245,192
25.0616,189
25.0988,197
25.1360,232
25.1731,198
25.2103,217
25.2474,193
25.2846,209
25.3217,208
25.3589,215
25.3960,207
25.4332,213
25.4703,202
25.5075,187
25.5446,197
25.5818,211
25.6189,209
25.6561,203
25.6932,165
25.7304,213
25.7675,173
25.8047,189
25.8418,216
25.8790,219
25.9161,203
25.9533,176
25.9904,195
26.0276,195
26.0647,233
26.1019,194
26.1390,207
26.1762,180
26.2133,183
26.2505,186
26.2876,183
26.3248,197
26.3619,195
26.3991,195
26.4362,196
26.4734,188
26.5105,192
26.5477,193
26.5848,212
26.6220,193
26.6591,191
26.6963,184
26.7335,180
26.7706,188
26.8078,192
26.8449,196
26.8821,184
26.9192,188
26.9564,186
26.9935,217
27.0307,178
27.0678,204
27.1050,190
27.1421,224
27.1793,250
27.2164,262
27.2536,204
27.2907,205
27.3279,193
27.3650,189
27.4022,203
27.4393,202
27.4765,220
27.5136,170
27.5508,211
27.5879,190
27.6251,176
27.6622,183
27.6994,196
27.7365,182
27.7737,154
27.8108,187
27.8480,175
27.8851,159
27.9223,148
27.9594,217
27.9966,194
28.0337,176
28.0709,178
28.1080,169
28.1452,174
28.1823,168
28.2195,158
28.2567,166
28.2938,150
28.3310,164
28.3681,169
28.4053,184
28.4424,168
28.4796,178
28.5167,180
28.5539,168
28.5910,162
28.6282,168
28.6653,174
28.7025,158
28.7396,185
28.7768,181
28.8139,142
28.8511,167
28.8882,165
28.9254,181
28.9625,176
28.9997,166
29.0368,182
29.0740,141
29.1111,139
29.1483,158
29.1854,162
29.2226,157
29.2597,176
29.2969,170
29.3340,161
29.3712,146
29.4083,174
29.4455,153
29.4826,168
29.5198,162
29.5569,181
29.5941,169
29.6312,133
29.6684,175
29.7055,183
29.7427,152
29.7799,155
29.8170,165
29.8542,139
29.8913,156
29.9285,153
29.9656,183
30.0028,151
30.0399,127
30.0771,152
30.1142,179
30.1514,143
30.1885,155
30.2257,174
30.2628,191
30.3000,155
30.3371,212
30.3743,335
30.4114,281
30.4486,256
30.4857,216
30.5229,175
30.5600,183
30.5972,152
30.6343,151
30.6715,170
30.7086,126
30.7458,160
30.7829,137
30.8201,160
30.8572,153
30.8944,157
30.9315,134
30.9687,149
31.0058,124
31.0430,168
31.0801,143
31.1173,143
31.1544,161
31.1916,119
31.2287,136
31.2659,145
31.3030,153
31.3402,134
31.3774,146
31.4145,142
31.4517,148
31.4888,151
31.5260,132
31.5631,129
31.6003,140
31.6374,124
31.6746,138
31.7117,133
31.7489,159
31.7860,109
31.8232,119
31.8603,134
31.8975,146
31.9346,174
31.9718,115
32.0089,144
32.0461,122
32.0832,135
32.1204,124
32.1575,131
32.1947,132
32.2318,140
32.2690,132
32.3061,113
32.3433,121
32.3804,137
32.4176,155
32.4547,177
32.4919,135
32.5290,135
32.5662,131
32.6033,142
32.6405,139
32.6776,136
32.7148,117
32.7519,120
32.7891,134
32.8262,136
32.8634,128
32.9006,112
32.9377,145
32.9749,139
33.0120,117
33.0492,118
33.0863,117
33.1235,116
33.1606,141
33.1978,121
33.2349,119
33.2721,104
33.3092,110
33.3464,132
33.3835,140
33.4207,107
33.4578,108
33.4950,106
33.5321,127
33.5693,110
33.6064,132
33.6436,109
33.6807,100
33.7179,107
33.7550,91
33.7922,130
33.8293,117
33.8665,121
33.9036,106
33.9408,114
33.9779,104
34.0151,116
34.0522,78
34.0894,115
34.1265,114
34.1637,111
34.2008,112
34.2380,124
34.2751,125
34.3123,98
34.3494,120
34.3866,98
34.4238,123
34.4609,120
34.4981,119
34.5352,112
34.5724,121
34.6095,135
34.6467,138
34.6838,115
34.7210,132
34.7581,170
34.7953,135
34.8324,143
34.8696,133
34.9067,102
34.9439,118
34.9810,105
35.0182,95
35.0553,113
35.0925,92
35.1296,123
35.1668,109
35.2039,119
35.2411,109
35.2782,116
35.3154,110
35.3525,106
35.3897,105
35.4268,114
35.4640,127
35.5011,89
35.5383,116
35.5754,108
35.6126,105
35.6497,109
35.6869,106
35.7240,95
35.7612,122
35.7983,93
35.8355,110
35.8726,94
35.9098,118
35.9469,99
35.9841,115
36.0213,103
36.0584,96
36.0956,85
36.1327,99
36.1699,99
36.2070,112
36.2442,105
36.2813,98
36.3185,97
36.3556,107
36.3928,91
36.4299,86
36.4671,86
36.5042,100
36.5414,95
36.5785,82
36.6157,103
36.6528,91
36.6900,105
36.7271,104
36.7643,83
36.8014,89
36.8386,97
36.8757,95
36.9129,94
36.9500,85
36.9872,89
37.0243,101
37.0615,88
37.0986,111
37.1358,88
37.1729,75
37.2101,93
37.2472,99
37.2844,93
37.3215,106
37.3587,101
37.3958,124
37.4330,158
37.4701,133
37.5073,115
37.5445,125
37.5816,83
37.6188,84
37.6559,72
37.6931,107
37.7302,72
37.7674,75
37.8045,102
37.8417,92
37.8788,82
37.9160,93
37.9531,91
37.9903,111
38.0274,75
38.0646,82
38.1017,96
38.1389,73
38.1760,79
38.2132,84
38.2503,85
38.2875,89
38.3246,73
38.3618,112
38.3989,94
38.4361,85
38.4732,95
38.5104,96
38.5475,92
38.5847,91
38.6218,69
38.6590,73
38.6961,70
38.7333,90
38.7704,81
38.8076,99
38.8447,90
38.8819,84
38.9190,97
38.9562,82
38.9933,66
39.0305,96
39.0677,89
39.1048,66
39.1420,68
39.1791,76
39.2163,71
39.2534,100
39.2906,101
39.3277,85
39.3649,71
39.4020,67
39.4392,66
39.4763,84
39.5135,83
39.5506,81
39.5878,95
39.6249,81
39.6621,72
39.6992,66
39.7364,77
39.7735,69
39.8107,70
39.8478,80
39.8850,88
39.9221,89
39.9593,65
39.9964,75
40.0336,85
40.0707,82
40.1079,72
40.1450,67
40.1822,94
40.2193,79
40.2565,79
40.2936,73
40.3308,74
40.3679,96
40.4051,67
40.4422,88
40.4794,60
40.5165,85
40.5537,69
40.5908,73
40.6280,73
40.6652,80
40.7023,62
40.7395,69
40.7766,73
40.8138,75
40.8509,83
40.8881,83
40.9252,77
40.9624,86
40.9995,87
41.0367,78
41.0738,102
41.1110,81
41.1481,87
41.1853,78
41.2224,71
41.2596,86
41.2967,66
41.3339,71
41.3710,81
41.4082,69
41.4453,70
41.4825,76
41.5196,98
41.5568,79
41.5939,74
41.6311,80
41.6682,80
41.7054,81
41.7425,69
41.7797,73
41.8168,68
41.8540,66
41.8911,76
41.9283,78
41.9654,65
42.0026,74
42.0397,71
42.0769,82
42.1140,82
42.1512,74
42.1884,98
42.2255,83
42.2627,71
42.2998,63
42.3370,87
42.3741,86
42.4113,86
42.4484,83
42.4856,68
42.5227,71
42.5599,87
42.5970,67
42.6342,57
42.6713,67
42.7085,69
42.7456,73
42.7828,66
42.8199,72
42.8571,70
42.8942,70
42.9314,75
42.9685,74
43.0057,79
43.0428,87
43.0800,73
43.1171,80
43.1543,79
43.1914,84
43.2286,106
43.2657,89
43.3029,92
43.3400,92
43.3772,92
43.4143,72
43.4515,94
43.4886,108
43.5258,105
43.5629,76
43.6001,98
43.6372,94
43.6744,86
43.7116,62
43.7487,79
43.7859,78
43.8230,86
43.8602,93
43.8973,79
43.9345,63
43.9716,73
44.0088,64
44.0459,72
44.0831,74
44.1202,90
44.1574,73
44.1945,58
44.2317,67
44.2688,88
44.3060,79
44.3431,76
44.3803,70
44.4174,73
44.4546,68
44.4917,81
44.5289,73
44.5660,68
44.6032,72
44.6403,73
44.6775,89
44.7146,75
44.7518,91
44.7889,64
44.8261,76
44.8632,67
44.9004,74
44.9375,61
44.9747,64
45.0118,69
45.0490,78
45.0861,75
45.1233,82
45.1604,80
45.1976,66
45.2347,63
45.2719,73
45.3091,70
45.3462,82
45.3834,90
45.4205,80
45.4577,76
45.4948,60
45.5320,78
45.5691,72
45.6063,70
45.6434,59
45.6806,76
45.7177,57
45.7549,69
45.7920,73
45.8292,70
45.8663,62
45.9035,65
45.9406,68
45.9778,58
46.0149,71
46.0521,59
46.0892,67
46.1264,59
46.1635,78
46.2007,68
46.2378,72
46.2750,64
46.3121,77
46.3493,78
46.3864,69
46.4236,62
46.4607,63
46.4979,59
46.5350,62
46.5722,67
46.6093,70
46.6465,67
46.6836,87
46.7208,82
46.7579,58
46.7951,64
46.8323,76
46.8694,62
46.9066,67
46.9437,57
46.9809,76
47.0180,83
47.0552,61
47.0923,54
47.1295,84
47.1666,69
47.2038,53
47.2409,59
47.2781,56
47.3152,58
47.3524,61
47.3895,71
47.4267,75
47.4638,69
47.5010,57
47.5381,83
47.5753,67
47.6124,67
47.6496,78
47.6867,60
47.7239,63
47.7610,61
47.7982,64
47.8353,73
47.8725,54
47.9096,64
47.9468,72
47.9839,72
48.0211,74
48.0582,61
48.0954,56
48.1325,56
48.1697,66
48.2068,87
48.2440,68
48.2811,72
48.3183,71
48.3555,70
48.3926,73
48.4298,57
48.4669,60
48.5041,77
48.5412,68
48.5784,55
48.6155,59
48.6527,56
48.6898,87
48.7270,55
48.7641,66
48.8013,67
48.8384,69
48.8756,69
48.9127,85
48.9499,107
48.9870,83
49.0242,81
49.0613,74
49.0985,114
49.1356,69
49.1728,58
49.2099,71
49.2471,64
49.2842,72
49.3214,51
49.3585,70
49.3957,69
49.4328,65
49.4700,66
49.5071,46
49.5443,60
49.5814,63
49.6186,52
49.6557,49
49.6929,71
49.7300,60
49.7672,53
49.8043,72
49.8415,60
49.8786,61
49.9158,58
49.9530,60
49.9901,64
50.0273,65
50.0644,67
50.1016,70
50.1387,54
50.1759,60
50.2130,72
50.2502,51
50.2873,72
50.3245,64
50.3616,55
50.3988,79
50.4359,63
50.4731,55
50.5102,60
50.5474,61
50.5845,66
50.6217,55
50.6588,69
50.6960,69
50.7331,64
50.7703,60
50.8074,59
50.8446,55
50.8817,60
50.9189,60
50.9560,56
50.9932,59
51.0303,65
51.0675,61
51.1046,73
51.1418,71
51.1789,59
51.2161,74
51.2532,53
51.2904,69
51.3275,64
51.3647,65
51.4018,62
51.4390,65
51.4762,70
51.5133,66
51.5505,65
51.5876,62
51.6248,68
51.6619,71
51.6991,64
51.7362,63
51.7734,61
51.8105,66
51.8477,64
51.8848,65
51.9220,62
51.9591,63
51.9963,58
52.0334,62
52.0706,69
52.1077,59
52.1449,60
52.1820,58
52.2192,48
52.2563,61
52.2935,53
52.3306,80
52.3678,58
52.4049,63
52.4421,63
52.4792,57
52.5164,74
52.5535,62
52.5907,61
52.6278,67
52.6650,66
52.7021,42
52.7393,55
52.7764,69
52.8136,53
52.8507,66
52.8879,61
52.9250,59
52.9622,63
52.9994,71
53.0365,69
53.0737,57
53.1108,50
53.1480,55
53.1851,53
53.2223,60
53.2594,55
53.2966,58
53.3337,61
53.3709,59
53.4080,57
53.4452,66
53.4823,53
53.5195,39
53.5566,57
53.5938,52
53.6309,53
53.6681,70
53.7052,69
53.7424,55
53.7795,58
53.8167,66
53.8538,56
53.8910,80
53.9281,48
53.9653,49
54.0024,80
54.0396,58
54.0767,67
54.1139,65
54.1510,79
54.1882,58
54.2253,61
54.2625,48
54.2996,58
54.3368,58
54.3739,60
54.4111,66
54.4482,47
54.4854,62
54.5225,52
54.5597,62
54.5969,73
54.6340,64
54.6712,49
54.7083,59
54.7455,59
54.7826,63
54.8198,62
54.8569,53
54.8941,50
54.9312,61
54.9684,47
55.0055,66
55.0427,66
55.0798,65
55.1170,52
55.1541,59
55.1913,72
55.2284,55
55.2656,52
55.3027,53
55.3399,63
55.3770,59
55.4142,55
55.4513,54
55.4885,50
55.5256,48
55.5628,62
55.5999,57
55.6371,63
55.6742,63
55.7114,63
55.7485,53
55.7857,70
55.8228,67
55.8600,46
55.8971,58
55.9343,55
55.9714,47
56.0086,68
56.0457,61
56.0829,57
56.1201,57
56.1572,63
56.1944,69
56.2315,59
56.2687,62
56.3058,59
56.3430,65
56.3801,65
56.4173,58
56.4544,48
56.4916,60
56.5287,70
56.5659,52
56.6030,58
56.6402,48
56.6773,58
56.7145,59
56.7516,63
56.7888,49
56.8259,52
56.8631,49
56.9002,50
56.9374,46
56.9745,51
57.0117,58
57.0488,47
57.0860,50
57.1231,61
57.1603,52
57.1974,62
57.2346,49
57.2717,53
57.3089,65
57.3460,56
57.3832,57
57.4203,63
57.4575,59
57.4946,56
57.5318,51
57.5689,65
57.6061,51
57.6433,57
57.6804,66
57.7176,55
57.7547,60
57.7919,57
57.8290,51
57.8662,66
57.9033,53
57.9405,57
57.9776,66
58.0148,59
58.0519,51
58.0891,59
58.1262,66
58.1634,37
58.2005,50
58.2377,61
58.2748,75
58.3120,58
58.3491,38
58.3863,56
58.4234,54
58.4606,62
58.4977,58
58.5349,67
58.5720,51
58.6092,52
58.6463,55
58.6835,59
58.7206,62
58.7578,54
58.7949,56
58.8321,46
58.8692,60
58.9064,63
58.9435,54
58.9807,53
59.0178,60
59.0550,47
59.0921,56
59.1293,59
59.1664,56
59.2036,50
59.2408,57
59.2779,65
59.3151,47
59.3522,54
59.3894,38
59.4265,40
59.4637,51
59.5008,58
59.5380,49
59.5751,53
59.6123,50
59.6494,48
59.6866,71
59.7237,47
59.7609,52
59.7980,51
59.8352,57
59.8723,51
59.9095,49
59.9466,58
59.9838,45
60.0024,52