File: notebooks/data/xrd_data/ML_20220718_51_SJD_4_LaB6-1min.csv
;,2THETA,
5.0000,88
5.0372,89
5.0743,99
5.1115,88
5.1486,80
5.1858,99
5.2229,86
5.2601,82
5.2972,97
5.3344,91
5.3715,89
5.4087,86
5.4458,85
5.4830,76
5.5201,87
5.5573,91
5.5944,84
5.6316,86
5.6687,73
5.7059,69
5.7430,72
5.7802,77
5.8173,76
5.8545,71
5.8916,70
5.9288,81
5.9659,70
6.0031,74
6.0402,68
6.0774,65
6.1145,77
6.1517,64
6.1888,69
6.2260,63
6.2631,68
6.3003,77
6.3374,89
6.3746,63
6.4117,66
6.4489,70
6.4860,53
6.5232,56
6.5604,63
6.5975,66
6.6347,72
6.6718,60
6.7090,73
6.7461,67
6.7833,58
6.8204,73
6.8576,71
6.8947,62
6.9319,54
6.9690,59
7.0062,57
7.0433,56
7.0805,65
7.1176,42
7.1548,53
7.1919,63
7.2291,56
7.2662,44
7.3034,60
7.3405,48
7.3777,65
7.4148,51
7.4520,54
7.4891,55
7.5263,60
7.5634,51
7.6006,65
7.6377,53
7.6749,66
7.7120,71
7.7492,61
7.7863,63
7.8235,69
7.8606,70
7.8978,65
7.9349,72
7.9721,69
8.0092,76
8.0464,71
8.0835,72
8.1207,57
8.1579,52
8.1950,68
8.2322,60
8.2693,62
8.3065,66
8.3436,70
8.3808,65
8.4179,73
8.4551,75
8.4922,90
8.5294,74
8.5665,86
8.6037,70
8.6408,71
8.6780,78
8.7151,62
8.7523,58
8.7894,78
8.8266,79
8.8637,85
8.9009,79
8.9380,98
8.9752,76
9.0123,86
9.0495,79
9.0866,61
9.1238,82
9.1609,67
9.1981,82
9.2352,80
9.2724,83
9.3095,94
9.3467,73
9.3838,89
9.4210,75
9.4581,87
9.4953,71
9.5324,75
9.5696,84
9.6067,73
9.6439,83
9.6811,84
9.7182,59
9.7554,75
9.7925,68
9.8297,91
9.8668,79
9.9040,109
9.9411,92
9.9783,81
10.0154,84
10.0526,115
10.0897,82
10.1269,104
10.1640,96
10.2012,87
10.2383,103
10.2755,97
10.3126,92
10.3498,73
10.3869,78
10.4241,86
10.4612,83
10.4984,87
10.5355,90
10.5727,103
10.6098,80
10.6470,93
10.6841,98
10.7213,88
10.7584,88
10.7956,81
10.8327,77
10.8699,92
10.9070,111
10.9442,86
10.9813,85
11.0185,96
11.0556,82
11.0928,90
11.1299,86
11.1671,94
11.2043,69
11.2414,86
11.2786,92
11.3157,87
11.3529,93
11.3900,82
11.4272,104
11.4643,99
11.5015,83
11.5386,103
11.5758,74
11.6129,98
11.6501,84
11.6872,88
11.7244,78
11.7615,90
11.7987,74
11.8358,92
11.8730,86
11.9101,77
11.9473,82
11.9844,82
12.0216,90
12.0587,86
12.0959,84
12.1330,91
12.1702,71
12.2073,83
12.2445,93
12.2816,88
12.3188,76
12.3559,75
12.3931,73
12.4302,99
12.4674,74
12.5045,76
12.5417,83
12.5788,83
12.6160,71
12.6531,73
12.6903,76
12.7274,83
12.7646,86
12.8018,90
12.8389,81
12.8761,90
12.9132,92
12.9504,80
12.9875,74
13.0247,61
13.0618,77
13.0990,73
13.1361,77
13.1733,72
13.2104,65
13.2476,70
13.2847,72
13.3219,75
13.3590,81
13.3962,83
13.4333,63
13.4705,59
13.5076,65
13.5448,63
13.5819,70
13.6191,61
13.6562,59
13.6934,83
13.7305,80
13.7677,82
13.8048,58
13.8420,74
13.8791,64
13.9163,74
13.9534,64
13.9906,65
14.0277,68
14.0649,78
14.1020,65
14.1392,68
14.1763,70
14.2135,67
14.2506,66
14.2878,71
14.3250,65
14.3621,66
14.3993,55
14.4364,70
14.4736,75
14.5107,62
14.5479,66
14.5850,59
14.6222,63
14.6593,61
14.6965,63
14.7336,61
14.7708,58
14.8079,58
14.8451,60
14.8822,66
14.9194,56
14.9565,60
14.9937,67
15.0308,63
15.0680,59
15.1051,56
15.1423,45
15.1794,61
15.2166,72
15.2537,59
15.2909,50
15.3280,70
15.3652,56
15.4023,66
15.4395,61
15.4766,48
15.5138,50
15.5509,45
15.5881,62
15.6252,57
15.6624,63
15.6995,42
15.7367,60
15.7738,58
15.8110,77
15.8482,70
15.8853,61
15.9225,58
15.9596,65
15.9968,63
16.0339,62
16.0711,61
16.1082,61
16.1454,76
16.1825,50
16.2197,70
16.2568,55
16.2940,61
16.3311,57
16.3683,65
16.4054,58
16.4426,58
16.4797,66
16.5169,57
16.5540,70
16.5912,52
16.6283,61
16.6655,63
16.7026,60
16.7398,61
16.7769,67
16.8141,60
16.8512,43
16.8884,52
16.9255,51
16.9627,55
16.9998,49
17.0370,68
17.0741,39
17.1113,62
17.1484,58
17.1856,52
17.2227,59
17.2599,63
17.2970,48
17.3342,46
17.3713,61
17.4085,72
17.4457,58
17.4828,49
17.5200,52
17.5571,61
17.5943,58
17.6314,53
17.6686,50
17.7057,55
17.7429,72
17.7800,53
17.8172,54
17.8543,59
17.8915,68
17.9286,73
17.9658,59
18.0029,76
18.0401,64
18.0772,50
18.1144,57
18.1515,58
18.1887,75
18.2258,48
18.2630,64
18.3001,58
18.3373,51
18.3744,70
18.4116,60
18.4487,62
18.4859,54
18.5230,65
18.5602,65
18.5973,74
18.6345,58
18.6716,66
18.7088,55
18.7459,60
18.7831,59
18.8202,54
18.8574,52
18.8945,54
18.9317,73
18.9689,77
19.0060,64
19.0432,64
19.0803,71
19.1175,59
19.1546,65
19.1918,67
19.2289,63
19.2661,59
19.3032,69
19.3404,59
19.3775,69
19.4147,56
19.4518,60
19.4890,70
19.5261,66
19.5633,59
19.6004,57
19.6376,51
19.6747,69
19.7119,63
19.7490,71
19.7862,72
19.8233,60
19.8605,65
19.8976,60
19.9348,60
19.9719,59
20.0091,65
20.0462,73
20.0834,63
20.1205,58
20.1577,62
20.1948,55
20.2320,84
20.2691,70
20.3063,56
20.3434,51
20.3806,66
20.4177,52
20.4549,55
20.4921,52
20.5292,80
20.5664,67
20.6035,63
20.6407,70
20.6778,83
20.7150,56
20.7521,83
20.7893,58
20.8264,79
20.8636,67
20.9007,72
20.9379,55
20.9750,82
21.0122,81
21.0493,66
21.0865,72
21.1236,92
21.1608,94
21.1979,110
21.2351,108
21.2722,104
21.3094,120
21.3465,172
21.3837,155
21.4208,119
21.4580,92
21.4951,94
21.5323,70
21.5694,62
21.6066,67
21.6437,81
21.6809,66
21.7180,79
21.7552,70
21.7923,76
21.8295,70
21.8666,73
21.9038,79
21.9409,69
21.9781,59
22.0152,80
22.0524,90
22.0896,74
22.1267,77
22.1639,48
22.2010,69
22.2382,62
22.2753,85
22.3125,69
22.3496,83
22.3868,77
22.4239,81
22.4611,69
22.4982,72
22.5354,84
22.5725,63
22.6097,62
22.6468,74
22.6840,71
22.7211,69
22.7583,80
22.7954,62
22.8326,85
22.8697,74
22.9069,67
22.9440,71
22.9812,72
23.0183,70
23.0555,79
23.0926,82
23.1298,54
23.1669,72
23.2041,79
23.2412,75
23.2784,71
23.3155,73
23.3527,75
23.3898,83
23.4270,70
23.4641,72
23.5013,68
23.5384,87
23.5756,84
23.6128,53
23.6499,74
23.6871,75
23.7242,75
23.7614,87
23.7985,73
23.8357,86
23.8728,75
23.9100,73
23.9471,71
23.9843,71
24.0214,78
24.0586,73
24.0957,60
24.1329,76
24.1700,84
24.2072,102
24.2443,75
24.2815,64
24.3186,88
24.3558,81
24.3929,86
24.4301,95
24.4672,70
24.5044,84
24.5415,77
24.5787,70
24.6158,72
24.6530,66
24.6901,67
24.7273,75
24.7644,64
24.8016,78
24.8387,66
24.8759,57
24.9130,72
24.9502,79
24.9873,77
25.0245,73
25.0616,68
25.0988,61
25.1360,60
25.1731,67
25.2103,81
25.2474,75
25.2846,73
25.3217,66
25.3589,76
25.3960,79
25.4332,89
25.4703,69
25.5075,67
25.5446,75
25.5818,72
25.6189,61
25.6561,64
25.6932,75
25.7304,73
25.7675,84
25.8047,52
25.8418,50
25.8790,75
25.9161,62
25.9533,64
25.9904,67
26.0276,71
26.0647,78
26.1019,68
26.1390,72
26.1762,71
26.2133,79
26.2505,63
26.2876,74
26.3248,66
26.3619,71
26.3991,70
26.4362,63
26.4734,64
26.5105,72
26.5477,78
26.5848,60
26.6220,58
26.6591,79
26.6963,79
26.7335,67
26.7706,69
26.8078,82
26.8449,63
26.8821,79
26.9192,60
26.9564,61
26.9935,76
27.0307,64
27.0678,71
27.1050,68
27.1421,72
27.1793,80
27.2164,87
27.2536,84
27.2907,79
27.3279,58
27.3650,66
27.4022,67
27.4393,65
27.4765,60
27.5136,66
27.5508,78
27.5879,60
27.6251,68
27.6622,63
27.6994,67
27.7365,55
27.7737,51
27.8108,60
27.8480,64
27.8851,65
27.9223,54
27.9594,67
27.9966,61
28.0337,58
28.0709,57
28.1080,71
28.1452,52
28.1823,65
28.2195,60
28.2567,70
28.2938,71
28.3310,65
28.3681,71
28.4053,71
28.4424,65
28.4796,68
28.5167,61
28.5539,67
28.5910,62
28.6282,55
28.6653,57
28.7025,69
28.7396,58
28.7768,55
28.8139,61
28.8511,55
28.8882,53
28.9254,48
28.9625,60
28.9997,51
29.0368,65
29.0740,61
29.1111,55
29.1483,60
29.1854,61
29.2226,54
29.2597,62
29.2969,59
29.3340,48
29.3712,51
29.4083,45
29.4455,77
29.4826,54
29.5198,56
29.5569,50
29.5941,61
29.6312,61
29.6684,64
29.7055,72
29.7427,56
29.7799,51
29.8170,53
29.8542,58
29.8913,44
29.9285,64
29.9656,58
30.0028,58
30.0399,61
30.0771,62
30.1142,56
30.1514,47
30.1885,56
30.2257,52
30.2628,54
30.3000,61
30.3371,79
30.3743,109
30.4114,100
30.4486,89
30.4857,72
30.5229,73
30.5600,54
30.5972,57
30.6343,54
30.6715,50
30.7086,52
30.7458,57
30.7829,49
30.8201,44
30.8572,59
30.8944,56
30.9315,53
30.9687,53
31.0058,56
31.0430,47
31.0801,38
31.1173,59
31.1544,55
31.1916,54
31.2287,52
31.2659,45
31.3030,50
31.3402,63
31.3774,54
31.4145,43
31.4517,45
31.4888,44
31.5260,54
31.5631,34
31.6003,63
31.6374,67
31.6746,42
31.7117,58
31.7489,62
31.7860,48
31.8232,42
31.8603,41
31.8975,37
31.9346,56
31.9718,60
32.0089,49
32.0461,28
32.0832,51
32.1204,43
32.1575,43
32.1947,46
32.2318,52
32.2690,42
32.3061,51
32.3433,61
32.3804,50
32.4176,57
32.4547,64
32.4919,52
32.5290,51
32.5662,48
32.6033,56
32.6405,39
32.6776,59
32.7148,49
32.7519,46
32.7891,47
32.8262,43
32.8634,35
32.9006,56
32.9377,48
32.9749,47
33.0120,44
33.0492,46
33.0863,42
33.1235,48
33.1606,47
33.1978,29
33.2349,38
33.2721,41
33.3092,40
33.3464,52
33.3835,40
33.4207,28
33.4578,44
33.4950,35
33.5321,39
33.5693,39
33.6064,46
33.6436,39
33.6807,44
33.7179,38
33.7550,40
33.7922,38
33.8293,39
33.8665,49
33.9036,50
33.9408,42
33.9779,47
34.0151,52
34.0522,62
34.0894,34
34.1265,40
34.1637,48
34.2008,36
34.2380,29
34.2751,48
34.3123,43
34.3494,47
34.3866,49
34.4238,36
34.4609,49
34.4981,46
34.5352,45
34.5724,48
34.6095,61
34.6467,46
34.6838,42
34.7210,46
34.7581,50
34.7953,48
34.8324,50
34.8696,55
34.9067,52
34.9439,42
34.9810,48
35.0182,41
35.0553,39
35.0925,42
35.1296,45
35.1668,42
35.2039,41
35.2411,43
35.2782,41
35.3154,37
35.3525,34
35.3897,33
35.4268,43
35.4640,34
35.5011,41
35.5383,36
35.5754,30
35.6126,30
35.6497,39
35.6869,39
35.7240,33
35.7612,34
35.7983,36
35.8355,42
35.8726,40
35.9098,36
35.9469,30
35.9841,42
36.0213,36
36.0584,45
36.0956,28
36.1327,37
36.1699,47
36.2070,47
36.2442,32
36.2813,26
36.3185,31
36.3556,28
36.3928,35
36.4299,31
36.4671,24
36.5042,43
36.5414,39
36.5785,36
36.6157,33
36.6528,31
36.6900,28
36.7271,42
36.7643,38
36.8014,38
36.8386,36
36.8757,48
36.9129,31
36.9500,40
36.9872,34
37.0243,31
37.0615,30
37.0986,30
37.1358,22
37.1729,35
37.2101,37
37.2472,28
37.2844,32
37.3215,45
37.3587,35
37.3958,45
37.4330,61
37.4701,48
37.5073,51
37.5445,52
37.5816,40
37.6188,33
37.6559,36
37.6931,32
37.7302,38
37.7674,38
37.8045,29
37.8417,34
37.8788,20
37.9160,19
37.9531,36
37.9903,37
38.0274,23
38.0646,36
38.1017,26
38.1389,31
38.1760,35
38.2132,41
38.2503,27
38.2875,38
38.3246,37
38.3618,24
38.3989,32
38.4361,38
38.4732,35
38.5104,32
38.5475,34
38.5847,21
38.6218,31
38.6590,20
38.6961,39
38.7333,41
38.7704,22
38.8076,29
38.8447,31
38.8819,27
38.9190,29
38.9562,31
38.9933,20
39.0305,23
39.0677,36
39.1048,35
39.1420,27
39.1791,35
39.2163,21
39.2534,27
39.2906,27
39.3277,31
39.3649,30
39.4020,24
39.4392,28
39.4763,19
39.5135,30
39.5506,32
39.5878,33
39.6249,26
39.6621,36
39.6992,28
39.7364,32
39.7735,21
39.8107,24
39.8478,22
39.8850,21
39.9221,35
39.9593,27
39.9964,28
40.0336,37
40.0707,28
40.1079,21
40.1450,27
40.1822,43
40.2193,32
40.2565,32
40.2936,29
40.3308,28
40.3679,27
40.4051,34
40.4422,35
40.4794,32
40.5165,29
40.5537,26
40.5908,28
40.6280,28
40.6652,28
40.7023,27
40.7395,20
40.7766,25
40.8138,24
40.8509,38
40.8881,32
40.9252,23
40.9624,24
40.9995,28
41.0367,28
41.0738,36
41.1110,24
41.1481,34
41.1853,36
41.2224,27
41.2596,23
41.2967,37
41.3339,40
41.3710,31
41.4082,30
41.4453,24
41.4825,24
41.5196,29
41.5568,24
41.5939,33
41.6311,20
41.6682,19
41.7054,26
41.7425,26
41.7797,30
41.8168,31
41.8540,27
41.8911,25
41.9283,29
41.9654,31
42.0026,25
42.0397,26
42.0769,17
42.1140,34
42.1512,26
42.1884,28
42.2255,24
42.2627,25
42.2998,38
42.3370,24
42.3741,21
42.4113,29
42.4484,31
42.4856,26
42.5227,25
42.5599,28
42.5970,18
42.6342,23
42.6713,21
42.7085,22
42.7456,30
42.7828,18
42.8199,20
42.8571,22
42.8942,18
42.9314,23
42.9685,33
43.0057,29
43.0428,22
43.0800,26
43.1171,28
43.1543,28
43.1914,28
43.2286,41
43.2657,37
43.3029,34
43.3400,38
43.3772,28
43.4143,17
43.4515,32
43.4886,37
43.5258,56
43.5629,37
43.6001,33
43.6372,33
43.6744,30
43.7116,39
43.7487,26
43.7859,28
43.8230,13
43.8602,24
43.8973,18
43.9345,28
43.9716,16
44.0088,26
44.0459,19
44.0831,22
44.1202,38
44.1574,26
44.1945,34
44.2317,27
44.2688,31
44.3060,33
44.3431,24
44.3803,21
44.4174,29
44.4546,29
44.4917,19
44.5289,34
44.5660,27
44.6032,45
44.6403,31
44.6775,34
44.7146,36
44.7518,35
44.7889,25
44.8261,25
44.8632,30
44.9004,29
44.9375,27
44.9747,27
45.0118,17
45.0490,19
45.0861,24
45.1233,28
45.1604,23
45.1976,21
45.2347,25
45.2719,25
45.3091,20
45.3462,24
45.3834,28
45.4205,19
45.4577,24
45.4948,23
45.5320,16
45.5691,32
45.6063,35
45.6434,19
45.6806,22
45.7177,32
45.7549,30
45.7920,27
45.8292,25
45.8663,18
45.9035,27
45.9406,16
45.9778,33
46.0149,30
46.0521,26
46.0892,22
46.1264,32
46.1635,20
46.2007,20
46.2378,23
46.2750,32
46.3121,30
46.3493,23
46.3864,26
46.4236,25
46.4607,22
46.4979,25
46.5350,30
46.5722,29
46.6093,19
46.6465,19
46.6836,21
46.7208,19
46.7579,24
46.7951,28
46.8323,20
46.8694,21
46.9066,32
46.9437,21
46.9809,35
47.0180,13
47.0552,24
47.0923,25
47.1295,23
47.1666,13
47.2038,23
47.2409,29
47.2781,19
47.3152,24
47.3524,25
47.3895,19
47.4267,25
47.4638,17
47.5010,29
47.5381,27
47.5753,18
47.6124,27
47.6496,23
47.6867,18
47.7239,23
47.7610,23
47.7982,17
47.8353,20
47.8725,22
47.9096,16
47.9468,25
47.9839,19
48.0211,26
48.0582,23
48.0954,17
48.1325,19
48.1697,28
48.2068,30
48.2440,18
48.2811,17
48.3183,22
48.3555,19
48.3926,12
48.4298,26
48.4669,27
48.5041,19
48.5412,28
48.5784,20
48.6155,16
48.6527,15
48.6898,22
48.7270,22
48.7641,26
48.8013,19
48.8384,24
48.8756,22
48.9127,29
48.9499,37
48.9870,35
49.0242,28
49.0613,24
49.0985,33
49.1356,32
49.1728,27
49.2099,22
49.2471,27
49.2842,29
49.3214,24
49.3585,16
49.3957,27
49.4328,35
49.4700,17
49.5071,19
49.5443,25
49.5814,18
49.6186,22
49.6557,19
49.6929,23
49.7300,17
49.7672,16
49.8043,15
49.8415,15
49.8786,20
49.9158,23
49.9530,24
49.9901,21
50.0273,19
50.0644,23
50.1016,26
50.1387,26
50.1759,17
50.2130,21
50.2502,20
50.2873,19
50.3245,24
50.3616,24
50.3988,20
50.4359,23
50.4731,25
50.5102,26
50.5474,19
50.5845,21
50.6217,22
50.6588,24
50.6960,20
50.7331,21
50.7703,22
50.8074,20
50.8446,16
50.8817,26
50.9189,20
50.9560,19
50.9932,23
51.0303,25
51.0675,14
51.1046,25
51.1418,17
51.1789,14
51.2161,20
51.2532,23
51.2904,27
51.3275,20
51.3647,36
51.4018,27
51.4390,24
51.4762,25
51.5133,33
51.5505,24
51.5876,19
51.6248,20
51.6619,14
51.6991,21
51.7362,20
51.7734,26
51.8105,19
51.8477,26
51.8848,23
51.9220,19
51.9591,14
51.9963,27
52.0334,19
52.0706,19
52.1077,19
52.1449,18
52.1820,23
52.2192,23
52.2563,26
52.2935,21
52.3306,22
52.3678,22
52.4049,20
52.4421,19
52.4792,18
52.5164,22
52.5535,19
52.5907,25
52.6278,18
52.6650,16
52.7021,18
52.7393,17
52.7764,23
52.8136,22
52.8507,39
52.8879,31
52.9250,20
52.9622,24
52.9994,16
53.0365,16
53.0737,22
53.1108,23
53.1480,13
53.1851,18
53.2223,21
53.2594,21
53.2966,21
53.3337,18
53.3709,30
53.4080,15
53.4452,15
53.4823,21
53.5195,21
53.5566,13
53.5938,28
53.6309,17
53.6681,15
53.7052,19
53.7424,17
53.7795,26
53.8167,19
53.8538,21
53.8910,22
53.9281,18
53.9653,22
54.0024,29
54.0396,18
54.0767,28
54.1139,27
54.1510,17
54.1882,18
54.2253,21
54.2625,26
54.2996,18
54.3368,23
54.3739,25
54.4111,30
54.4482,26
54.4854,17
54.5225,18
54.5597,25
54.5969,17
54.6340,14
54.6712,14
54.7083,27
54.7455,22
54.7826,21
54.8198,23
54.8569,19
54.8941,18
54.9312,18
54.9684,17
55.0055,22
55.0427,23
55.0798,21
55.1170,15
55.1541,25
55.1913,19
55.2284,26
55.2656,23
55.3027,23
55.3399,29
55.3770,23
55.4142,18
55.4513,22
55.4885,22
55.5256,11
55.5628,27
55.5999,24
55.6371,17
55.6742,19
55.7114,18
55.7485,25
55.7857,19
55.8228,22
55.8600,15
55.8971,22
55.9343,20
55.9714,21
56.0086,26
56.0457,19
56.0829,19
56.1201,21
56.1572,31
56.1944,20
56.2315,20
56.2687,23
56.3058,15
56.3430,19
56.3801,22
56.4173,18
56.4544,20
56.4916,22
56.5287,17
56.5659,24
56.6030,22
56.6402,14
56.6773,22
56.7145,16
56.7516,13
56.7888,22
56.8259,21
56.8631,28
56.9002,15
56.9374,21
56.9745,21
57.0117,14
57.0488,28
57.0860,16
57.1231,20
57.1603,32
57.1974,15
57.2346,18
57.2717,24
57.3089,17
57.3460,25
57.3832,15
57.4203,18
57.4575,16
57.4946,19
57.5318,26
57.5689,13
57.6061,20
57.6433,19
57.6804,25
57.7176,25
57.7547,25
57.7919,21
57.8290,18
57.8662,24
57.9033,22
57.9405,17
57.9776,16
58.0148,20
58.0519,16
58.0891,15
58.1262,20
58.1634,11
58.2005,15
58.2377,20
58.2748,18
58.3120,20
58.3491,20
58.3863,21
58.4234,30
58.4606,24
58.4977,21
58.5349,19
58.5720,25
58.6092,16
58.6463,15
58.6835,17
58.7206,14
58.7578,23
58.7949,21
58.8321,23
58.8692,12
58.9064,19
58.9435,16
58.9807,19
59.0178,17
59.0550,26
59.0921,30
59.1293,19
59.1664,20
59.2036,19
59.2408,18
59.2779,17
59.3151,24
59.3522,16
59.3894,22
59.4265,22
59.4637,23
59.5008,19
59.5380,23
59.5751,26
59.6123,18
59.6494,22
59.6866,23
59.7237,14
59.7609,25
59.7980,22
59.8352,15
59.8723,28
59.9095,23
59.9466,21
59.9838,20
60.0024,16