File: notebooks/data/xrd_data/ML_20220718_44_SJD_4_LaB6-4min.csv
;,2THETA,
5.0000,262
5.0372,274
5.0743,254
5.1115,256
5.1486,246
5.1858,255
5.2229,246
5.2601,232
5.2972,226
5.3344,249
5.3715,232
5.4087,235
5.4458,242
5.4830,241
5.5201,240
5.5573,251
5.5944,229
5.6316,203
5.6687,197
5.7059,215
5.7430,209
5.7802,188
5.8173,172
5.8545,187
5.8916,207
5.9288,210
5.9659,225
6.0031,210
6.0402,192
6.0774,188
6.1145,199
6.1517,159
6.1888,175
6.2260,189
6.2631,208
6.3003,198
6.3374,208
6.3746,167
6.4117,178
6.4489,184
6.4860,173
6.5232,214
6.5604,180
6.5975,161
6.6347,142
6.6718,173
6.7090,190
6.7461,149
6.7833,167
6.8204,154
6.8576,166
6.8947,188
6.9319,153
6.9690,178
7.0062,168
7.0433,153
7.0805,156
7.1176,154
7.1548,160
7.1919,168
7.2291,154
7.2662,162
7.3034,146
7.3405,155
7.3777,152
7.4148,167
7.4520,166
7.4891,171
7.5263,150
7.5634,168
7.6006,153
7.6377,163
7.6749,176
7.7120,161
7.7492,159
7.7863,164
7.8235,156
7.8606,191
7.8978,182
7.9349,201
7.9721,204
8.0092,174
8.0464,199
8.0835,184
8.1207,176
8.1579,193
8.1950,178
8.2322,198
8.2693,184
8.3065,176
8.3436,214
8.3808,187
8.4179,194
8.4551,193
8.4922,182
8.5294,198
8.5665,218
8.6037,164
8.6408,202
8.6780,195
8.7151,191
8.7523,201
8.7894,201
8.8266,192
8.8637,211
8.9009,252
8.9380,202
8.9752,224
9.0123,213
9.0495,218
9.0866,184
9.1238,245
9.1609,227
9.1981,242
9.2352,228
9.2724,224
9.3095,251
9.3467,203
9.3838,214
9.4210,228
9.4581,230
9.4953,202
9.5324,249
9.5696,205
9.6067,229
9.6439,211
9.6811,259
9.7182,238
9.7554,257
9.7925,225
9.8297,219
9.8668,240
9.9040,232
9.9411,232
9.9783,218
10.0154,198
10.0526,264
10.0897,239
10.1269,233
10.1640,234
10.2012,266
10.2383,240
10.2755,228
10.3126,249
10.3498,234
10.3869,242
10.4241,238
10.4612,262
10.4984,254
10.5355,248
10.5727,246
10.6098,259
10.6470,221
10.6841,248
10.7213,249
10.7584,230
10.7956,223
10.8327,244
10.8699,227
10.9070,235
10.9442,238
10.9813,227
11.0185,214
11.0556,236
11.0928,255
11.1299,214
11.1671,250
11.2043,262
11.2414,267
11.2786,251
11.3157,236
11.3529,224
11.3900,272
11.4272,272
11.4643,251
11.5015,246
11.5386,245
11.5758,253
11.6129,220
11.6501,235
11.6872,248
11.7244,240
11.7615,216
11.7987,218
11.8358,240
11.8730,221
11.9101,236
11.9473,235
11.9844,217
12.0216,227
12.0587,230
12.0959,229
12.1330,199
12.1702,233
12.2073,211
12.2445,219
12.2816,217
12.3188,217
12.3559,235
12.3931,213
12.4302,209
12.4674,199
12.5045,225
12.5417,234
12.5788,232
12.6160,209
12.6531,217
12.6903,221
12.7274,203
12.7646,208
12.8018,209
12.8389,231
12.8761,214
12.9132,200
12.9504,218
12.9875,206
13.0247,208
13.0618,214
13.0990,214
13.1361,201
13.1733,185
13.2104,211
13.2476,183
13.2847,228
13.3219,192
13.3590,196
13.3962,187
13.4333,194
13.4705,223
13.5076,182
13.5448,201
13.5819,222
13.6191,172
13.6562,182
13.6934,192
13.7305,182
13.7677,201
13.8048,176
13.8420,198
13.8791,172
13.9163,187
13.9534,195
13.9906,179
14.0277,181
14.0649,169
14.1020,195
14.1392,173
14.1763,179
14.2135,178
14.2506,169
14.2878,171
14.3250,189
14.3621,166
14.3993,192
14.4364,163
14.4736,164
14.5107,174
14.5479,177
14.5850,181
14.6222,166
14.6593,164
14.6965,164
14.7336,163
14.7708,186
14.8079,169
14.8451,168
14.8822,174
14.9194,154
14.9565,158
14.9937,161
15.0308,167
15.0680,186
15.1051,143
15.1423,146
15.1794,150
15.2166,179
15.2537,156
15.2909,154
15.3280,172
15.3652,178
15.4023,159
15.4395,181
15.4766,162
15.5138,156
15.5509,160
15.5881,178
15.6252,161
15.6624,180
15.6995,143
15.7367,155
15.7738,151
15.8110,164
15.8482,174
15.8853,156
15.9225,164
15.9596,177
15.9968,157
16.0339,180
16.0711,152
16.1082,184
16.1454,160
16.1825,161
16.2197,144
16.2568,154
16.2940,178
16.3311,174
16.3683,145
16.4054,166
16.4426,172
16.4797,149
16.5169,155
16.5540,161
16.5912,152
16.6283,158
16.6655,158
16.7026,150
16.7398,143
16.7769,149
16.8141,175
16.8512,144
16.8884,161
16.9255,186
16.9627,162
16.9998,195
17.0370,158
17.0741,177
17.1113,144
17.1484,166
17.1856,158
17.2227,122
17.2599,149
17.2970,159
17.3342,155
17.3713,164
17.4085,148
17.4457,167
17.4828,145
17.5200,145
17.5571,132
17.5943,169
17.6314,151
17.6686,151
17.7057,149
17.7429,152
17.7800,178
17.8172,163
17.8543,157
17.8915,212
17.9286,168
17.9658,172
18.0029,154
18.0401,152
18.0772,168
18.1144,167
18.1515,122
18.1887,164
18.2258,170
18.2630,167
18.3001,146
18.3373,185
18.3744,156
18.4116,159
18.4487,158
18.4859,154
18.5230,150
18.5602,166
18.5973,166
18.6345,170
18.6716,170
18.7088,163
18.7459,141
18.7831,163
18.8202,136
18.8574,173
18.8945,183
18.9317,160
18.9689,145
19.0060,173
19.0432,194
19.0803,162
19.1175,155
19.1546,164
19.1918,186
19.2289,171
19.2661,181
19.3032,180
19.3404,186
19.3775,197
19.4147,177
19.4518,181
19.4890,156
19.5261,177
19.5633,158
19.6004,156
19.6376,170
19.6747,173
19.7119,181
19.7490,165
19.7862,192
19.8233,160
19.8605,174
19.8976,152
19.9348,181
19.9719,177
20.0091,172
20.0462,188
20.0834,182
20.1205,180
20.1577,184
20.1948,168
20.2320,179
20.2691,153
20.3063,191
20.3434,168
20.3806,196
20.4177,186
20.4549,178
20.4921,177
20.5292,185
20.5664,206
20.6035,188
20.6407,194
20.6778,184
20.7150,172
20.7521,170
20.7893,193
20.8264,192
20.8636,180
20.9007,201
20.9379,193
20.9750,183
21.0122,201
21.0493,179
21.0865,198
21.1236,219
21.1608,222
21.1979,280
21.2351,312
21.2722,322
21.3094,299
21.3465,508
21.3837,423
21.4208,380
21.4580,213
21.4951,228
21.5323,188
21.5694,211
21.6066,195
21.6437,208
21.6809,218
21.7180,187
21.7552,186
21.7923,192
21.8295,184
21.8666,201
21.9038,211
21.9409,201
21.9781,193
22.0152,212
22.0524,211
22.0896,207
22.1267,208
22.1639,186
22.2010,186
22.2382,197
22.2753,191
22.3125,212
22.3496,179
22.3868,186
22.4239,193
22.4611,212
22.4982,196
22.5354,178
22.5725,217
22.6097,205
22.6468,189
22.6840,198
22.7211,167
22.7583,197
22.7954,187
22.8326,212
22.8697,181
22.9069,188
22.9440,205
22.9812,184
23.0183,191
23.0555,215
23.0926,211
23.1298,186
23.1669,208
23.2041,190
23.2412,194
23.2784,190
23.3155,194
23.3527,196
23.3898,180
23.4270,185
23.4641,206
23.5013,199
23.5384,212
23.5756,208
23.6128,177
23.6499,206
23.6871,210
23.7242,199
23.7614,190
23.7985,211
23.8357,233
23.8728,192
23.9100,207
23.9471,215
23.9843,185
24.0214,206
24.0586,221
24.0957,194
24.1329,193
24.1700,214
24.2072,194
24.2443,216
24.2815,214
24.3186,212
24.3558,222
24.3929,215
24.4301,224
24.4672,227
24.5044,206
24.5415,201
24.5787,211
24.6158,195
24.6530,188
24.6901,182
24.7273,196
24.7644,207
24.8016,187
24.8387,226
24.8759,190
24.9130,214
24.9502,198
24.9873,217
25.0245,193
25.0616,200
25.0988,199
25.1360,172
25.1731,203
25.2103,214
25.2474,192
25.2846,200
25.3217,181
25.3589,199
25.3960,201
25.4332,180
25.4703,188
25.5075,187
25.5446,200
25.5818,225
25.6189,192
25.6561,172
25.6932,186
25.7304,202
25.7675,179
25.8047,188
25.8418,202
25.8790,205
25.9161,210
25.9533,182
25.9904,185
26.0276,183
26.0647,186
26.1019,210
26.1390,192
26.1762,202
26.2133,194
26.2505,195
26.2876,188
26.3248,174
26.3619,170
26.3991,195
26.4362,170
26.4734,177
26.5105,182
26.5477,185
26.5848,184
26.6220,181
26.6591,197
26.6963,158
26.7335,191
26.7706,176
26.8078,214
26.8449,169
26.8821,195
26.9192,175
26.9564,210
26.9935,184
27.0307,180
27.0678,182
27.1050,213
27.1421,198
27.1793,208
27.2164,249
27.2536,219
27.2907,240
27.3279,209
27.3650,190
27.4022,198
27.4393,168
27.4765,201
27.5136,206
27.5508,171
27.5879,172
27.6251,195
27.6622,157
27.6994,196
27.7365,168
27.7737,167
27.8108,181
27.8480,176
27.8851,174
27.9223,167
27.9594,163
27.9966,180
28.0337,202
28.0709,172
28.1080,159
28.1452,181
28.1823,178
28.2195,174
28.2567,180
28.2938,180
28.3310,175
28.3681,170
28.4053,182
28.4424,164
28.4796,165
28.5167,162
28.5539,151
28.5910,172
28.6282,183
28.6653,161
28.7025,159
28.7396,163
28.7768,160
28.8139,187
28.8511,157
28.8882,173
28.9254,155
28.9625,158
28.9997,175
29.0368,165
29.0740,159
29.1111,167
29.1483,171
29.1854,164
29.2226,135
29.2597,190
29.2969,155
29.3340,164
29.3712,162
29.4083,165
29.4455,168
29.4826,149
29.5198,165
29.5569,181
29.5941,185
29.6312,174
29.6684,147
29.7055,165
29.7427,188
29.7799,165
29.8170,170
29.8542,168
29.8913,178
29.9285,152
29.9656,144
30.0028,151
30.0399,165
30.0771,147
30.1142,162
30.1514,151
30.1885,188
30.2257,162
30.2628,164
30.3000,155
30.3371,206
30.3743,293
30.4114,294
30.4486,245
30.4857,236
30.5229,181
30.5600,156
30.5972,174
30.6343,165
30.6715,170
30.7086,143
30.7458,136
30.7829,134
30.8201,155
30.8572,159
30.8944,162
30.9315,157
30.9687,134
31.0058,141
31.0430,154
31.0801,148
31.1173,150
31.1544,145
31.1916,126
31.2287,164
31.2659,139
31.3030,136
31.3402,138
31.3774,157
31.4145,143
31.4517,135
31.4888,139
31.5260,161
31.5631,124
31.6003,147
31.6374,157
31.6746,125
31.7117,156
31.7489,151
31.7860,125
31.8232,120
31.8603,151
31.8975,136
31.9346,128
31.9718,164
32.0089,137
32.0461,120
32.0832,141
32.1204,121
32.1575,120
32.1947,135
32.2318,127
32.2690,147
32.3061,111
32.3433,124
32.3804,145
32.4176,143
32.4547,140
32.4919,141
32.5290,153
32.5662,143
32.6033,132
32.6405,146
32.6776,120
32.7148,116
32.7519,123
32.7891,125
32.8262,129
32.8634,123
32.9006,113
32.9377,109
32.9749,129
33.0120,122
33.0492,119
33.0863,120
33.1235,131
33.1606,113
33.1978,125
33.2349,121
33.2721,124
33.3092,129
33.3464,112
33.3835,142
33.4207,108
33.4578,122
33.4950,122
33.5321,123
33.5693,117
33.6064,123
33.6436,120
33.6807,122
33.7179,114
33.7550,96
33.7922,115
33.8293,115
33.8665,93
33.9036,138
33.9408,111
33.9779,109
34.0151,119
34.0522,101
34.0894,112
34.1265,120
34.1637,107
34.2008,135
34.2380,113
34.2751,118
34.3123,115
34.3494,108
34.3866,110
34.4238,81
34.4609,120
34.4981,122
34.5352,127
34.5724,121
34.6095,138
34.6467,133
34.6838,133
34.7210,136
34.7581,167
34.7953,154
34.8324,118
34.8696,136
34.9067,128
34.9439,125
34.9810,102
35.0182,118
35.0553,108
35.0925,116
35.1296,94
35.1668,98
35.2039,107
35.2411,105
35.2782,95
35.3154,97
35.3525,113
35.3897,114
35.4268,96
35.4640,86
35.5011,94
35.5383,78
35.5754,113
35.6126,96
35.6497,114
35.6869,100
35.7240,100
35.7612,104
35.7983,97
35.8355,103
35.8726,105
35.9098,109
35.9469,96
35.9841,75
36.0213,102
36.0584,95
36.0956,108
36.1327,99
36.1699,106
36.2070,95
36.2442,105
36.2813,99
36.3185,94
36.3556,87
36.3928,103
36.4299,93
36.4671,93
36.5042,79
36.5414,92
36.5785,102
36.6157,72
36.6528,83
36.6900,85
36.7271,102
36.7643,96
36.8014,95
36.8386,78
36.8757,95
36.9129,84
36.9500,88
36.9872,98
37.0243,103
37.0615,87
37.0986,99
37.1358,87
37.1729,90
37.2101,90
37.2472,96
37.2844,85
37.3215,83
37.3587,116
37.3958,105
37.4330,136
37.4701,121
37.5073,112
37.5445,118
37.5816,92
37.6188,92
37.6559,85
37.6931,96
37.7302,84
37.7674,108
37.8045,79
37.8417,84
37.8788,78
37.9160,84
37.9531,85
37.9903,82
38.0274,92
38.0646,98
38.1017,95
38.1389,87
38.1760,81
38.2132,80
38.2503,86
38.2875,90
38.3246,93
38.3618,90
38.3989,86
38.4361,83
38.4732,69
38.5104,86
38.5475,85
38.5847,74
38.6218,66
38.6590,77
38.6961,73
38.7333,77
38.7704,86
38.8076,104
38.8447,102
38.8819,93
38.9190,88
38.9562,93
38.9933,69
39.0305,99
39.0677,81
39.1048,82
39.1420,80
39.1791,73
39.2163,64
39.2534,83
39.2906,74
39.3277,87
39.3649,81
39.4020,107
39.4392,97
39.4763,82
39.5135,74
39.5506,78
39.5878,84
39.6249,78
39.6621,76
39.6992,81
39.7364,95
39.7735,84
39.8107,81
39.8478,79
39.8850,68
39.9221,75
39.9593,84
39.9964,69
40.0336,81
40.0707,71
40.1079,69
40.1450,85
40.1822,73
40.2193,79
40.2565,75
40.2936,64
40.3308,77
40.3679,76
40.4051,58
40.4422,78
40.4794,75
40.5165,71
40.5537,71
40.5908,94
40.6280,70
40.6652,69
40.7023,105
40.7395,72
40.7766,76
40.8138,75
40.8509,63
40.8881,78
40.9252,69
40.9624,75
40.9995,82
41.0367,96
41.0738,86
41.1110,62
41.1481,84
41.1853,69
41.2224,83
41.2596,66
41.2967,91
41.3339,89
41.3710,71
41.4082,74
41.4453,74
41.4825,69
41.5196,79
41.5568,73
41.5939,63
41.6311,69
41.6682,62
41.7054,61
41.7425,75
41.7797,69
41.8168,63
41.8540,86
41.8911,85
41.9283,56
41.9654,66
42.0026,70
42.0397,81
42.0769,86
42.1140,70
42.1512,67
42.1884,66
42.2255,84
42.2627,93
42.2998,82
42.3370,61
42.3741,63
42.4113,75
42.4484,65
42.4856,81
42.5227,76
42.5599,72
42.5970,74
42.6342,78
42.6713,72
42.7085,66
42.7456,84
42.7828,70
42.8199,76
42.8571,63
42.8942,71
42.9314,61
42.9685,85
43.0057,97
43.0428,68
43.0800,90
43.1171,80
43.1543,68
43.1914,77
43.2286,75
43.2657,98
43.3029,77
43.3400,100
43.3772,91
43.4143,95
43.4515,81
43.4886,124
43.5258,110
43.5629,88
43.6001,104
43.6372,101
43.6744,76
43.7116,92
43.7487,77
43.7859,62
43.8230,65
43.8602,65
43.8973,71
43.9345,60
43.9716,55
44.0088,65
44.0459,72
44.0831,60
44.1202,72
44.1574,78
44.1945,83
44.2317,52
44.2688,68
44.3060,70
44.3431,74
44.3803,89
44.4174,69
44.4546,65
44.4917,66
44.5289,82
44.5660,80
44.6032,76
44.6403,72
44.6775,73
44.7146,79
44.7518,72
44.7889,77
44.8261,68
44.8632,81
44.9004,70
44.9375,74
44.9747,78
45.0118,59
45.0490,76
45.0861,61
45.1233,78
45.1604,68
45.1976,68
45.2347,56
45.2719,69
45.3091,58
45.3462,56
45.3834,78
45.4205,64
45.4577,85
45.4948,57
45.5320,73
45.5691,70
45.6063,75
45.6434,62
45.6806,68
45.7177,65
45.7549,59
45.7920,73
45.8292,63
45.8663,69
45.9035,59
45.9406,82
45.9778,91
46.0149,62
46.0521,58
46.0892,69
46.1264,71
46.1635,51
46.2007,76
46.2378,64
46.2750,60
46.3121,65
46.3493,60
46.3864,64
46.4236,56
46.4607,63
46.4979,71
46.5350,68
46.5722,65
46.6093,61
46.6465,71
46.6836,62
46.7208,57
46.7579,55
46.7951,68
46.8323,73
46.8694,84
46.9066,68
46.9437,75
46.9809,59
47.0180,71
47.0552,73
47.0923,70
47.1295,55
47.1666,72
47.2038,55
47.2409,47
47.2781,46
47.3152,58
47.3524,74
47.3895,63
47.4267,57
47.4638,70
47.5010,61
47.5381,45
47.5753,62
47.6124,78
47.6496,67
47.6867,61
47.7239,66
47.7610,49
47.7982,74
47.8353,66
47.8725,63
47.9096,61
47.9468,75
47.9839,47
48.0211,62
48.0582,61
48.0954,72
48.1325,64
48.1697,58
48.2068,56
48.2440,41
48.2811,68
48.3183,72
48.3555,75
48.3926,69
48.4298,69
48.4669,74
48.5041,56
48.5412,70
48.5784,65
48.6155,69
48.6527,66
48.6898,67
48.7270,68
48.7641,61
48.8013,67
48.8384,69
48.8756,74
48.9127,68
48.9499,116
48.9870,100
49.0242,81
49.0613,72
49.0985,76
49.1356,75
49.1728,71
49.2099,58
49.2471,61
49.2842,70
49.3214,73
49.3585,69
49.3957,77
49.4328,70
49.4700,62
49.5071,69
49.5443,59
49.5814,53
49.6186,53
49.6557,63
49.6929,61
49.7300,60
49.7672,59
49.8043,63
49.8415,61
49.8786,56
49.9158,73
49.9530,61
49.9901,66
50.0273,55
50.0644,54
50.1016,65
50.1387,51
50.1759,51
50.2130,58
50.2502,72
50.2873,74
50.3245,73
50.3616,60
50.3988,69
50.4359,55
50.4731,54
50.5102,50
50.5474,56
50.5845,80
50.6217,65
50.6588,61
50.6960,68
50.7331,50
50.7703,55
50.8074,49
50.8446,66
50.8817,55
50.9189,48
50.9560,57
50.9932,59
51.0303,62
51.0675,60
51.1046,57
51.1418,61
51.1789,56
51.2161,63
51.2532,63
51.2904,59
51.3275,53
51.3647,71
51.4018,70
51.4390,79
51.4762,80
51.5133,65
51.5505,64
51.5876,65
51.6248,61
51.6619,51
51.6991,56
51.7362,60
51.7734,49
51.8105,71
51.8477,82
51.8848,64
51.9220,62
51.9591,59
51.9963,68
52.0334,55
52.0706,52
52.1077,66
52.1449,61
52.1820,60
52.2192,54
52.2563,70
52.2935,64
52.3306,64
52.3678,59
52.4049,64
52.4421,51
52.4792,58
52.5164,48
52.5535,49
52.5907,43
52.6278,56
52.6650,48
52.7021,63
52.7393,67
52.7764,62
52.8136,65
52.8507,55
52.8879,56
52.9250,77
52.9622,47
52.9994,52
53.0365,61
53.0737,52
53.1108,50
53.1480,58
53.1851,50
53.2223,43
53.2594,63
53.2966,52
53.3337,57
53.3709,67
53.4080,57
53.4452,53
53.4823,58
53.5195,45
53.5566,46
53.5938,54
53.6309,56
53.6681,60
53.7052,57
53.7424,63
53.7795,46
53.8167,51
53.8538,66
53.8910,57
53.9281,63
53.9653,63
54.0024,86
54.0396,66
54.0767,69
54.1139,76
54.1510,56
54.1882,63
54.2253,58
54.2625,62
54.2996,70
54.3368,50
54.3739,56
54.4111,68
54.4482,60
54.4854,43
54.5225,66
54.5597,44
54.5969,52
54.6340,57
54.6712,57
54.7083,63
54.7455,61
54.7826,54
54.8198,69
54.8569,58
54.8941,55
54.9312,50
54.9684,49
55.0055,52
55.0427,50
55.0798,65
55.1170,61
55.1541,52
55.1913,57
55.2284,67
55.2656,54
55.3027,54
55.3399,41
55.3770,57
55.4142,59
55.4513,48
55.4885,60
55.5256,43
55.5628,59
55.5999,62
55.6371,53
55.6742,62
55.7114,62
55.7485,67
55.7857,51
55.8228,63
55.8600,62
55.8971,66
55.9343,50
55.9714,67
56.0086,55
56.0457,47
56.0829,67
56.1201,55
56.1572,61
56.1944,66
56.2315,65
56.2687,66
56.3058,56
56.3430,58
56.3801,67
56.4173,64
56.4544,64
56.4916,62
56.5287,59
56.5659,58
56.6030,48
56.6402,71
56.6773,56
56.7145,55
56.7516,47
56.7888,46
56.8259,52
56.8631,58
56.9002,66
56.9374,46
56.9745,71
57.0117,58
57.0488,54
57.0860,57
57.1231,46
57.1603,70
57.1974,57
57.2346,65
57.2717,52
57.3089,59
57.3460,50
57.3832,64
57.4203,55
57.4575,51
57.4946,45
57.5318,65
57.5689,58
57.6061,49
57.6433,67
57.6804,54
57.7176,52
57.7547,71
57.7919,58
57.8290,65
57.8662,57
57.9033,61
57.9405,61
57.9776,62
58.0148,70
58.0519,50
58.0891,50
58.1262,51
58.1634,53
58.2005,71
58.2377,45
58.2748,62
58.3120,56
58.3491,61
58.3863,52
58.4234,37
58.4606,54
58.4977,50
58.5349,58
58.5720,56
58.6092,50
58.6463,60
58.6835,56
58.7206,55
58.7578,44
58.7949,30
58.8321,44
58.8692,55
58.9064,56
58.9435,54
58.9807,45
59.0178,49
59.0550,63
59.0921,47
59.1293,53
59.1664,41
59.2036,54
59.2408,50
59.2779,60
59.3151,54
59.3522,60
59.3894,56
59.4265,45
59.4637,46
59.5008,41
59.5380,55
59.5751,58
59.6123,46
59.6494,55
59.6866,58
59.7237,50
59.7609,66
59.7980,56
59.8352,59
59.8723,47
59.9095,49
59.9466,53
59.9838,53
60.0024,51