File: notebooks/data/xrd_data/ML_20220720_1_SJD_4_LaB6-1min.uxd
; (content of file Y:\Sam\Apurva-07-20-2022\puck4\ML_20220718_1_SJD_0_LaB6-1min.raw)
_FILEVERSION = 3
_SAMPLE = ML_20220718_1_SJD_0_LaB6-1mi
_+SAMPLE =
_SITE = USA
_USER = Administrator
_GONIOMETER_CODE = 20
; Goniometer : D8 theta/2theta, stage : Unknown
_ATTACHMENTS_CODE = 0
_GONIOMETER_RADIUS = 200.5
_FIXED_DIVSLIT = 0.6
_FIXED_SAMPLESLIT = 0
_SOLLER_SLITS = 2
_FIXED_DETSLIT = 9.55
_MONOCHROMATOR = 0
; Incident beam monochromator : None
_SOLLER_SLITS_2 = N
_THIN_FILM = N
_BETA_FILTER = Y
_FIXED_ANTISLIT = 5.89
_ANALYZER_CODE = 0
; Received beam analyzer : None
_DATEMEASURED = "21-Jul-2022 03:00:33"
_WL_UNIT = A
_WL1 = 1.5406
_WL2 = 1.54439
_WL3 = 1.39222
_WLRATIO = 0.5
_ANODE = Cu
_V4_INF_CREATOR = XRDWizard
_V4_INF_CREATOR_VERSION = V2.9.0.22
_V4_INF_WIZARD_VERSION = V2.9.0.22
_V4_INF_WIZARD_ADDINS = V2.9.0.22
_V4_INF_WIZARD_DOCTYPE = XRD
_V4_INF_OSUSER = McQueenLab
_V4_INF_USER = Administrator
_V4_INF_SITE = USA
_V4_INF_SAMPLEID = ML_20220718_1_SJD_0_LaB6-1mi

; Data for range 1
_DRIVE = COUPLED
_STEPTIME = 4.23
_STEPSIZE = 0.0185756
_STEPMODE = C
_START = 5
_THETA = 2.5
_2THETA = 5
_KHI = 0
_PHI = 0
_X = 0
_Y = 0
_Z = 0
_DETECTOR = 5
; Detector type : Unknown
_DETECTORSLIT = unkn
_AUX1 = 0
_AUX2 = 0
_AUX3 = 0
_TIMESTARTED = 15
_TEMP_RATE = -1
_TEMP_DELAY = -1
_KV = 40
_MA = 40
_RANGE_WL = 1.5406
_3DPLANE = 0
_V4_ADDITIONALDETECTOR = 257
_V4_PSD2THETA = 3.4374
_V4_PSDCHANNEL1 = 0
_V4_PSDAPERTURE = 12.68
_V4_PSDTYPE = 5
_V4_PSDFIXED = 0
_V4_COUNTERS_MASK = 4096
_V4_DRIVES_MASK = 0
_V4_ENCODERS_MASK = 0
_2THETACOUNTS = 1
; 2THETA  PSD
   5.0000         97
   5.0372        110
   5.0743         90
   5.1115         93
   5.1486         74
   5.1858        102
   5.2229         86
   5.2601         88
   5.2972         79
   5.3344         83
   5.3715         72
   5.4087         91
   5.4458         83
   5.4830         70
   5.5201         76
   5.5573         63
   5.5944         69
   5.6316         78
   5.6687         74
   5.7059         83
   5.7430         74
   5.7802         81
   5.8173         72
   5.8545         75
   5.8916         81
   5.9288         60
   5.9659         55
   6.0031         55
   6.0402         81
   6.0774         68
   6.1145         82
   6.1517         67
   6.1888         62
   6.2260         74
   6.2631         64
   6.3003         55
   6.3374         70
   6.3746         67
   6.4117         67
   6.4489         72
   6.4860         57
   6.5232         60
   6.5604         63
   6.5975         59
   6.6347         64
   6.6718         62
   6.7090         53
   6.7461         47
   6.7833         56
   6.8204         66
   6.8576         61
   6.8947         65
   6.9319         59
   6.9690         72
   7.0062         70
   7.0433         59
   7.0805         61
   7.1176         59
   7.1548         67
   7.1919         34
   7.2291         57
   7.2662         61
   7.3034         41
   7.3405         55
   7.3777         47
   7.4148         63
   7.4520         64
   7.4891         58
   7.5263         63
   7.5634         63
   7.6006         50
   7.6377         72
   7.6749         69
   7.7120         75
   7.7492         71
   7.7863         63
   7.8235         66
   7.8606         55
   7.8978         55
   7.9349         68
   7.9721         65
   8.0092         68
   8.0464         77
   8.0835         53
   8.1207         85
   8.1579         74
   8.1950         54
   8.2322         79
   8.2693         72
   8.3065         77
   8.3436         80
   8.3808         68
   8.4179         72
   8.4551         72
   8.4922         58
   8.5294         73
   8.5665         66
   8.6037         85
   8.6408         72
   8.6780         61
   8.7151         61
   8.7523         89
   8.7894         76
   8.8266         89
   8.8637         59
   8.9009         75
   8.9380         74
   8.9752         78
   9.0123         77
   9.0495         73
   9.0866         68
   9.1238         85
   9.1609         68
   9.1981         81
   9.2352         81
   9.2724         71
   9.3095         78
   9.3467         81
   9.3838         78
   9.4210         80
   9.4581        101
   9.4953         85
   9.5324         86
   9.5696         66
   9.6067         77
   9.6439         55
   9.6811         83
   9.7182         94
   9.7554         89
   9.7925         76
   9.8297         80
   9.8668         86
   9.9040         91
   9.9411         89
   9.9783        109
  10.0154         81
  10.0526         92
  10.0897        115
  10.1269         80
  10.1640         89
  10.2012         90
  10.2383         71
  10.2755         71
  10.3126         83
  10.3498         94
  10.3869         80
  10.4241         76
  10.4612         88
  10.4984        104
  10.5355         84
  10.5727         72
  10.6098         89
  10.6470         94
  10.6841        101
  10.7213         80
  10.7584         87
  10.7956         87
  10.8327         88
  10.8699         85
  10.9070         81
  10.9442         73
  10.9813         95
  11.0185         75
  11.0556         96
  11.0928         85
  11.1299         78
  11.1671         73
  11.2043         89
  11.2414         75
  11.2786         87
  11.3157         70
  11.3529         76
  11.3900         79
  11.4272         92
  11.4643         89
  11.5015         82
  11.5386         90
  11.5758         95
  11.6129         86
  11.6501         88
  11.6872         71
  11.7244        100
  11.7615         75
  11.7987         74
  11.8358         98
  11.8730         95
  11.9101         82
  11.9473         86
  11.9844         80
  12.0216         70
  12.0587        102
  12.0959         78
  12.1330         87
  12.1702         74
  12.2073         82
  12.2445         86
  12.2816         69
  12.3188         77
  12.3559         83
  12.3931         75
  12.4302         59
  12.4674         88
  12.5045         78
  12.5417         70
  12.5788         75
  12.6160         78
  12.6531         77
  12.6903         74
  12.7274         80
  12.7646         72
  12.8018         76
  12.8389         67
  12.8761         83
  12.9132         68
  12.9504         74
  12.9875         78
  13.0247         79
  13.0618         74
  13.0990         82
  13.1361         59
  13.1733         68
  13.2104         69
  13.2476         75
  13.2847         72
  13.3219         73
  13.3590         67
  13.3962         60
  13.4333         69
  13.4705         71
  13.5076         62
  13.5448         74
  13.5819         57
  13.6191         74
  13.6562         64
  13.6934         68
  13.7305         64
  13.7677         72
  13.8048         68
  13.8420         63
  13.8791         62
  13.9163         56
  13.9534         75
  13.9906         41
  14.0277         74
  14.0649         65
  14.1020         67
  14.1392         50
  14.1763         71
  14.2135         66
  14.2506         45
  14.2878         76
  14.3250         64
  14.3621         66
  14.3993         71
  14.4364         58
  14.4736         65
  14.5107         68
  14.5479         59
  14.5850         61
  14.6222         49
  14.6593         39
  14.6965         67
  14.7336         58
  14.7708         71
  14.8079         74
  14.8451         57
  14.8822         77
  14.9194         67
  14.9565         68
  14.9937         57
  15.0308         78
  15.0680         62
  15.1051         58
  15.1423         59
  15.1794         54
  15.2166         60
  15.2537         67
  15.2909         58
  15.3280         62
  15.3652         51
  15.4023         47
  15.4395         65
  15.4766         62
  15.5138         42
  15.5509         69
  15.5881         71
  15.6252         65
  15.6624         61
  15.6995         64
  15.7367         58
  15.7738         51
  15.8110         61
  15.8482         63
  15.8853         68
  15.9225         52
  15.9596         68
  15.9968         66
  16.0339         65
  16.0711         67
  16.1082         57
  16.1454         57
  16.1825         62
  16.2197         70
  16.2568         65
  16.2940         63
  16.3311         57
  16.3683         62
  16.4054         47
  16.4426         58
  16.4797         68
  16.5169         70
  16.5540         62
  16.5912         71
  16.6283         57
  16.6655         55
  16.7026         69
  16.7398         50
  16.7769         61
  16.8141         55
  16.8512         64
  16.8884         71
  16.9255         60
  16.9627         58
  16.9998         65
  17.0370         48
  17.0741         66
  17.1113         62
  17.1484         50
  17.1856         49
  17.2227         67
  17.2599         63
  17.2970         67
  17.3342         48
  17.3713         55
  17.4085         59
  17.4457         47
  17.4828         59
  17.5200         58
  17.5571         60
  17.5943         55
  17.6314         51
  17.6686         56
  17.7057         60
  17.7429         70
  17.7800         48
  17.8172         54
  17.8543         48
  17.8915         65
  17.9286         62
  17.9658         55
  18.0029         72
  18.0401         59
  18.0772         66
  18.1144         61
  18.1515         49
  18.1887         72
  18.2258         53
  18.2630         64
  18.3001         59
  18.3373         60
  18.3744         72
  18.4116         71
  18.4487         64
  18.4859         76
  18.5230         54
  18.5602         64
  18.5973         59
  18.6345         62
  18.6716         51
  18.7088         57
  18.7459         57
  18.7831         63
  18.8202         67
  18.8574         55
  18.8945         59
  18.9317         53
  18.9689         50
  19.0060         48
  19.0432         60
  19.0803         58
  19.1175         41
  19.1546         72
  19.1918         66
  19.2289         63
  19.2661         57
  19.3032         71
  19.3404         60
  19.3775         61
  19.4147         62
  19.4518         63
  19.4890         72
  19.5261         67
  19.5633         62
  19.6004         56
  19.6376         60
  19.6747         63
  19.7119         59
  19.7490         62
  19.7862         71
  19.8233         53
  19.8605         67
  19.8976         62
  19.9348         73
  19.9719         71
  20.0091         54
  20.0462         58
  20.0834         58
  20.1205         59
  20.1577         58
  20.1948         65
  20.2320         71
  20.2691         55
  20.3063         57
  20.3434         55
  20.3806         60
  20.4177         65
  20.4549         70
  20.4921         56
  20.5292         61
  20.5664         68
  20.6035         54
  20.6407         65
  20.6778         69
  20.7150         78
  20.7521         68
  20.7893         85
  20.8264         80
  20.8636         71
  20.9007         67
  20.9379         49
  20.9750         68
  21.0122         83
  21.0493         80
  21.0865         75
  21.1236         93
  21.1608         81
  21.1979        116
  21.2351        108
  21.2722        136
  21.3094        138
  21.3465        189
  21.3837        127
  21.4208         88
  21.4580         73
  21.4951         74
  21.5323         78
  21.5694         67
  21.6066         70
  21.6437         71
  21.6809         68
  21.7180         70
  21.7552         73
  21.7923         57
  21.8295         70
  21.8666         94
  21.9038         56
  21.9409         59
  21.9781         62
  22.0152         78
  22.0524         54
  22.0896         76
  22.1267         73
  22.1639         66
  22.2010         59
  22.2382         77
  22.2753         78
  22.3125         71
  22.3496         73
  22.3868         72
  22.4239         58
  22.4611         64
  22.4982         70
  22.5354         68
  22.5725         65
  22.6097         66
  22.6468         67
  22.6840         60
  22.7211         77
  22.7583         79
  22.7954         64
  22.8326         77
  22.8697         58
  22.9069         67
  22.9440         71
  22.9812         74
  23.0183         83
  23.0555         71
  23.0926         73
  23.1298         54
  23.1669         73
  23.2041         76
  23.2412         59
  23.2784         72
  23.3155         67
  23.3527         67
  23.3898         70
  23.4270         86
  23.4641         78
  23.5013         74
  23.5384         81
  23.5756         81
  23.6128         85
  23.6499         71
  23.6871         67
  23.7242         67
  23.7614         72
  23.7985         67
  23.8357         71
  23.8728         74
  23.9100         76
  23.9471         82
  23.9843         69
  24.0214         84
  24.0586         71
  24.0957         82
  24.1329         77
  24.1700         75
  24.2072         92
  24.2443         81
  24.2815         87
  24.3186         81
  24.3558         71
  24.3929         70
  24.4301         83
  24.4672         73
  24.5044         72
  24.5415         80
  24.5787         60
  24.6158         65
  24.6530         74
  24.6901         68
  24.7273         71
  24.7644         76
  24.8016         70
  24.8387         80
  24.8759         71
  24.9130         59
  24.9502         78
  24.9873         67
  25.0245         65
  25.0616         81
  25.0988         66
  25.1360         62
  25.1731         72
  25.2103         74
  25.2474         73
  25.2846         60
  25.3217         66
  25.3589         72
  25.3960         73
  25.4332         54
  25.4703         81
  25.5075         67
  25.5446         62
  25.5818         65
  25.6189         74
  25.6561         77
  25.6932         88
  25.7304         68
  25.7675         62
  25.8047         80
  25.8418         60
  25.8790         60
  25.9161         60
  25.9533         79
  25.9904         79
  26.0276         69
  26.0647         77
  26.1019         69
  26.1390         75
  26.1762         75
  26.2133         66
  26.2505         70
  26.2876         68
  26.3248         63
  26.3619         67
  26.3991         65
  26.4362         68
  26.4734         72
  26.5105         57
  26.5477         76
  26.5848         72
  26.6220         70
  26.6591         73
  26.6963         73
  26.7335         69
  26.7706         68
  26.8078         66
  26.8449         67
  26.8821         59
  26.9192         59
  26.9564         75
  26.9935         63
  27.0307         58
  27.0678         69
  27.1050         73
  27.1421         84
  27.1793         90
  27.2164         86
  27.2536         79
  27.2907         75
  27.3279         65
  27.3650         66
  27.4022         66
  27.4393         61
  27.4765         63
  27.5136         61
  27.5508         69
  27.5879         68
  27.6251         72
  27.6622         69
  27.6994         59
  27.7365         55
  27.7737         58
  27.8108         67
  27.8480         63
  27.8851         69
  27.9223         62
  27.9594         71
  27.9966         64
  28.0337         67
  28.0709         62
  28.1080         56
  28.1452         63
  28.1823         74
  28.2195         66
  28.2567         71
  28.2938         64
  28.3310         55
  28.3681         54
  28.4053         59
  28.4424         51
  28.4796         52
  28.5167         58
  28.5539         66
  28.5910         43
  28.6282         64
  28.6653         58
  28.7025         62
  28.7396         55
  28.7768         60
  28.8139         46
  28.8511         63
  28.8882         64
  28.9254         68
  28.9625         52
  28.9997         62
  29.0368         66
  29.0740         62
  29.1111         55
  29.1483         53
  29.1854         70
  29.2226         54
  29.2597         66
  29.2969         60
  29.3340         47
  29.3712         63
  29.4083         53
  29.4455         63
  29.4826         65
  29.5198         51
  29.5569         69
  29.5941         51
  29.6312         53
  29.6684         55
  29.7055         55
  29.7427         70
  29.7799         56
  29.8170         40
  29.8542         56
  29.8913         64
  29.9285         43
  29.9656         65
  30.0028         53
  30.0399         68
  30.0771         72
  30.1142         57
  30.1514         64
  30.1885         55
  30.2257         61
  30.2628         61
  30.3000         83
  30.3371         83
  30.3743        109
  30.4114        100
  30.4486         74
  30.4857         55
  30.5229         60
  30.5600         54
  30.5972         64
  30.6343         60
  30.6715         72
  30.7086         62
  30.7458         63
  30.7829         56
  30.8201         49
  30.8572         55
  30.8944         59
  30.9315         42
  30.9687         47
  31.0058         54
  31.0430         39
  31.0801         39
  31.1173         60
  31.1544         58
  31.1916         53
  31.2287         45
  31.2659         61
  31.3030         45
  31.3402         65
  31.3774         38
  31.4145         53
  31.4517         53
  31.4888         39
  31.5260         41
  31.5631         63
  31.6003         45
  31.6374         39
  31.6746         50
  31.7117         49
  31.7489         40
  31.7860         36
  31.8232         32
  31.8603         38
  31.8975         44
  31.9346         52
  31.9718         53
  32.0089         52
  32.0461         55
  32.0832         46
  32.1204         44
  32.1575         44
  32.1947         49
  32.2318         57
  32.2690         54
  32.3061         51
  32.3433         45
  32.3804         57
  32.4176         55
  32.4547         57
  32.4919         56
  32.5290         43
  32.5662         51
  32.6033         52
  32.6405         58
  32.6776         47
  32.7148         42
  32.7519         41
  32.7891         44
  32.8262         45
  32.8634         57
  32.9006         47
  32.9377         46
  32.9749         43
  33.0120         48
  33.0492         61
  33.0863         44
  33.1235         49
  33.1606         47
  33.1978         30
  33.2349         38
  33.2721         39
  33.3092         35
  33.3464         37
  33.3835         40
  33.4207         45
  33.4578         51
  33.4950         46
  33.5321         42
  33.5693         48
  33.6064         48
  33.6436         62
  33.6807         45
  33.7179         40
  33.7550         53
  33.7922         48
  33.8293         47
  33.8665         32
  33.9036         33
  33.9408         49
  33.9779         40
  34.0151         34
  34.0522         37
  34.0894         29
  34.1265         42
  34.1637         27
  34.2008         38
  34.2380         40
  34.2751         40
  34.3123         42
  34.3494         44
  34.3866         40
  34.4238         36
  34.4609         38
  34.4981         57
  34.5352         44
  34.5724         49
  34.6095         47
  34.6467         50
  34.6838         56
  34.7210         60
  34.7581         57
  34.7953         63
  34.8324         45
  34.8696         47
  34.9067         42
  34.9439         50
  34.9810         26
  35.0182         40
  35.0553         33
  35.0925         37
  35.1296         32
  35.1668         34
  35.2039         46
  35.2411         39
  35.2782         45
  35.3154         33
  35.3525         44
  35.3897         42
  35.4268         33
  35.4640         37
  35.5011         40
  35.5383         33
  35.5754         38
  35.6126         36
  35.6497         41
  35.6869         27
  35.7240         49
  35.7612         35
  35.7983         39
  35.8355         31
  35.8726         31
  35.9098         35
  35.9469         38
  35.9841         42
  36.0213         41
  36.0584         32
  36.0956         41
  36.1327         36
  36.1699         37
  36.2070         31
  36.2442         41
  36.2813         27
  36.3185         24
  36.3556         38
  36.3928         39
  36.4299         34
  36.4671         33
  36.5042         35
  36.5414         29
  36.5785         33
  36.6157         37
  36.6528         34
  36.6900         38
  36.7271         33
  36.7643         26
  36.8014         42
  36.8386         43
  36.8757         34
  36.9129         37
  36.9500         28
  36.9872         35
  37.0243         32
  37.0615         22
  37.0986         35
  37.1358         35
  37.1729         29
  37.2101         32
  37.2472         29
  37.2844         36
  37.3215         30
  37.3587         28
  37.3958         50
  37.4330         54
  37.4701         40
  37.5073         36
  37.5445         31
  37.5816         36
  37.6188         30
  37.6559         34
  37.6931         24
  37.7302         26
  37.7674         27
  37.8045         48
  37.8417         48
  37.8788         36
  37.9160         41
  37.9531         34
  37.9903         30
  38.0274         41
  38.0646         29
  38.1017         23
  38.1389         32
  38.1760         34
  38.2132         27
  38.2503         28
  38.2875         27
  38.3246         24
  38.3618         29
  38.3989         25
  38.4361         32
  38.4732         29
  38.5104         31
  38.5475         37
  38.5847         24
  38.6218         29
  38.6590         25
  38.6961         32
  38.7333         34
  38.7704         22
  38.8076         26
  38.8447         35
  38.8819         24
  38.9190         30
  38.9562         29
  38.9933         28
  39.0305         43
  39.0677         30
  39.1048         29
  39.1420         30
  39.1791         35
  39.2163         23
  39.2534         24
  39.2906         26
  39.3277         28
  39.3649         27
  39.4020         32
  39.4392         30
  39.4763         23
  39.5135         28
  39.5506         28
  39.5878         24
  39.6249         20
  39.6621         29
  39.6992         21
  39.7364         29
  39.7735         33
  39.8107         36
  39.8478         25
  39.8850         26
  39.9221         30
  39.9593         35
  39.9964         27
  40.0336         33
  40.0707         34
  40.1079         26
  40.1450         27
  40.1822         28
  40.2193         29
  40.2565         32
  40.2936         32
  40.3308         25
  40.3679         36
  40.4051         28
  40.4422         34
  40.4794         23
  40.5165         29
  40.5537         30
  40.5908         30
  40.6280         25
  40.6652         24
  40.7023         36
  40.7395         26
  40.7766         32
  40.8138         31
  40.8509         30
  40.8881         28
  40.9252         35
  40.9624         32
  40.9995         41
  41.0367         25
  41.0738         33
  41.1110         27
  41.1481         34
  41.1853         29
  41.2224         27
  41.2596         29
  41.2967         40
  41.3339         19
  41.3710         22
  41.4082         34
  41.4453         24
  41.4825         26
  41.5196         34
  41.5568         27
  41.5939         36
  41.6311         37
  41.6682         29
  41.7054         28
  41.7425         23
  41.7797         30
  41.8168         32
  41.8540         26
  41.8911         29
  41.9283         28
  41.9654         28
  42.0026         36
  42.0397         30
  42.0769         18
  42.1140         34
  42.1512         32
  42.1884         28
  42.2255         22
  42.2627         28
  42.2998         22
  42.3370         16
  42.3741         29
  42.4113         28
  42.4484         34
  42.4856         29
  42.5227         31
  42.5599         21
  42.5970         36
  42.6342         28
  42.6713         35
  42.7085         33
  42.7456         29
  42.7828         34
  42.8199         29
  42.8571         25
  42.8942         20
  42.9314         29
  42.9685         29
  43.0057         31
  43.0428         30
  43.0800         21
  43.1171         24
  43.1543         24
  43.1914         40
  43.2286         31
  43.2657         29
  43.3029         37
  43.3400         34
  43.3772         31
  43.4143         31
  43.4515         36
  43.4886         56
  43.5258         39
  43.5629         27
  43.6001         35
  43.6372         34
  43.6744         31
  43.7116         25
  43.7487         19
  43.7859         29
  43.8230         25
  43.8602         28
  43.8973         30
  43.9345         25
  43.9716         32
  44.0088         35
  44.0459         34
  44.0831         26
  44.1202         27
  44.1574         30
  44.1945         27
  44.2317         26
  44.2688         24
  44.3060         25
  44.3431         21
  44.3803         26
  44.4174         19
  44.4546         25
  44.4917         27
  44.5289         28
  44.5660         28
  44.6032         30
  44.6403         27
  44.6775         38
  44.7146         20
  44.7518         20
  44.7889         31
  44.8261         30
  44.8632         19
  44.9004         29
  44.9375         26
  44.9747         29
  45.0118         26
  45.0490         18
  45.0861         19
  45.1233         34
  45.1604         30
  45.1976         32
  45.2347         35
  45.2719         28
  45.3091         27
  45.3462         27
  45.3834         27
  45.4205         33
  45.4577         20
  45.4948         20
  45.5320         18
  45.5691         26
  45.6063         29
  45.6434         32
  45.6806         30
  45.7177         28
  45.7549         27
  45.7920         17
  45.8292         26
  45.8663         24
  45.9035         27
  45.9406         22
  45.9778         27
  46.0149         22
  46.0521         25
  46.0892         25
  46.1264         32
  46.1635         23
  46.2007         23
  46.2378         33
  46.2750         24
  46.3121         22
  46.3493         22
  46.3864         32
  46.4236         27
  46.4607         23
  46.4979         35
  46.5350         23
  46.5722         24
  46.6093         17
  46.6465         24
  46.6836         20
  46.7208         29
  46.7579         27
  46.7951         12
  46.8323         35
  46.8694         28
  46.9066         24
  46.9437         15
  46.9809         24
  47.0180         22
  47.0552         27
  47.0923         24
  47.1295         25
  47.1666         23
  47.2038         24
  47.2409         13
  47.2781         24
  47.3152         25
  47.3524         24
  47.3895         34
  47.4267         27
  47.4638         23
  47.5010         24
  47.5381         15
  47.5753         27
  47.6124         33
  47.6496         24
  47.6867         17
  47.7239         20
  47.7610         24
  47.7982         23
  47.8353         25
  47.8725         28
  47.9096         33
  47.9468         27
  47.9839         23
  48.0211         23
  48.0582         25
  48.0954         18
  48.1325         20
  48.1697         23
  48.2068         30
  48.2440         26
  48.2811         20
  48.3183         16
  48.3555         22
  48.3926         29
  48.4298         25
  48.4669         22
  48.5041         18
  48.5412         24
  48.5784         17
  48.6155         22
  48.6527         22
  48.6898         31
  48.7270         20
  48.7641         16
  48.8013         28
  48.8384         24
  48.8756         25
  48.9127         33
  48.9499         45
  48.9870         32
  49.0242         28
  49.0613         49
  49.0985         24
  49.1356         21
  49.1728         27
  49.2099         28
  49.2471         28
  49.2842         25
  49.3214         18
  49.3585         21
  49.3957         31
  49.4328         29
  49.4700         21
  49.5071         23
  49.5443         29
  49.5814         27
  49.6186         33
  49.6557         27
  49.6929         32
  49.7300         24
  49.7672         22
  49.8043         31
  49.8415         25
  49.8786         20
  49.9158         22
  49.9530         23
  49.9901         29
  50.0273         25
  50.0644         20
  50.1016         25
  50.1387         21
  50.1759         26
  50.2130         24
  50.2502         23
  50.2873         23
  50.3245         23
  50.3616         25
  50.3988         18
  50.4359         19
  50.4731         26
  50.5102         25
  50.5474         33
  50.5845         30
  50.6217         32
  50.6588         23
  50.6960         37
  50.7331         17
  50.7703         18
  50.8074         19
  50.8446         24
  50.8817         25
  50.9189         19
  50.9560         32
  50.9932         21
  51.0303         24
  51.0675         26
  51.1046         14
  51.1418         20
  51.1789         23
  51.2161         22
  51.2532         21
  51.2904         25
  51.3275         23
  51.3647         25
  51.4018         21
  51.4390         29
  51.4762         31
  51.5133         24
  51.5505         20
  51.5876         16
  51.6248         26
  51.6619         22
  51.6991         22
  51.7362         25
  51.7734         25
  51.8105         27
  51.8477         26
  51.8848         30
  51.9220         23
  51.9591         25
  51.9963         25
  52.0334         22
  52.0706         26
  52.1077         21
  52.1449         18
  52.1820         27
  52.2192         22
  52.2563         22
  52.2935         18
  52.3306         16
  52.3678         24
  52.4049         21
  52.4421         19
  52.4792         18
  52.5164         21
  52.5535         20
  52.5907         20
  52.6278         20
  52.6650         23
  52.7021         28
  52.7393         17
  52.7764         17
  52.8136         19
  52.8507         20
  52.8879         19
  52.9250         20
  52.9622         22
  52.9994         20
  53.0365         21
  53.0737         16
  53.1108         25
  53.1480         24
  53.1851         32
  53.2223         14
  53.2594         20
  53.2966         18
  53.3337         15
  53.3709         22
  53.4080         25
  53.4452         18
  53.4823         25
  53.5195         23
  53.5566         16
  53.5938         19
  53.6309         24
  53.6681         24
  53.7052         29
  53.7424         23
  53.7795         26
  53.8167         16
  53.8538         21
  53.8910         32
  53.9281         21
  53.9653         28
  54.0024         32
  54.0396         26
  54.0767         17
  54.1139         26
  54.1510         29
  54.1882         20
  54.2253         26
  54.2625         19
  54.2996         22
  54.3368         30
  54.3739         15
  54.4111         19
  54.4482         27
  54.4854         27
  54.5225         20
  54.5597         31
  54.5969         19
  54.6340         20
  54.6712         13
  54.7083         18
  54.7455         23
  54.7826         20
  54.8198         18
  54.8569         15
  54.8941         17
  54.9312         16
  54.9684         14
  55.0055         15
  55.0427         21
  55.0798         17
  55.1170         18
  55.1541         21
  55.1913         18
  55.2284         19
  55.2656         22
  55.3027         18
  55.3399         16
  55.3770         26
  55.4142         29
  55.4513         20
  55.4885         34
  55.5256         25
  55.5628         12
  55.5999         24
  55.6371         19
  55.6742         23
  55.7114         21
  55.7485         16
  55.7857         18
  55.8228         20
  55.8600         15
  55.8971         21
  55.9343         22
  55.9714         28
  56.0086         20
  56.0457         26
  56.0829         23
  56.1201         26
  56.1572         24
  56.1944         21
  56.2315         22
  56.2687         29
  56.3058         23
  56.3430         25
  56.3801         23
  56.4173         25
  56.4544         19
  56.4916         22
  56.5287         23
  56.5659         23
  56.6030         21
  56.6402         20
  56.6773         20
  56.7145         17
  56.7516         16
  56.7888         19
  56.8259         26
  56.8631         19
  56.9002         29
  56.9374         22
  56.9745         25
  57.0117         19
  57.0488         15
  57.0860         16
  57.1231         22
  57.1603         19
  57.1974         25
  57.2346         13
  57.2717         20
  57.3089         31
  57.3460         18
  57.3832         18
  57.4203         11
  57.4575         21
  57.4946         32
  57.5318         22
  57.5689         20
  57.6061         20
  57.6433         13
  57.6804         23
  57.7176         19
  57.7547         26
  57.7919         22
  57.8290         22
  57.8662         13
  57.9033         16
  57.9405         15
  57.9776         19
  58.0148         16
  58.0519         18
  58.0891         26
  58.1262         30
  58.1634         26
  58.2005         25
  58.2377          9
  58.2748         25
  58.3120         24
  58.3491         22
  58.3863         16
  58.4234         20
  58.4606         20
  58.4977         18
  58.5349         15
  58.5720         23
  58.6092         26
  58.6463         22
  58.6835         17
  58.7206         13
  58.7578         18
  58.7949         18
  58.8321         18
  58.8692         13
  58.9064         17
  58.9435         13
  58.9807         26
  59.0178         23
  59.0550         26
  59.0921         24
  59.1293         23
  59.1664         19
  59.2036         15
  59.2408         18
  59.2779         20
  59.3151         13
  59.3522         25
  59.3894         27
  59.4265         13
  59.4637         21
  59.5008         15
  59.5380         16
  59.5751         22
  59.6123         17
  59.6494         19
  59.6866         18
  59.7237         22
  59.7609         20
  59.7980         25
  59.8352         21
  59.8723         28
  59.9095         21
  59.9466         31
  59.9838         24
  60.0024         20