File: notebooks/data/xrd_data/ML_20220721_13_SJD_4_LaB6-4min.uxd
; (content of file Y:\Sam\Apurva-07-20-2022\puck1\ML_20220721_13_SJD_0_LaB6-4min.raw)
_FILEVERSION = 3
_SAMPLE = ML_20220721_13_SJD_0_LaB6-4min
_+SAMPLE =
_SITE = USA
_USER = Administrator
_GONIOMETER_CODE = 20
; Goniometer : D8 theta/2theta, stage : Unknown
_ATTACHMENTS_CODE = 0
_GONIOMETER_RADIUS = 200.5
_FIXED_DIVSLIT = 0.6
_FIXED_SAMPLESLIT = 0
_SOLLER_SLITS = 2
_FIXED_DETSLIT = 9.55
_MONOCHROMATOR = 0
; Incident beam monochromator : None
_SOLLER_SLITS_2 = N
_THIN_FILM = N
_BETA_FILTER = Y
_FIXED_ANTISLIT = 5.89
_ANALYZER_CODE = 0
; Received beam analyzer : None
_DATEMEASURED = "25-Jul-2022 14:50:52"
_WL_UNIT = A
_WL1 = 1.5406
_WL2 = 1.54439
_WL3 = 1.39222
_WLRATIO = 0.5
_ANODE = Cu
_V4_INF_CREATOR = XRDWizard
_V4_INF_CREATOR_VERSION = V2.9.0.22
_V4_INF_WIZARD_VERSION = V2.9.0.22
_V4_INF_WIZARD_ADDINS = V2.9.0.22
_V4_INF_WIZARD_DOCTYPE = XRD
_V4_INF_OSUSER = McQueenLab
_V4_INF_USER = Administrator
_V4_INF_SITE = USA
_V4_INF_SAMPLEID = ML_20220721_13_SJD_0_LaB6-4min

; Data for range 1
_DRIVE = COUPLED
_STEPTIME = 11.28
_STEPSIZE = 0.0185756
_STEPMODE = C
_START = 5
_THETA = 2.5
_2THETA = 5
_KHI = 0
_PHI = 0
_X = 0
_Y = 0
_Z = 0
_DETECTOR = 5
; Detector type : Unknown
_DETECTORSLIT = unkn
_AUX1 = 0
_AUX2 = 0
_AUX3 = 0
_TIMESTARTED = 15
_TEMP_RATE = -1
_TEMP_DELAY = -1
_KV = 40
_MA = 40
_RANGE_WL = 1.5406
_3DPLANE = 0
_V4_ADDITIONALDETECTOR = 257
_V4_PSD2THETA = 3.3889
_V4_PSDCHANNEL1 = 0
_V4_PSDAPERTURE = 12.68
_V4_PSDTYPE = 5
_V4_PSDFIXED = 0
_V4_COUNTERS_MASK = 4096
_V4_DRIVES_MASK = 0
_V4_ENCODERS_MASK = 0
_2THETACOUNTS = 1
; 2THETA  PSD
   5.0000        288
   5.0372        297
   5.0743        271
   5.1115        245
   5.1486        256
   5.1858        258
   5.2229        224
   5.2601        257
   5.2972        242
   5.3344        271
   5.3715        257
   5.4087        253
   5.4458        264
   5.4830        265
   5.5201        230
   5.5573        223
   5.5944        208
   5.6316        236
   5.6687        227
   5.7059        209
   5.7430        212
   5.7802        206
   5.8173        199
   5.8545        214
   5.8916        197
   5.9288        215
   5.9659        189
   6.0031        191
   6.0402        198
   6.0774        195
   6.1145        184
   6.1517        188
   6.1888        177
   6.2260        178
   6.2631        189
   6.3003        182
   6.3374        184
   6.3746        191
   6.4117        202
   6.4489        159
   6.4860        177
   6.5232        185
   6.5604        195
   6.5975        172
   6.6347        174
   6.6718        204
   6.7090        158
   6.7461        151
   6.7833        187
   6.8204        160
   6.8576        158
   6.8947        186
   6.9319        180
   6.9690        182
   7.0062        150
   7.0433        152
   7.0805        170
   7.1176        168
   7.1548        142
   7.1919        168
   7.2291        149
   7.2662        161
   7.3034        167
   7.3405        160
   7.3777        165
   7.4148        148
   7.4520        167
   7.4891        180
   7.5263        163
   7.5634        174
   7.6006        178
   7.6377        174
   7.6749        161
   7.7120        181
   7.7492        213
   7.7863        183
   7.8235        195
   7.8606        177
   7.8978        161
   7.9349        178
   7.9721        184
   8.0092        221
   8.0464        193
   8.0835        210
   8.1207        174
   8.1579        177
   8.1950        195
   8.2322        190
   8.2693        208
   8.3065        211
   8.3436        200
   8.3808        204
   8.4179        202
   8.4551        194
   8.4922        184
   8.5294        193
   8.5665        188
   8.6037        186
   8.6408        222
   8.6780        201
   8.7151        214
   8.7523        201
   8.7894        216
   8.8266        180
   8.8637        201
   8.9009        208
   8.9380        210
   8.9752        199
   9.0123        231
   9.0495        211
   9.0866        210
   9.1238        231
   9.1609        202
   9.1981        256
   9.2352        221
   9.2724        243
   9.3095        231
   9.3467        237
   9.3838        230
   9.4210        230
   9.4581        236
   9.4953        201
   9.5324        221
   9.5696        232
   9.6067        234
   9.6439        230
   9.6811        222
   9.7182        217
   9.7554        227
   9.7925        246
   9.8297        251
   9.8668        275
   9.9040        210
   9.9411        235
   9.9783        258
  10.0154        271
  10.0526        237
  10.0897        223
  10.1269        214
  10.1640        254
  10.2012        249
  10.2383        211
  10.2755        231
  10.3126        253
  10.3498        280
  10.3869        255
  10.4241        262
  10.4612        269
  10.4984        235
  10.5355        277
  10.5727        266
  10.6098        245
  10.6470        230
  10.6841        236
  10.7213        212
  10.7584        247
  10.7956        215
  10.8327        252
  10.8699        266
  10.9070        246
  10.9442        222
  10.9813        257
  11.0185        228
  11.0556        228
  11.0928        245
  11.1299        235
  11.1671        238
  11.2043        248
  11.2414        234
  11.2786        228
  11.3157        233
  11.3529        243
  11.3900        247
  11.4272        245
  11.4643        247
  11.5015        257
  11.5386        251
  11.5758        238
  11.6129        267
  11.6501        223
  11.6872        253
  11.7244        233
  11.7615        226
  11.7987        264
  11.8358        234
  11.8730        255
  11.9101        241
  11.9473        239
  11.9844        227
  12.0216        213
  12.0587        238
  12.0959        243
  12.1330        228
  12.1702        217
  12.2073        233
  12.2445        261
  12.2816        225
  12.3188        219
  12.3559        225
  12.3931        244
  12.4302        211
  12.4674        202
  12.5045        212
  12.5417        246
  12.5788        224
  12.6160        217
  12.6531        198
  12.6903        206
  12.7274        197
  12.7646        221
  12.8018        201
  12.8389        220
  12.8761        230
  12.9132        238
  12.9504        208
  12.9875        214
  13.0247        208
  13.0618        212
  13.0990        202
  13.1361        225
  13.1733        209
  13.2104        216
  13.2476        203
  13.2847        196
  13.3219        200
  13.3590        201
  13.3962        210
  13.4333        211
  13.4705        198
  13.5076        197
  13.5448        192
  13.5819        203
  13.6191        222
  13.6562        212
  13.6934        177
  13.7305        172
  13.7677        172
  13.8048        176
  13.8420        188
  13.8791        201
  13.9163        188
  13.9534        172
  13.9906        186
  14.0277        183
  14.0649        172
  14.1020        178
  14.1392        186
  14.1763        153
  14.2135        189
  14.2506        178
  14.2878        180
  14.3250        195
  14.3621        158
  14.3993        176
  14.4364        153
  14.4736        183
  14.5107        190
  14.5479        183
  14.5850        182
  14.6222        176
  14.6593        180
  14.6965        196
  14.7336        158
  14.7708        177
  14.8079        144
  14.8451        185
  14.8822        182
  14.9194        191
  14.9565        161
  14.9937        179
  15.0308        180
  15.0680        181
  15.1051        169
  15.1423        161
  15.1794        183
  15.2166        149
  15.2537        178
  15.2909        150
  15.3280        198
  15.3652        175
  15.4023        162
  15.4395        156
  15.4766        155
  15.5138        162
  15.5509        161
  15.5881        150
  15.6252        155
  15.6624        179
  15.6995        172
  15.7367        160
  15.7738        171
  15.8110        145
  15.8482        159
  15.8853        176
  15.9225        134
  15.9596        187
  15.9968        143
  16.0339        176
  16.0711        148
  16.1082        142
  16.1454        166
  16.1825        167
  16.2197        152
  16.2568        148
  16.2940        184
  16.3311        190
  16.3683        174
  16.4054        169
  16.4426        174
  16.4797        173
  16.5169        154
  16.5540        154
  16.5912        173
  16.6283        167
  16.6655        168
  16.7026        171
  16.7398        170
  16.7769        154
  16.8141        145
  16.8512        179
  16.8884        161
  16.9255        173
  16.9627        137
  16.9998        165
  17.0370        170
  17.0741        149
  17.1113        180
  17.1484        146
  17.1856        166
  17.2227        170
  17.2599        142
  17.2970        163
  17.3342        177
  17.3713        158
  17.4085        148
  17.4457        151
  17.4828        174
  17.5200        164
  17.5571        158
  17.5943        191
  17.6314        148
  17.6686        164
  17.7057        157
  17.7429        182
  17.7800        149
  17.8172        166
  17.8543        181
  17.8915        166
  17.9286        172
  17.9658        165
  18.0029        176
  18.0401        147
  18.0772        162
  18.1144        164
  18.1515        154
  18.1887        140
  18.2258        170
  18.2630        172
  18.3001        146
  18.3373        161
  18.3744        186
  18.4116        160
  18.4487        172
  18.4859        162
  18.5230        164
  18.5602        184
  18.5973        165
  18.6345        157
  18.6716        178
  18.7088        187
  18.7459        175
  18.7831        180
  18.8202        154
  18.8574        159
  18.8945        157
  18.9317        150
  18.9689        172
  19.0060        175
  19.0432        149
  19.0803        169
  19.1175        173
  19.1546        185
  19.1918        174
  19.2289        172
  19.2661        168
  19.3032        176
  19.3404        172
  19.3775        158
  19.4147        162
  19.4518        184
  19.4890        193
  19.5261        162
  19.5633        156
  19.6004        155
  19.6376        174
  19.6747        188
  19.7119        198
  19.7490        171
  19.7862        173
  19.8233        175
  19.8605        160
  19.8976        192
  19.9348        168
  19.9719        184
  20.0091        170
  20.0462        190
  20.0834        185
  20.1205        184
  20.1577        200
  20.1948        189
  20.2320        182
  20.2691        186
  20.3063        199
  20.3434        180
  20.3806        210
  20.4177        178
  20.4549        185
  20.4921        196
  20.5292        176
  20.5664        190
  20.6035        178
  20.6407        185
  20.6778        165
  20.7150        180
  20.7521        188
  20.7893        212
  20.8264        187
  20.8636        192
  20.9007        203
  20.9379        196
  20.9750        197
  21.0122        217
  21.0493        199
  21.0865        190
  21.1236        212
  21.1608        259
  21.1979        295
  21.2351        331
  21.2722        306
  21.3094        332
  21.3465        494
  21.3837        431
  21.4208        373
  21.4580        218
  21.4951        193
  21.5323        193
  21.5694        191
  21.6066        208
  21.6437        205
  21.6809        213
  21.7180        202
  21.7552        203
  21.7923        197
  21.8295        204
  21.8666        191
  21.9038        200
  21.9409        204
  21.9781        190
  22.0152        191
  22.0524        219
  22.0896        182
  22.1267        196
  22.1639        182
  22.2010        172
  22.2382        193
  22.2753        197
  22.3125        193
  22.3496        207
  22.3868        178
  22.4239        211
  22.4611        197
  22.4982        194
  22.5354        187
  22.5725        199
  22.6097        199
  22.6468        213
  22.6840        210
  22.7211        212
  22.7583        209
  22.7954        197
  22.8326        195
  22.8697        201
  22.9069        203
  22.9440        198
  22.9812        207
  23.0183        213
  23.0555        192
  23.0926        195
  23.1298        231
  23.1669        214
  23.2041        195
  23.2412        209
  23.2784        221
  23.3155        202
  23.3527        206
  23.3898        207
  23.4270        198
  23.4641        228
  23.5013        184
  23.5384        209
  23.5756        227
  23.6128        202
  23.6499        208
  23.6871        211
  23.7242        227
  23.7614        212
  23.7985        207
  23.8357        215
  23.8728        195
  23.9100        208
  23.9471        219
  23.9843        200
  24.0214        176
  24.0586        185
  24.0957        157
  24.1329        196
  24.1700        186
  24.2072        220
  24.2443        236
  24.2815        218
  24.3186        251
  24.3558        195
  24.3929        200
  24.4301        234
  24.4672        226
  24.5044        218
  24.5415        198
  24.5787        188
  24.6158        170
  24.6530        186
  24.6901        189
  24.7273        196
  24.7644        216
  24.8016        196
  24.8387        207
  24.8759        198
  24.9130        218
  24.9502        207
  24.9873        210
  25.0245        215
  25.0616        201
  25.0988        211
  25.1360        192
  25.1731        190
  25.2103        191
  25.2474        187
  25.2846        206
  25.3217        196
  25.3589        193
  25.3960        195
  25.4332        197
  25.4703        183
  25.5075        193
  25.5446        190
  25.5818        203
  25.6189        209
  25.6561        207
  25.6932        181
  25.7304        218
  25.7675        186
  25.8047        190
  25.8418        199
  25.8790        199
  25.9161        210
  25.9533        193
  25.9904        174
  26.0276        199
  26.0647        174
  26.1019        191
  26.1390        215
  26.1762        196
  26.2133        196
  26.2505        177
  26.2876        160
  26.3248        172
  26.3619        187
  26.3991        178
  26.4362        164
  26.4734        176
  26.5105        186
  26.5477        181
  26.5848        188
  26.6220        190
  26.6591        167
  26.6963        206
  26.7335        181
  26.7706        190
  26.8078        175
  26.8449        186
  26.8821        172
  26.9192        192
  26.9564        214
  26.9935        189
  27.0307        191
  27.0678        178
  27.1050        187
  27.1421        220
  27.1793        250
  27.2164        249
  27.2536        201
  27.2907        199
  27.3279        226
  27.3650        202
  27.4022        197
  27.4393        186
  27.4765        190
  27.5136        178
  27.5508        183
  27.5879        187
  27.6251        175
  27.6622        173
  27.6994        181
  27.7365        198
  27.7737        152
  27.8108        177
  27.8480        183
  27.8851        155
  27.9223        184
  27.9594        170
  27.9966        154
  28.0337        181
  28.0709        164
  28.1080        177
  28.1452        175
  28.1823        173
  28.2195        202
  28.2567        185
  28.2938        188
  28.3310        167
  28.3681        176
  28.4053        179
  28.4424        170
  28.4796        170
  28.5167        180
  28.5539        170
  28.5910        178
  28.6282        163
  28.6653        162
  28.7025        183
  28.7396        192
  28.7768        160
  28.8139        162
  28.8511        166
  28.8882        173
  28.9254        169
  28.9625        183
  28.9997        176
  29.0368        178
  29.0740        151
  29.1111        165
  29.1483        195
  29.1854        160
  29.2226        147
  29.2597        157
  29.2969        147
  29.3340        157
  29.3712        172
  29.4083        154
  29.4455        164
  29.4826        175
  29.5198        143
  29.5569        171
  29.5941        151
  29.6312        158
  29.6684        172
  29.7055        185
  29.7427        152
  29.7799        143
  29.8170        182
  29.8542        148
  29.8913        184
  29.9285        155
  29.9656        150
  30.0028        164
  30.0399        169
  30.0771        179
  30.1142        176
  30.1514        187
  30.1885        167
  30.2257        160
  30.2628        187
  30.3000        155
  30.3371        192
  30.3743        348
  30.4114        256
  30.4486        231
  30.4857        237
  30.5229        166
  30.5600        174
  30.5972        144
  30.6343        159
  30.6715        140
  30.7086        142
  30.7458        149
  30.7829        155
  30.8201        162
  30.8572        139
  30.8944        140
  30.9315        154
  30.9687        151
  31.0058        146
  31.0430        134
  31.0801        144
  31.1173        134
  31.1544        137
  31.1916        144
  31.2287        155
  31.2659        158
  31.3030        158
  31.3402        162
  31.3774        144
  31.4145        146
  31.4517        155
  31.4888        133
  31.5260        145
  31.5631        139
  31.6003        144
  31.6374        140
  31.6746        133
  31.7117        114
  31.7489        133
  31.7860        161
  31.8232        131
  31.8603        125
  31.8975        128
  31.9346        127
  31.9718        154
  32.0089        129
  32.0461        121
  32.0832        110
  32.1204        134
  32.1575        146
  32.1947        145
  32.2318        116
  32.2690        138
  32.3061        139
  32.3433        139
  32.3804        146
  32.4176        146
  32.4547        145
  32.4919        139
  32.5290        121
  32.5662        135
  32.6033        134
  32.6405        113
  32.6776        134
  32.7148        151
  32.7519        131
  32.7891        128
  32.8262        108
  32.8634        123
  32.9006        127
  32.9377        111
  32.9749        108
  33.0120        111
  33.0492        138
  33.0863        110
  33.1235        123
  33.1606        125
  33.1978        134
  33.2349        146
  33.2721        119
  33.3092        133
  33.3464        117
  33.3835        130
  33.4207        114
  33.4578        110
  33.4950        116
  33.5321        141
  33.5693        122
  33.6064        122
  33.6436        110
  33.6807        108
  33.7179         96
  33.7550        120
  33.7922        146
  33.8293        111
  33.8665        112
  33.9036        118
  33.9408        100
  33.9779        124
  34.0151        128
  34.0522        139
  34.0894        141
  34.1265         98
  34.1637        100
  34.2008        126
  34.2380        114
  34.2751        109
  34.3123        116
  34.3494        117
  34.3866        116
  34.4238        106
  34.4609        106
  34.4981        107
  34.5352        113
  34.5724        120
  34.6095        121
  34.6467        148
  34.6838        125
  34.7210        138
  34.7581        134
  34.7953        150
  34.8324        134
  34.8696        145
  34.9067        142
  34.9439        135
  34.9810        110
  35.0182        114
  35.0553        109
  35.0925         98
  35.1296        112
  35.1668        119
  35.2039        117
  35.2411        113
  35.2782        117
  35.3154         94
  35.3525         96
  35.3897         99
  35.4268         95
  35.4640        102
  35.5011         82
  35.5383        102
  35.5754         93
  35.6126         96
  35.6497         95
  35.6869        103
  35.7240         95
  35.7612        101
  35.7983         96
  35.8355         93
  35.8726         91
  35.9098         83
  35.9469        117
  35.9841         88
  36.0213        107
  36.0584        102
  36.0956         83
  36.1327        101
  36.1699         83
  36.2070         85
  36.2442        111
  36.2813         93
  36.3185         90
  36.3556         95
  36.3928         98
  36.4299         95
  36.4671         92
  36.5042         86
  36.5414        100
  36.5785         89
  36.6157         99
  36.6528         79
  36.6900        110
  36.7271         73
  36.7643         96
  36.8014         99
  36.8386        111
  36.8757         93
  36.9129         72
  36.9500         93
  36.9872         89
  37.0243         98
  37.0615         98
  37.0986         79
  37.1358         96
  37.1729         98
  37.2101        111
  37.2472         87
  37.2844        111
  37.3215         99
  37.3587         99
  37.3958        118
  37.4330        151
  37.4701        162
  37.5073        112
  37.5445        134
  37.5816        100
  37.6188         94
  37.6559         99
  37.6931         84
  37.7302         68
  37.7674         72
  37.8045         77
  37.8417         71
  37.8788         98
  37.9160         73
  37.9531         89
  37.9903         81
  38.0274         88
  38.0646         78
  38.1017         87
  38.1389         86
  38.1760         85
  38.2132         76
  38.2503         84
  38.2875         88
  38.3246         81
  38.3618         89
  38.3989         69
  38.4361         80
  38.4732         77
  38.5104         81
  38.5475         87
  38.5847         99
  38.6218         94
  38.6590         84
  38.6961         82
  38.7333         73
  38.7704         91
  38.8076         96
  38.8447        101
  38.8819        107
  38.9190         72
  38.9562         80
  38.9933         89
  39.0305         86
  39.0677         91
  39.1048        107
  39.1420         75
  39.1791         83
  39.2163         78
  39.2534         78
  39.2906         79
  39.3277         82
  39.3649         89
  39.4020         87
  39.4392        106
  39.4763         91
  39.5135         74
  39.5506         78
  39.5878         78
  39.6249         72
  39.6621         78
  39.6992         85
  39.7364         75
  39.7735         83
  39.8107         88
  39.8478         80
  39.8850         74
  39.9221         67
  39.9593         92
  39.9964         73
  40.0336         79
  40.0707         63
  40.1079         77
  40.1450         65
  40.1822         68
  40.2193         78
  40.2565         71
  40.2936         84
  40.3308         70
  40.3679         82
  40.4051         79
  40.4422         80
  40.4794         84
  40.5165         73
  40.5537         62
  40.5908         70
  40.6280         68
  40.6652         73
  40.7023         66
  40.7395         72
  40.7766         84
  40.8138         79
  40.8509         74
  40.8881         81
  40.9252         70
  40.9624         88
  40.9995         77
  41.0367         59
  41.0738         65
  41.1110         82
  41.1481         64
  41.1853         83
  41.2224         87
  41.2596         85
  41.2967         79
  41.3339         91
  41.3710         88
  41.4082         75
  41.4453         78
  41.4825         75
  41.5196         82
  41.5568         79
  41.5939         74
  41.6311         81
  41.6682         83
  41.7054         73
  41.7425         66
  41.7797         80
  41.8168         76
  41.8540         77
  41.8911         81
  41.9283         75
  41.9654         83
  42.0026         82
  42.0397         76
  42.0769         72
  42.1140         69
  42.1512         76
  42.1884         61
  42.2255         75
  42.2627         69
  42.2998         78
  42.3370         70
  42.3741         69
  42.4113         51
  42.4484         76
  42.4856         70
  42.5227         77
  42.5599         71
  42.5970         62
  42.6342         62
  42.6713         96
  42.7085         75
  42.7456         90
  42.7828         74
  42.8199         83
  42.8571         90
  42.8942         89
  42.9314         79
  42.9685         71
  43.0057         68
  43.0428         73
  43.0800         81
  43.1171         76
  43.1543         85
  43.1914         78
  43.2286         95
  43.2657         97
  43.3029         90
  43.3400         93
  43.3772         73
  43.4143         93
  43.4515         99
  43.4886        114
  43.5258        123
  43.5629         94
  43.6001         93
  43.6372         97
  43.6744         70
  43.7116         77
  43.7487         76
  43.7859         76
  43.8230         82
  43.8602         66
  43.8973         73
  43.9345         70
  43.9716         65
  44.0088         77
  44.0459         80
  44.0831         71
  44.1202         84
  44.1574         71
  44.1945         71
  44.2317         83
  44.2688         85
  44.3060         74
  44.3431         86
  44.3803         84
  44.4174         93
  44.4546         72
  44.4917         71
  44.5289         85
  44.5660         81
  44.6032         93
  44.6403         76
  44.6775         88
  44.7146         75
  44.7518         52
  44.7889         77
  44.8261         73
  44.8632         70
  44.9004         73
  44.9375         91
  44.9747         64
  45.0118         75
  45.0490         74
  45.0861         60
  45.1233         74
  45.1604         80
  45.1976         70
  45.2347         61
  45.2719         78
  45.3091         63
  45.3462         76
  45.3834         67
  45.4205         66
  45.4577         66
  45.4948         58
  45.5320         74
  45.5691         76
  45.6063         62
  45.6434         60
  45.6806         59
  45.7177         61
  45.7549         73
  45.7920         74
  45.8292         63
  45.8663         65
  45.9035         62
  45.9406         63
  45.9778         59
  46.0149         59
  46.0521         71
  46.0892         66
  46.1264         58
  46.1635         55
  46.2007         65
  46.2378         56
  46.2750         61
  46.3121         68
  46.3493         71
  46.3864         73
  46.4236         74
  46.4607         70
  46.4979         61
  46.5350         74
  46.5722         79
  46.6093         61
  46.6465         58
  46.6836         68
  46.7208         51
  46.7579         87
  46.7951         52
  46.8323         72
  46.8694         73
  46.9066         62
  46.9437         60
  46.9809         68
  47.0180         57
  47.0552         73
  47.0923         57
  47.1295         60
  47.1666         78
  47.2038         82
  47.2409         59
  47.2781         62
  47.3152         55
  47.3524         55
  47.3895         52
  47.4267         69
  47.4638         66
  47.5010         69
  47.5381         66
  47.5753         65
  47.6124         68
  47.6496         59
  47.6867         57
  47.7239         51
  47.7610         64
  47.7982         59
  47.8353         66
  47.8725         51
  47.9096         66
  47.9468         56
  47.9839         56
  48.0211         57
  48.0582         62
  48.0954         57
  48.1325         54
  48.1697         65
  48.2068         62
  48.2440         75
  48.2811         68
  48.3183         59
  48.3555         64
  48.3926         65
  48.4298         74
  48.4669         74
  48.5041         71
  48.5412         77
  48.5784         58
  48.6155         58
  48.6527         53
  48.6898         57
  48.7270         69
  48.7641         63
  48.8013         70
  48.8384         64
  48.8756         65
  48.9127         87
  48.9499        107
  48.9870        107
  49.0242         88
  49.0613         76
  49.0985         96
  49.1356         80
  49.1728         62
  49.2099         70
  49.2471         72
  49.2842         61
  49.3214         63
  49.3585         74
  49.3957         68
  49.4328         70
  49.4700         65
  49.5071         68
  49.5443         61
  49.5814         63
  49.6186         82
  49.6557         68
  49.6929         52
  49.7300         59
  49.7672         60
  49.8043         49
  49.8415         72
  49.8786         70
  49.9158         60
  49.9530         74
  49.9901         71
  50.0273         73
  50.0644         51
  50.1016         57
  50.1387         71
  50.1759         66
  50.2130         48
  50.2502         74
  50.2873         77
  50.3245         65
  50.3616         60
  50.3988         73
  50.4359         70
  50.4731         69
  50.5102         65
  50.5474         69
  50.5845         41
  50.6217         60
  50.6588         67
  50.6960         64
  50.7331         72
  50.7703         70
  50.8074         57
  50.8446         52
  50.8817         49
  50.9189         51
  50.9560         55
  50.9932         75
  51.0303         46
  51.0675         65
  51.1046         53
  51.1418         66
  51.1789         69
  51.2161         57
  51.2532         54
  51.2904         62
  51.3275         58
  51.3647         68
  51.4018         68
  51.4390         73
  51.4762         67
  51.5133         48
  51.5505         68
  51.5876         68
  51.6248         63
  51.6619         56
  51.6991         70
  51.7362         67
  51.7734         48
  51.8105         66
  51.8477         68
  51.8848         68
  51.9220         57
  51.9591         62
  51.9963         65
  52.0334         53
  52.0706         59
  52.1077         64
  52.1449         61
  52.1820         52
  52.2192         52
  52.2563         58
  52.2935         56
  52.3306         60
  52.3678         65
  52.4049         66
  52.4421         60
  52.4792         57
  52.5164         67
  52.5535         57
  52.5907         54
  52.6278         67
  52.6650         49
  52.7021         69
  52.7393         67
  52.7764         65
  52.8136         58
  52.8507         61
  52.8879         55
  52.9250         56
  52.9622         58
  52.9994         81
  53.0365         77
  53.0737         68
  53.1108         59
  53.1480         55
  53.1851         68
  53.2223         50
  53.2594         57
  53.2966         52
  53.3337         55
  53.3709         61
  53.4080         64
  53.4452         65
  53.4823         55
  53.5195         38
  53.5566         70
  53.5938         48
  53.6309         65
  53.6681         55
  53.7052         57
  53.7424         56
  53.7795         61
  53.8167         58
  53.8538         57
  53.8910         60
  53.9281         61
  53.9653         68
  54.0024         77
  54.0396         74
  54.0767         69
  54.1139         61
  54.1510         70
  54.1882         75
  54.2253         62
  54.2625         49
  54.2996         45
  54.3368         60
  54.3739         55
  54.4111         48
  54.4482         49
  54.4854         56
  54.5225         64
  54.5597         49
  54.5969         55
  54.6340         70
  54.6712         62
  54.7083         51
  54.7455         50
  54.7826         50
  54.8198         65
  54.8569         56
  54.8941         49
  54.9312         59
  54.9684         50
  55.0055         47
  55.0427         67
  55.0798         60
  55.1170         37
  55.1541         58
  55.1913         60
  55.2284         54
  55.2656         65
  55.3027         51
  55.3399         69
  55.3770         67
  55.4142         64
  55.4513         55
  55.4885         62
  55.5256         50
  55.5628         53
  55.5999         57
  55.6371         44
  55.6742         52
  55.7114         68
  55.7485         55
  55.7857         62
  55.8228         52
  55.8600         54
  55.8971         52
  55.9343         67
  55.9714         56
  56.0086         59
  56.0457         62
  56.0829         49
  56.1201         64
  56.1572         66
  56.1944         64
  56.2315         57
  56.2687         70
  56.3058         60
  56.3430         65
  56.3801         71
  56.4173         66
  56.4544         65
  56.4916         49
  56.5287         61
  56.5659         51
  56.6030         59
  56.6402         66
  56.6773         61
  56.7145         57
  56.7516         65
  56.7888         71
  56.8259         72
  56.8631         48
  56.9002         51
  56.9374         52
  56.9745         44
  57.0117         63
  57.0488         61
  57.0860         56
  57.1231         45
  57.1603         50
  57.1974         73
  57.2346         56
  57.2717         64
  57.3089         63
  57.3460         61
  57.3832         59
  57.4203         45
  57.4575         55
  57.4946         46
  57.5318         54
  57.5689         47
  57.6061         63
  57.6433         50
  57.6804         69
  57.7176         66
  57.7547         44
  57.7919         61
  57.8290         48
  57.8662         48
  57.9033         73
  57.9405         59
  57.9776         53
  58.0148         52
  58.0519         42
  58.0891         59
  58.1262         60
  58.1634         63
  58.2005         55
  58.2377         48
  58.2748         49
  58.3120         49
  58.3491         56
  58.3863         62
  58.4234         53
  58.4606         61
  58.4977         62
  58.5349         46
  58.5720         60
  58.6092         40
  58.6463         63
  58.6835         52
  58.7206         53
  58.7578         47
  58.7949         51
  58.8321         55
  58.8692         55
  58.9064         59
  58.9435         38
  58.9807         60
  59.0178         48
  59.0550         60
  59.0921         57
  59.1293         64
  59.1664         58
  59.2036         56
  59.2408         62
  59.2779         58
  59.3151         58
  59.3522         66
  59.3894         39
  59.4265         54
  59.4637         52
  59.5008         62
  59.5380         58
  59.5751         53
  59.6123         58
  59.6494         53
  59.6866         50
  59.7237         56
  59.7609         62
  59.7980         53
  59.8352         46
  59.8723         59
  59.9095         51
  59.9466         54
  59.9838         48
  60.0024         54