File: notebooks/data/xrd_data/ML_20220720_35_SJD_4_LaB6-1min.csv
;,2THETA,
5.0000,100
5.0372,89
5.0743,93
5.1115,80
5.1486,89
5.1858,82
5.2229,89
5.2601,88
5.2972,93
5.3344,87
5.3715,108
5.4087,87
5.4458,71
5.4830,94
5.5201,80
5.5573,77
5.5944,75
5.6316,77
5.6687,71
5.7059,86
5.7430,71
5.7802,70
5.8173,62
5.8545,78
5.8916,80
5.9288,88
5.9659,71
6.0031,64
6.0402,70
6.0774,67
6.1145,72
6.1517,74
6.1888,60
6.2260,55
6.2631,68
6.3003,65
6.3374,75
6.3746,70
6.4117,76
6.4489,55
6.4860,65
6.5232,66
6.5604,66
6.5975,63
6.6347,68
6.6718,56
6.7090,58
6.7461,71
6.7833,59
6.8204,65
6.8576,54
6.8947,78
6.9319,55
6.9690,54
7.0062,64
7.0433,55
7.0805,68
7.1176,62
7.1548,47
7.1919,46
7.2291,52
7.2662,59
7.3034,63
7.3405,53
7.3777,54
7.4148,55
7.4520,49
7.4891,47
7.5263,75
7.5634,53
7.6006,62
7.6377,67
7.6749,69
7.7120,60
7.7492,69
7.7863,56
7.8235,74
7.8606,57
7.8978,63
7.9349,57
7.9721,79
8.0092,58
8.0464,58
8.0835,72
8.1207,64
8.1579,58
8.1950,72
8.2322,76
8.2693,68
8.3065,86
8.3436,77
8.3808,71
8.4179,69
8.4551,75
8.4922,72
8.5294,80
8.5665,85
8.6037,82
8.6408,81
8.6780,80
8.7151,83
8.7523,83
8.7894,63
8.8266,81
8.8637,73
8.9009,80
8.9380,89
8.9752,81
9.0123,89
9.0495,81
9.0866,63
9.1238,72
9.1609,64
9.1981,67
9.2352,84
9.2724,80
9.3095,88
9.3467,79
9.3838,81
9.4210,87
9.4581,100
9.4953,74
9.5324,71
9.5696,73
9.6067,66
9.6439,72
9.6811,77
9.7182,76
9.7554,81
9.7925,90
9.8297,86
9.8668,92
9.9040,79
9.9411,89
9.9783,97
10.0154,86
10.0526,84
10.0897,84
10.1269,102
10.1640,93
10.2012,99
10.2383,77
10.2755,80
10.3126,89
10.3498,85
10.3869,88
10.4241,71
10.4612,75
10.4984,91
10.5355,72
10.5727,102
10.6098,97
10.6470,87
10.6841,69
10.7213,87
10.7584,84
10.7956,92
10.8327,83
10.8699,75
10.9070,95
10.9442,86
10.9813,76
11.0185,93
11.0556,81
11.0928,75
11.1299,77
11.1671,92
11.2043,84
11.2414,83
11.2786,74
11.3157,81
11.3529,92
11.3900,91
11.4272,84
11.4643,79
11.5015,90
11.5386,79
11.5758,90
11.6129,66
11.6501,69
11.6872,72
11.7244,87
11.7615,118
11.7987,87
11.8358,89
11.8730,83
11.9101,84
11.9473,88
11.9844,96
12.0216,80
12.0587,83
12.0959,79
12.1330,91
12.1702,73
12.2073,74
12.2445,84
12.2816,85
12.3188,77
12.3559,68
12.3931,81
12.4302,73
12.4674,72
12.5045,77
12.5417,70
12.5788,75
12.6160,79
12.6531,67
12.6903,76
12.7274,86
12.7646,88
12.8018,82
12.8389,84
12.8761,77
12.9132,100
12.9504,80
12.9875,75
13.0247,65
13.0618,89
13.0990,80
13.1361,77
13.1733,75
13.2104,77
13.2476,72
13.2847,94
13.3219,79
13.3590,68
13.3962,59
13.4333,78
13.4705,86
13.5076,66
13.5448,69
13.5819,78
13.6191,77
13.6562,69
13.6934,67
13.7305,61
13.7677,65
13.8048,57
13.8420,55
13.8791,71
13.9163,64
13.9534,67
13.9906,48
14.0277,72
14.0649,71
14.1020,68
14.1392,67
14.1763,79
14.2135,67
14.2506,66
14.2878,63
14.3250,57
14.3621,74
14.3993,54
14.4364,66
14.4736,73
14.5107,58
14.5479,67
14.5850,70
14.6222,60
14.6593,58
14.6965,58
14.7336,62
14.7708,68
14.8079,69
14.8451,57
14.8822,59
14.9194,58
14.9565,65
14.9937,68
15.0308,72
15.0680,55
15.1051,57
15.1423,66
15.1794,69
15.2166,59
15.2537,73
15.2909,54
15.3280,41
15.3652,56
15.4023,43
15.4395,68
15.4766,58
15.5138,63
15.5509,60
15.5881,59
15.6252,55
15.6624,54
15.6995,67
15.7367,58
15.7738,59
15.8110,65
15.8482,62
15.8853,58
15.9225,53
15.9596,53
15.9968,59
16.0339,72
16.0711,65
16.1082,62
16.1454,62
16.1825,56
16.2197,72
16.2568,57
16.2940,60
16.3311,56
16.3683,53
16.4054,56
16.4426,62
16.4797,54
16.5169,63
16.5540,64
16.5912,69
16.6283,53
16.6655,53
16.7026,58
16.7398,58
16.7769,51
16.8141,63
16.8512,51
16.8884,51
16.9255,62
16.9627,56
16.9998,67
17.0370,64
17.0741,52
17.1113,64
17.1484,65
17.1856,51
17.2227,63
17.2599,56
17.2970,46
17.3342,61
17.3713,76
17.4085,66
17.4457,53
17.4828,64
17.5200,48
17.5571,58
17.5943,60
17.6314,67
17.6686,58
17.7057,75
17.7429,54
17.7800,57
17.8172,68
17.8543,59
17.8915,71
17.9286,76
17.9658,65
18.0029,65
18.0401,55
18.0772,57
18.1144,73
18.1515,44
18.1887,63
18.2258,63
18.2630,58
18.3001,63
18.3373,53
18.3744,53
18.4116,57
18.4487,72
18.4859,74
18.5230,67
18.5602,65
18.5973,63
18.6345,67
18.6716,61
18.7088,38
18.7459,81
18.7831,69
18.8202,61
18.8574,78
18.8945,56
18.9317,66
18.9689,61
19.0060,63
19.0432,54
19.0803,72
19.1175,53
19.1546,62
19.1918,69
19.2289,64
19.2661,60
19.3032,64
19.3404,64
19.3775,46
19.4147,54
19.4518,59
19.4890,67
19.5261,64
19.5633,55
19.6004,64
19.6376,55
19.6747,63
19.7119,59
19.7490,46
19.7862,68
19.8233,64
19.8605,55
19.8976,59
19.9348,64
19.9719,57
20.0091,71
20.0462,53
20.0834,65
20.1205,67
20.1577,53
20.1948,57
20.2320,65
20.2691,62
20.3063,65
20.3434,65
20.3806,71
20.4177,66
20.4549,64
20.4921,64
20.5292,79
20.5664,79
20.6035,75
20.6407,74
20.6778,67
20.7150,60
20.7521,60
20.7893,65
20.8264,80
20.8636,67
20.9007,82
20.9379,69
20.9750,60
21.0122,71
21.0493,93
21.0865,62
21.1236,79
21.1608,81
21.1979,105
21.2351,138
21.2722,129
21.3094,125
21.3465,197
21.3837,157
21.4208,119
21.4580,96
21.4951,87
21.5323,74
21.5694,68
21.6066,65
21.6437,64
21.6809,63
21.7180,73
21.7552,76
21.7923,65
21.8295,82
21.8666,87
21.9038,68
21.9409,74
21.9781,81
22.0152,66
22.0524,79
22.0896,73
22.1267,78
22.1639,52
22.2010,72
22.2382,57
22.2753,67
22.3125,66
22.3496,90
22.3868,88
22.4239,75
22.4611,69
22.4982,74
22.5354,80
22.5725,70
22.6097,71
22.6468,79
22.6840,82
22.7211,73
22.7583,69
22.7954,77
22.8326,94
22.8697,75
22.9069,75
22.9440,76
22.9812,78
23.0183,57
23.0555,79
23.0926,73
23.1298,80
23.1669,74
23.2041,85
23.2412,82
23.2784,65
23.3155,54
23.3527,61
23.3898,76
23.4270,77
23.4641,71
23.5013,77
23.5384,76
23.5756,85
23.6128,69
23.6499,81
23.6871,79
23.7242,66
23.7614,81
23.7985,71
23.8357,80
23.8728,82
23.9100,66
23.9471,85
23.9843,74
24.0214,87
24.0586,87
24.0957,89
24.1329,78
24.1700,67
24.2072,94
24.2443,86
24.2815,95
24.3186,73
24.3558,82
24.3929,66
24.4301,96
24.4672,66
24.5044,74
24.5415,83
24.5787,74
24.6158,74
24.6530,85
24.6901,74
24.7273,61
24.7644,83
24.8016,68
24.8387,67
24.8759,81
24.9130,71
24.9502,75
24.9873,61
25.0245,80
25.0616,80
25.0988,72
25.1360,57
25.1731,81
25.2103,71
25.2474,81
25.2846,75
25.3217,86
25.3589,75
25.3960,80
25.4332,82
25.4703,87
25.5075,73
25.5446,68
25.5818,67
25.6189,70
25.6561,66
25.6932,74
25.7304,78
25.7675,95
25.8047,65
25.8418,76
25.8790,88
25.9161,71
25.9533,79
25.9904,73
26.0276,78
26.0647,81
26.1019,68
26.1390,67
26.1762,75
26.2133,69
26.2505,72
26.2876,69
26.3248,62
26.3619,71
26.3991,69
26.4362,84
26.4734,71
26.5105,71
26.5477,71
26.5848,60
26.6220,63
26.6591,79
26.6963,65
26.7335,76
26.7706,64
26.8078,69
26.8449,98
26.8821,87
26.9192,76
26.9564,73
26.9935,75
27.0307,80
27.0678,70
27.1050,73
27.1421,78
27.1793,81
27.2164,94
27.2536,70
27.2907,90
27.3279,73
27.3650,67
27.4022,69
27.4393,66
27.4765,70
27.5136,67
27.5508,68
27.5879,61
27.6251,54
27.6622,70
27.6994,61
27.7365,63
27.7737,68
27.8108,72
27.8480,67
27.8851,62
27.9223,51
27.9594,46
27.9966,57
28.0337,60
28.0709,64
28.1080,76
28.1452,57
28.1823,64
28.2195,69
28.2567,61
28.2938,50
28.3310,64
28.3681,68
28.4053,54
28.4424,58
28.4796,65
28.5167,63
28.5539,63
28.5910,61
28.6282,62
28.6653,64
28.7025,67
28.7396,69
28.7768,59
28.8139,64
28.8511,54
28.8882,73
28.9254,60
28.9625,51
28.9997,48
29.0368,60
29.0740,70
29.1111,56
29.1483,70
29.1854,62
29.2226,61
29.2597,72
29.2969,57
29.3340,62
29.3712,58
29.4083,65
29.4455,65
29.4826,48
29.5198,59
29.5569,59
29.5941,58
29.6312,53
29.6684,66
29.7055,52
29.7427,54
29.7799,56
29.8170,50
29.8542,63
29.8913,50
29.9285,65
29.9656,62
30.0028,62
30.0399,50
30.0771,64
30.1142,49
30.1514,56
30.1885,62
30.2257,60
30.2628,59
30.3000,60
30.3371,82
30.3743,105
30.4114,109
30.4486,106
30.4857,95
30.5229,66
30.5600,56
30.5972,58
30.6343,60
30.6715,56
30.7086,62
30.7458,52
30.7829,59
30.8201,63
30.8572,52
30.8944,51
30.9315,59
30.9687,69
31.0058,47
31.0430,47
31.0801,51
31.1173,65
31.1544,43
31.1916,50
31.2287,57
31.2659,39
31.3030,38
31.3402,53
31.3774,54
31.4145,46
31.4517,53
31.4888,32
31.5260,47
31.5631,52
31.6003,46
31.6374,50
31.6746,57
31.7117,42
31.7489,44
31.7860,55
31.8232,46
31.8603,51
31.8975,55
31.9346,58
31.9718,44
32.0089,51
32.0461,48
32.0832,54
32.1204,56
32.1575,45
32.1947,42
32.2318,50
32.2690,46
32.3061,45
32.3433,52
32.3804,48
32.4176,51
32.4547,55
32.4919,53
32.5290,57
32.5662,54
32.6033,47
32.6405,50
32.6776,45
32.7148,40
32.7519,43
32.7891,43
32.8262,51
32.8634,52
32.9006,53
32.9377,51
32.9749,42
33.0120,48
33.0492,41
33.0863,40
33.1235,32
33.1606,52
33.1978,51
33.2349,49
33.2721,50
33.3092,50
33.3464,39
33.3835,39
33.4207,39
33.4578,37
33.4950,48
33.5321,43
33.5693,53
33.6064,43
33.6436,35
33.6807,43
33.7179,38
33.7550,41
33.7922,46
33.8293,36
33.8665,43
33.9036,52
33.9408,56
33.9779,31
34.0151,35
34.0522,40
34.0894,38
34.1265,44
34.1637,50
34.2008,32
34.2380,43
34.2751,43
34.3123,38
34.3494,45
34.3866,42
34.4238,37
34.4609,50
34.4981,38
34.5352,41
34.5724,46
34.6095,43
34.6467,45
34.6838,60
34.7210,43
34.7581,61
34.7953,48
34.8324,61
34.8696,39
34.9067,54
34.9439,37
34.9810,34
35.0182,35
35.0553,36
35.0925,31
35.1296,55
35.1668,33
35.2039,44
35.2411,46
35.2782,36
35.3154,43
35.3525,27
35.3897,35
35.4268,34
35.4640,48
35.5011,37
35.5383,36
35.5754,36
35.6126,37
35.6497,46
35.6869,29
35.7240,42
35.7612,40
35.7983,34
35.8355,37
35.8726,52
35.9098,37
35.9469,37
35.9841,30
36.0213,39
36.0584,32
36.0956,31
36.1327,23
36.1699,37
36.2070,27
36.2442,32
36.2813,34
36.3185,31
36.3556,25
36.3928,29
36.4299,38
36.4671,34
36.5042,40
36.5414,33
36.5785,43
36.6157,37
36.6528,33
36.6900,30
36.7271,28
36.7643,34
36.8014,38
36.8386,40
36.8757,27
36.9129,27
36.9500,31
36.9872,25
37.0243,37
37.0615,40
37.0986,32
37.1358,29
37.1729,30
37.2101,30
37.2472,37
37.2844,31
37.3215,37
37.3587,37
37.3958,42
37.4330,49
37.4701,57
37.5073,42
37.5445,60
37.5816,44
37.6188,35
37.6559,23
37.6931,27
37.7302,38
37.7674,30
37.8045,37
37.8417,30
37.8788,31
37.9160,26
37.9531,29
37.9903,37
38.0274,34
38.0646,37
38.1017,37
38.1389,29
38.1760,32
38.2132,28
38.2503,35
38.2875,26
38.3246,31
38.3618,31
38.3989,21
38.4361,33
38.4732,33
38.5104,29
38.5475,33
38.5847,28
38.6218,40
38.6590,27
38.6961,30
38.7333,37
38.7704,29
38.8076,26
38.8447,22
38.8819,34
38.9190,29
38.9562,29
38.9933,23
39.0305,31
39.0677,34
39.1048,25
39.1420,26
39.1791,19
39.2163,34
39.2534,31
39.2906,36
39.3277,35
39.3649,35
39.4020,27
39.4392,33
39.4763,25
39.5135,30
39.5506,31
39.5878,37
39.6249,35
39.6621,33
39.6992,44
39.7364,32
39.7735,28
39.8107,28
39.8478,31
39.8850,39
39.9221,26
39.9593,18
39.9964,31
40.0336,44
40.0707,40
40.1079,35
40.1450,26
40.1822,23
40.2193,29
40.2565,35
40.2936,23
40.3308,20
40.3679,24
40.4051,19
40.4422,21
40.4794,25
40.5165,19
40.5537,24
40.5908,31
40.6280,29
40.6652,31
40.7023,32
40.7395,26
40.7766,31
40.8138,38
40.8509,33
40.8881,29
40.9252,34
40.9624,26
40.9995,20
41.0367,22
41.0738,34
41.1110,27
41.1481,22
41.1853,28
41.2224,25
41.2596,31
41.2967,29
41.3339,30
41.3710,23
41.4082,30
41.4453,29
41.4825,25
41.5196,36
41.5568,24
41.5939,30
41.6311,32
41.6682,21
41.7054,23
41.7425,22
41.7797,27
41.8168,32
41.8540,24
41.8911,38
41.9283,26
41.9654,30
42.0026,31
42.0397,25
42.0769,26
42.1140,27
42.1512,28
42.1884,18
42.2255,31
42.2627,29
42.2998,22
42.3370,40
42.3741,32
42.4113,25
42.4484,27
42.4856,21
42.5227,25
42.5599,32
42.5970,32
42.6342,32
42.6713,26
42.7085,23
42.7456,24
42.7828,25
42.8199,21
42.8571,30
42.8942,21
42.9314,21
42.9685,26
43.0057,31
43.0428,24
43.0800,23
43.1171,31
43.1543,23
43.1914,26
43.2286,41
43.2657,23
43.3029,36
43.3400,40
43.3772,30
43.4143,29
43.4515,32
43.4886,40
43.5258,44
43.5629,34
43.6001,36
43.6372,38
43.6744,18
43.7116,26
43.7487,37
43.7859,31
43.8230,29
43.8602,37
43.8973,30
43.9345,16
43.9716,35
44.0088,21
44.0459,27
44.0831,28
44.1202,35
44.1574,24
44.1945,24
44.2317,18
44.2688,28
44.3060,40
44.3431,23
44.3803,27
44.4174,21
44.4546,24
44.4917,35
44.5289,37
44.5660,24
44.6032,29
44.6403,29
44.6775,34
44.7146,28
44.7518,33
44.7889,24
44.8261,36
44.8632,28
44.9004,17
44.9375,26
44.9747,32
45.0118,21
45.0490,23
45.0861,21
45.1233,28
45.1604,18
45.1976,24
45.2347,31
45.2719,24
45.3091,26
45.3462,21
45.3834,25
45.4205,31
45.4577,27
45.4948,23
45.5320,32
45.5691,20
45.6063,21
45.6434,33
45.6806,33
45.7177,31
45.7549,20
45.7920,21
45.8292,25
45.8663,22
45.9035,32
45.9406,22
45.9778,23
46.0149,21
46.0521,33
46.0892,24
46.1264,25
46.1635,26
46.2007,27
46.2378,29
46.2750,24
46.3121,34
46.3493,28
46.3864,19
46.4236,26
46.4607,22
46.4979,21
46.5350,29
46.5722,23
46.6093,27
46.6465,16
46.6836,23
46.7208,10
46.7579,18
46.7951,26
46.8323,25
46.8694,18
46.9066,25
46.9437,20
46.9809,22
47.0180,20
47.0552,28
47.0923,25
47.1295,16
47.1666,33
47.2038,30
47.2409,30
47.2781,21
47.3152,29
47.3524,25
47.3895,22
47.4267,24
47.4638,23
47.5010,20
47.5381,16
47.5753,23
47.6124,23
47.6496,17
47.6867,24
47.7239,23
47.7610,23
47.7982,14
47.8353,20
47.8725,21
47.9096,26
47.9468,24
47.9839,16
48.0211,31
48.0582,26
48.0954,23
48.1325,19
48.1697,28
48.2068,18
48.2440,31
48.2811,33
48.3183,26
48.3555,21
48.3926,21
48.4298,24
48.4669,23
48.5041,21
48.5412,27
48.5784,24
48.6155,22
48.6527,24
48.6898,22
48.7270,26
48.7641,26
48.8013,28
48.8384,29
48.8756,19
48.9127,29
48.9499,50
48.9870,44
49.0242,28
49.0613,25
49.0985,30
49.1356,36
49.1728,21
49.2099,24
49.2471,28
49.2842,27
49.3214,26
49.3585,16
49.3957,20
49.4328,21
49.4700,40
49.5071,27
49.5443,16
49.5814,20
49.6186,21
49.6557,19
49.6929,23
49.7300,17
49.7672,15
49.8043,25
49.8415,15
49.8786,25
49.9158,18
49.9530,15
49.9901,15
50.0273,25
50.0644,17
50.1016,22
50.1387,20
50.1759,21
50.2130,23
50.2502,31
50.2873,29
50.3245,13
50.3616,28
50.3988,25
50.4359,17
50.4731,21
50.5102,26
50.5474,20
50.5845,16
50.6217,27
50.6588,26
50.6960,26
50.7331,29
50.7703,25
50.8074,27
50.8446,19
50.8817,26
50.9189,25
50.9560,28
50.9932,23
51.0303,20
51.0675,25
51.1046,20
51.1418,21
51.1789,28
51.2161,16
51.2532,20
51.2904,22
51.3275,22
51.3647,21
51.4018,21
51.4390,32
51.4762,33
51.5133,22
51.5505,33
51.5876,24
51.6248,27
51.6619,17
51.6991,25
51.7362,20
51.7734,20
51.8105,24
51.8477,22
51.8848,19
51.9220,24
51.9591,25
51.9963,35
52.0334,29
52.0706,15
52.1077,18
52.1449,30
52.1820,19
52.2192,25
52.2563,22
52.2935,16
52.3306,18
52.3678,26
52.4049,18
52.4421,18
52.4792,30
52.5164,18
52.5535,22
52.5907,24
52.6278,20
52.6650,21
52.7021,24
52.7393,28
52.7764,30
52.8136,21
52.8507,18
52.8879,20
52.9250,23
52.9622,20
52.9994,22
53.0365,26
53.0737,22
53.1108,27
53.1480,15
53.1851,24
53.2223,20
53.2594,26
53.2966,18
53.3337,23
53.3709,17
53.4080,24
53.4452,32
53.4823,14
53.5195,16
53.5566,26
53.5938,17
53.6309,21
53.6681,27
53.7052,21
53.7424,27
53.7795,22
53.8167,26
53.8538,22
53.8910,14
53.9281,23
53.9653,22
54.0024,39
54.0396,26
54.0767,13
54.1139,22
54.1510,24
54.1882,31
54.2253,16
54.2625,23
54.2996,25
54.3368,16
54.3739,15
54.4111,21
54.4482,22
54.4854,22
54.5225,14
54.5597,18
54.5969,22
54.6340,17
54.6712,18
54.7083,16
54.7455,23
54.7826,14
54.8198,15
54.8569,24
54.8941,27
54.9312,19
54.9684,19
55.0055,17
55.0427,22
55.0798,27
55.1170,18
55.1541,26
55.1913,31
55.2284,19
55.2656,19
55.3027,16
55.3399,22
55.3770,22
55.4142,21
55.4513,26
55.4885,16
55.5256,29
55.5628,18
55.5999,27
55.6371,21
55.6742,22
55.7114,25
55.7485,14
55.7857,23
55.8228,17
55.8600,27
55.8971,20
55.9343,23
55.9714,25
56.0086,24
56.0457,20
56.0829,19
56.1201,27
56.1572,21
56.1944,31
56.2315,12
56.2687,27
56.3058,28
56.3430,21
56.3801,33
56.4173,30
56.4544,23
56.4916,24
56.5287,25
56.5659,20
56.6030,15
56.6402,14
56.6773,21
56.7145,8
56.7516,28
56.7888,18
56.8259,14
56.8631,17
56.9002,15
56.9374,21
56.9745,30
57.0117,26
57.0488,19
57.0860,18
57.1231,13
57.1603,19
57.1974,19
57.2346,23
57.2717,19
57.3089,15
57.3460,21
57.3832,22
57.4203,18
57.4575,25
57.4946,28
57.5318,24
57.5689,25
57.6061,21
57.6433,16
57.6804,25
57.7176,26
57.7547,25
57.7919,23
57.8290,21
57.8662,16
57.9033,27
57.9405,19
57.9776,22
58.0148,17
58.0519,20
58.0891,18
58.1262,23
58.1634,21
58.2005,19
58.2377,20
58.2748,20
58.3120,23
58.3491,21
58.3863,18
58.4234,23
58.4606,18
58.4977,20
58.5349,21
58.5720,17
58.6092,28
58.6463,22
58.6835,19
58.7206,21
58.7578,30
58.7949,16
58.8321,24
58.8692,19
58.9064,23
58.9435,21
58.9807,15
59.0178,23
59.0550,17
59.0921,17
59.1293,20
59.1664,22
59.2036,16
59.2408,17
59.2779,23
59.3151,14
59.3522,20
59.3894,18
59.4265,25
59.4637,11
59.5008,20
59.5380,9
59.5751,19
59.6123,22
59.6494,27
59.6866,23
59.7237,17
59.7609,23
59.7980,18
59.8352,22
59.8723,16
59.9095,26
59.9466,14
59.9838,16
60.0024,15