File: notebooks/data/xrd_data/ML_20220718_46_SJD_4_LaB6-4min.csv
;,2THETA,
5.0000,279
5.0372,255
5.0743,266
5.1115,280
5.1486,221
5.1858,249
5.2229,204
5.2601,257
5.2972,247
5.3344,260
5.3715,272
5.4087,234
5.4458,233
5.4830,259
5.5201,216
5.5573,226
5.5944,226
5.6316,254
5.6687,218
5.7059,203
5.7430,207
5.7802,235
5.8173,225
5.8545,198
5.8916,197
5.9288,215
5.9659,213
6.0031,179
6.0402,195
6.0774,209
6.1145,171
6.1517,183
6.1888,181
6.2260,178
6.2631,188
6.3003,208
6.3374,169
6.3746,182
6.4117,181
6.4489,164
6.4860,187
6.5232,212
6.5604,183
6.5975,183
6.6347,179
6.6718,183
6.7090,167
6.7461,158
6.7833,182
6.8204,185
6.8576,186
6.8947,180
6.9319,160
6.9690,191
7.0062,164
7.0433,164
7.0805,147
7.1176,177
7.1548,153
7.1919,167
7.2291,176
7.2662,156
7.3034,176
7.3405,151
7.3777,163
7.4148,154
7.4520,165
7.4891,177
7.5263,179
7.5634,180
7.6006,162
7.6377,191
7.6749,156
7.7120,187
7.7492,163
7.7863,181
7.8235,185
7.8606,178
7.8978,174
7.9349,169
7.9721,170
8.0092,197
8.0464,215
8.0835,194
8.1207,213
8.1579,181
8.1950,186
8.2322,175
8.2693,202
8.3065,195
8.3436,174
8.3808,190
8.4179,208
8.4551,207
8.4922,206
8.5294,207
8.5665,211
8.6037,181
8.6408,191
8.6780,190
8.7151,198
8.7523,233
8.7894,200
8.8266,237
8.8637,196
8.9009,227
8.9380,227
8.9752,184
9.0123,214
9.0495,235
9.0866,237
9.1238,214
9.1609,218
9.1981,223
9.2352,228
9.2724,223
9.3095,232
9.3467,232
9.3838,226
9.4210,198
9.4581,213
9.4953,210
9.5324,205
9.5696,240
9.6067,232
9.6439,222
9.6811,217
9.7182,220
9.7554,248
9.7925,249
9.8297,220
9.8668,234
9.9040,255
9.9411,233
9.9783,240
10.0154,231
10.0526,257
10.0897,240
10.1269,247
10.1640,228
10.2012,217
10.2383,226
10.2755,232
10.3126,276
10.3498,253
10.3869,251
10.4241,242
10.4612,235
10.4984,225
10.5355,263
10.5727,253
10.6098,258
10.6470,205
10.6841,230
10.7213,261
10.7584,208
10.7956,241
10.8327,268
10.8699,236
10.9070,247
10.9442,244
10.9813,247
11.0185,225
11.0556,235
11.0928,245
11.1299,226
11.1671,250
11.2043,225
11.2414,240
11.2786,253
11.3157,250
11.3529,249
11.3900,265
11.4272,229
11.4643,246
11.5015,240
11.5386,233
11.5758,211
11.6129,237
11.6501,223
11.6872,235
11.7244,261
11.7615,242
11.7987,245
11.8358,251
11.8730,215
11.9101,223
11.9473,242
11.9844,218
12.0216,229
12.0587,209
12.0959,242
12.1330,229
12.1702,214
12.2073,214
12.2445,207
12.2816,216
12.3188,204
12.3559,227
12.3931,215
12.4302,209
12.4674,230
12.5045,241
12.5417,215
12.5788,222
12.6160,226
12.6531,226
12.6903,196
12.7274,218
12.7646,202
12.8018,219
12.8389,222
12.8761,185
12.9132,224
12.9504,206
12.9875,216
13.0247,194
13.0618,187
13.0990,207
13.1361,195
13.1733,210
13.2104,193
13.2476,211
13.2847,197
13.3219,199
13.3590,166
13.3962,204
13.4333,216
13.4705,196
13.5076,191
13.5448,180
13.5819,178
13.6191,199
13.6562,179
13.6934,185
13.7305,185
13.7677,174
13.8048,202
13.8420,158
13.8791,198
13.9163,193
13.9534,151
13.9906,160
14.0277,164
14.0649,187
14.1020,188
14.1392,182
14.1763,176
14.2135,173
14.2506,151
14.2878,185
14.3250,167
14.3621,160
14.3993,182
14.4364,144
14.4736,166
14.5107,172
14.5479,184
14.5850,154
14.6222,183
14.6593,164
14.6965,174
14.7336,172
14.7708,182
14.8079,150
14.8451,175
14.8822,162
14.9194,180
14.9565,190
14.9937,166
15.0308,142
15.0680,156
15.1051,162
15.1423,168
15.1794,168
15.2166,150
15.2537,159
15.2909,173
15.3280,178
15.3652,152
15.4023,170
15.4395,180
15.4766,136
15.5138,156
15.5509,176
15.5881,179
15.6252,159
15.6624,173
15.6995,182
15.7367,160
15.7738,144
15.8110,171
15.8482,160
15.8853,190
15.9225,163
15.9596,150
15.9968,156
16.0339,162
16.0711,153
16.1082,178
16.1454,151
16.1825,158
16.2197,158
16.2568,156
16.2940,157
16.3311,169
16.3683,173
16.4054,159
16.4426,148
16.4797,168
16.5169,168
16.5540,133
16.5912,154
16.6283,177
16.6655,146
16.7026,154
16.7398,157
16.7769,170
16.8141,134
16.8512,163
16.8884,160
16.9255,160
16.9627,172
16.9998,165
17.0370,160
17.0741,158
17.1113,177
17.1484,174
17.1856,172
17.2227,178
17.2599,162
17.2970,163
17.3342,172
17.3713,171
17.4085,161
17.4457,153
17.4828,160
17.5200,164
17.5571,176
17.5943,151
17.6314,144
17.6686,172
17.7057,157
17.7429,170
17.7800,168
17.8172,175
17.8543,143
17.8915,151
17.9286,144
17.9658,183
18.0029,146
18.0401,150
18.0772,143
18.1144,168
18.1515,185
18.1887,167
18.2258,155
18.2630,160
18.3001,167
18.3373,168
18.3744,161
18.4116,179
18.4487,171
18.4859,190
18.5230,167
18.5602,160
18.5973,191
18.6345,162
18.6716,156
18.7088,176
18.7459,183
18.7831,181
18.8202,158
18.8574,186
18.8945,181
18.9317,144
18.9689,173
19.0060,161
19.0432,158
19.0803,174
19.1175,190
19.1546,175
19.1918,163
19.2289,163
19.2661,158
19.3032,181
19.3404,191
19.3775,180
19.4147,166
19.4518,188
19.4890,169
19.5261,197
19.5633,165
19.6004,194
19.6376,168
19.6747,187
19.7119,167
19.7490,174
19.7862,187
19.8233,178
19.8605,173
19.8976,190
19.9348,207
19.9719,174
20.0091,199
20.0462,171
20.0834,165
20.1205,205
20.1577,187
20.1948,189
20.2320,202
20.2691,207
20.3063,166
20.3434,173
20.3806,184
20.4177,190
20.4549,192
20.4921,192
20.5292,220
20.5664,179
20.6035,191
20.6407,194
20.6778,198
20.7150,206
20.7521,169
20.7893,166
20.8264,171
20.8636,208
20.9007,188
20.9379,201
20.9750,175
21.0122,180
21.0493,200
21.0865,194
21.1236,238
21.1608,234
21.1979,273
21.2351,316
21.2722,335
21.3094,306
21.3465,497
21.3837,443
21.4208,365
21.4580,215
21.4951,175
21.5323,196
21.5694,230
21.6066,227
21.6437,207
21.6809,205
21.7180,203
21.7552,203
21.7923,185
21.8295,206
21.8666,183
21.9038,196
21.9409,181
21.9781,170
22.0152,204
22.0524,175
22.0896,204
22.1267,193
22.1639,209
22.2010,203
22.2382,193
22.2753,218
22.3125,192
22.3496,197
22.3868,202
22.4239,207
22.4611,205
22.4982,188
22.5354,178
22.5725,202
22.6097,186
22.6468,209
22.6840,185
22.7211,167
22.7583,187
22.7954,202
22.8326,205
22.8697,196
22.9069,200
22.9440,175
22.9812,215
23.0183,208
23.0555,197
23.0926,201
23.1298,201
23.1669,202
23.2041,196
23.2412,231
23.2784,201
23.3155,204
23.3527,180
23.3898,193
23.4270,207
23.4641,196
23.5013,174
23.5384,198
23.5756,200
23.6128,192
23.6499,210
23.6871,205
23.7242,203
23.7614,195
23.7985,211
23.8357,205
23.8728,188
23.9100,203
23.9471,177
23.9843,202
24.0214,225
24.0586,180
24.0957,205
24.1329,214
24.1700,211
24.2072,202
24.2443,204
24.2815,220
24.3186,237
24.3558,219
24.3929,183
24.4301,205
24.4672,210
24.5044,193
24.5415,188
24.5787,218
24.6158,208
24.6530,201
24.6901,185
24.7273,213
24.7644,219
24.8016,193
24.8387,191
24.8759,196
24.9130,190
24.9502,196
24.9873,189
25.0245,223
25.0616,218
25.0988,197
25.1360,211
25.1731,198
25.2103,224
25.2474,221
25.2846,198
25.3217,186
25.3589,212
25.3960,196
25.4332,223
25.4703,203
25.5075,196
25.5446,192
25.5818,199
25.6189,183
25.6561,182
25.6932,202
25.7304,198
25.7675,173
25.8047,195
25.8418,203
25.8790,180
25.9161,204
25.9533,202
25.9904,203
26.0276,178
26.0647,186
26.1019,186
26.1390,205
26.1762,206
26.2133,181
26.2505,207
26.2876,179
26.3248,206
26.3619,206
26.3991,194
26.4362,177
26.4734,193
26.5105,185
26.5477,189
26.5848,163
26.6220,188
26.6591,203
26.6963,223
26.7335,163
26.7706,182
26.8078,197
26.8449,174
26.8821,182
26.9192,170
26.9564,184
26.9935,190
27.0307,199
27.0678,186
27.1050,194
27.1421,173
27.1793,225
27.2164,232
27.2536,214
27.2907,225
27.3279,174
27.3650,197
27.4022,166
27.4393,183
27.4765,194
27.5136,210
27.5508,189
27.5879,172
27.6251,183
27.6622,165
27.6994,180
27.7365,181
27.7737,165
27.8108,181
27.8480,203
27.8851,181
27.9223,203
27.9594,180
27.9966,181
28.0337,205
28.0709,187
28.1080,183
28.1452,163
28.1823,191
28.2195,156
28.2567,186
28.2938,194
28.3310,154
28.3681,186
28.4053,169
28.4424,149
28.4796,179
28.5167,178
28.5539,175
28.5910,155
28.6282,160
28.6653,169
28.7025,139
28.7396,174
28.7768,184
28.8139,191
28.8511,186
28.8882,160
28.9254,148
28.9625,190
28.9997,185
29.0368,159
29.0740,173
29.1111,139
29.1483,162
29.1854,194
29.2226,144
29.2597,144
29.2969,142
29.3340,176
29.3712,152
29.4083,200
29.4455,151
29.4826,184
29.5198,156
29.5569,150
29.5941,163
29.6312,163
29.6684,181
29.7055,172
29.7427,151
29.7799,163
29.8170,147
29.8542,160
29.8913,163
29.9285,152
29.9656,130
30.0028,161
30.0399,171
30.0771,164
30.1142,159
30.1514,148
30.1885,176
30.2257,152
30.2628,153
30.3000,163
30.3371,201
30.3743,329
30.4114,269
30.4486,216
30.4857,229
30.5229,178
30.5600,145
30.5972,151
30.6343,150
30.6715,135
30.7086,138
30.7458,158
30.7829,173
30.8201,145
30.8572,137
30.8944,152
30.9315,142
30.9687,156
31.0058,157
31.0430,134
31.0801,161
31.1173,128
31.1544,134
31.1916,157
31.2287,139
31.2659,152
31.3030,153
31.3402,154
31.3774,139
31.4145,131
31.4517,140
31.4888,139
31.5260,178
31.5631,125
31.6003,145
31.6374,144
31.6746,134
31.7117,122
31.7489,151
31.7860,112
31.8232,115
31.8603,145
31.8975,135
31.9346,141
31.9718,116
32.0089,129
32.0461,120
32.0832,141
32.1204,123
32.1575,146
32.1947,128
32.2318,148
32.2690,126
32.3061,116
32.3433,127
32.3804,137
32.4176,150
32.4547,135
32.4919,135
32.5290,150
32.5662,130
32.6033,115
32.6405,150
32.6776,144
32.7148,124
32.7519,115
32.7891,130
32.8262,111
32.8634,145
32.9006,107
32.9377,142
32.9749,109
33.0120,114
33.0492,133
33.0863,114
33.1235,118
33.1606,121
33.1978,106
33.2349,109
33.2721,120
33.3092,109
33.3464,125
33.3835,117
33.4207,122
33.4578,108
33.4950,136
33.5321,109
33.5693,130
33.6064,134
33.6436,111
33.6807,113
33.7179,96
33.7550,129
33.7922,111
33.8293,122
33.8665,136
33.9036,119
33.9408,101
33.9779,119
34.0151,120
34.0522,119
34.0894,116
34.1265,112
34.1637,114
34.2008,134
34.2380,115
34.2751,120
34.3123,108
34.3494,102
34.3866,104
34.4238,133
34.4609,103
34.4981,102
34.5352,108
34.5724,131
34.6095,115
34.6467,132
34.6838,126
34.7210,150
34.7581,166
34.7953,165
34.8324,133
34.8696,130
34.9067,101
34.9439,125
34.9810,117
35.0182,117
35.0553,97
35.0925,120
35.1296,103
35.1668,85
35.2039,93
35.2411,101
35.2782,101
35.3154,100
35.3525,95
35.3897,87
35.4268,95
35.4640,116
35.5011,101
35.5383,120
35.5754,118
35.6126,111
35.6497,93
35.6869,80
35.7240,106
35.7612,102
35.7983,78
35.8355,88
35.8726,99
35.9098,97
35.9469,91
35.9841,90
36.0213,111
36.0584,90
36.0956,80
36.1327,94
36.1699,92
36.2070,96
36.2442,98
36.2813,117
36.3185,81
36.3556,74
36.3928,91
36.4299,101
36.4671,98
36.5042,100
36.5414,67
36.5785,90
36.6157,86
36.6528,82
36.6900,89
36.7271,77
36.7643,94
36.8014,81
36.8386,82
36.8757,87
36.9129,69
36.9500,101
36.9872,77
37.0243,91
37.0615,84
37.0986,79
37.1358,77
37.1729,116
37.2101,96
37.2472,76
37.2844,81
37.3215,92
37.3587,106
37.3958,102
37.4330,143
37.4701,155
37.5073,116
37.5445,123
37.5816,115
37.6188,93
37.6559,81
37.6931,98
37.7302,82
37.7674,81
37.8045,91
37.8417,81
37.8788,86
37.9160,82
37.9531,86
37.9903,85
38.0274,92
38.0646,78
38.1017,101
38.1389,110
38.1760,77
38.2132,72
38.2503,90
38.2875,83
38.3246,83
38.3618,68
38.3989,83
38.4361,87
38.4732,81
38.5104,72
38.5475,80
38.5847,83
38.6218,87
38.6590,82
38.6961,82
38.7333,87
38.7704,53
38.8076,91
38.8447,79
38.8819,99
38.9190,81
38.9562,84
38.9933,85
39.0305,85
39.0677,77
39.1048,78
39.1420,78
39.1791,80
39.2163,83
39.2534,88
39.2906,88
39.3277,69
39.3649,74
39.4020,86
39.4392,79
39.4763,81
39.5135,71
39.5506,80
39.5878,97
39.6249,90
39.6621,87
39.6992,69
39.7364,85
39.7735,93
39.8107,76
39.8478,74
39.8850,75
39.9221,87
39.9593,71
39.9964,67
40.0336,72
40.0707,75
40.1079,78
40.1450,75
40.1822,84
40.2193,86
40.2565,76
40.2936,84
40.3308,84
40.3679,84
40.4051,77
40.4422,78
40.4794,78
40.5165,85
40.5537,75
40.5908,88
40.6280,56
40.6652,83
40.7023,86
40.7395,88
40.7766,69
40.8138,71
40.8509,86
40.8881,81
40.9252,101
40.9624,85
40.9995,72
41.0367,79
41.0738,64
41.1110,62
41.1481,74
41.1853,66
41.2224,56
41.2596,89
41.2967,85
41.3339,70
41.3710,65
41.4082,82
41.4453,72
41.4825,81
41.5196,61
41.5568,78
41.5939,67
41.6311,96
41.6682,71
41.7054,67
41.7425,78
41.7797,70
41.8168,73
41.8540,79
41.8911,79
41.9283,67
41.9654,69
42.0026,79
42.0397,86
42.0769,72
42.1140,82
42.1512,71
42.1884,74
42.2255,82
42.2627,82
42.2998,70
42.3370,80
42.3741,72
42.4113,63
42.4484,75
42.4856,75
42.5227,77
42.5599,61
42.5970,77
42.6342,75
42.6713,85
42.7085,89
42.7456,60
42.7828,86
42.8199,66
42.8571,63
42.8942,92
42.9314,80
42.9685,70
43.0057,66
43.0428,77
43.0800,67
43.1171,76
43.1543,70
43.1914,76
43.2286,83
43.2657,77
43.3029,76
43.3400,88
43.3772,73
43.4143,74
43.4515,114
43.4886,118
43.5258,142
43.5629,82
43.6001,91
43.6372,92
43.6744,77
43.7116,78
43.7487,69
43.7859,70
43.8230,62
43.8602,73
43.8973,65
43.9345,64
43.9716,81
44.0088,58
44.0459,62
44.0831,72
44.1202,70
44.1574,70
44.1945,84
44.2317,76
44.2688,86
44.3060,64
44.3431,72
44.3803,79
44.4174,63
44.4546,77
44.4917,80
44.5289,82
44.5660,79
44.6032,81
44.6403,95
44.6775,80
44.7146,85
44.7518,77
44.7889,74
44.8261,75
44.8632,69
44.9004,73
44.9375,72
44.9747,72
45.0118,83
45.0490,78
45.0861,76
45.1233,73
45.1604,69
45.1976,77
45.2347,77
45.2719,74
45.3091,52
45.3462,60
45.3834,79
45.4205,66
45.4577,62
45.4948,60
45.5320,83
45.5691,74
45.6063,66
45.6434,71
45.6806,60
45.7177,77
45.7549,74
45.7920,63
45.8292,67
45.8663,68
45.9035,65
45.9406,58
45.9778,67
46.0149,73
46.0521,62
46.0892,53
46.1264,77
46.1635,67
46.2007,54
46.2378,67
46.2750,61
46.3121,66
46.3493,66
46.3864,61
46.4236,54
46.4607,67
46.4979,75
46.5350,81
46.5722,76
46.6093,54
46.6465,62
46.6836,66
46.7208,69
46.7579,63
46.7951,60
46.8323,64
46.8694,64
46.9066,74
46.9437,61
46.9809,78
47.0180,73
47.0552,59
47.0923,71
47.1295,61
47.1666,54
47.2038,65
47.2409,64
47.2781,68
47.3152,71
47.3524,73
47.3895,73
47.4267,62
47.4638,74
47.5010,68
47.5381,45
47.5753,73
47.6124,80
47.6496,65
47.6867,74
47.7239,65
47.7610,70
47.7982,53
47.8353,54
47.8725,62
47.9096,69
47.9468,58
47.9839,57
48.0211,66
48.0582,61
48.0954,65
48.1325,67
48.1697,59
48.2068,60
48.2440,70
48.2811,56
48.3183,68
48.3555,65
48.3926,52
48.4298,61
48.4669,70
48.5041,57
48.5412,59
48.5784,59
48.6155,57
48.6527,69
48.6898,51
48.7270,60
48.7641,55
48.8013,82
48.8384,73
48.8756,73
48.9127,76
48.9499,120
48.9870,98
49.0242,70
49.0613,83
49.0985,92
49.1356,62
49.1728,53
49.2099,55
49.2471,52
49.2842,65
49.3214,53
49.3585,53
49.3957,57
49.4328,72
49.4700,70
49.5071,51
49.5443,62
49.5814,71
49.6186,46
49.6557,62
49.6929,70
49.7300,69
49.7672,54
49.8043,62
49.8415,81
49.8786,60
49.9158,56
49.9530,55
49.9901,69
50.0273,64
50.0644,63
50.1016,55
50.1387,66
50.1759,57
50.2130,67
50.2502,55
50.2873,69
50.3245,62
50.3616,51
50.3988,67
50.4359,55
50.4731,57
50.5102,61
50.5474,63
50.5845,70
50.6217,69
50.6588,56
50.6960,59
50.7331,73
50.7703,64
50.8074,62
50.8446,62
50.8817,59
50.9189,56
50.9560,59
50.9932,50
51.0303,69
51.0675,65
51.1046,46
51.1418,56
51.1789,59
51.2161,51
51.2532,68
51.2904,51
51.3275,66
51.3647,69
51.4018,73
51.4390,78
51.4762,67
51.5133,82
51.5505,64
51.5876,70
51.6248,70
51.6619,75
51.6991,62
51.7362,54
51.7734,62
51.8105,60
51.8477,73
51.8848,81
51.9220,58
51.9591,66
51.9963,66
52.0334,51
52.0706,49
52.1077,62
52.1449,67
52.1820,60
52.2192,47
52.2563,54
52.2935,52
52.3306,62
52.3678,63
52.4049,49
52.4421,71
52.4792,63
52.5164,62
52.5535,56
52.5907,49
52.6278,77
52.6650,60
52.7021,47
52.7393,63
52.7764,55
52.8136,71
52.8507,58
52.8879,67
52.9250,56
52.9622,43
52.9994,71
53.0365,57
53.0737,59
53.1108,78
53.1480,58
53.1851,62
53.2223,48
53.2594,56
53.2966,52
53.3337,63
53.3709,60
53.4080,58
53.4452,59
53.4823,59
53.5195,51
53.5566,64
53.5938,48
53.6309,51
53.6681,53
53.7052,63
53.7424,50
53.7795,50
53.8167,62
53.8538,52
53.8910,67
53.9281,79
53.9653,70
54.0024,96
54.0396,57
54.0767,58
54.1139,70
54.1510,44
54.1882,65
54.2253,64
54.2625,63
54.2996,62
54.3368,56
54.3739,60
54.4111,40
54.4482,55
54.4854,61
54.5225,58
54.5597,65
54.5969,55
54.6340,57
54.6712,60
54.7083,56
54.7455,59
54.7826,52
54.8198,52
54.8569,46
54.8941,55
54.9312,63
54.9684,62
55.0055,54
55.0427,54
55.0798,49
55.1170,54
55.1541,51
55.1913,53
55.2284,56
55.2656,51
55.3027,73
55.3399,56
55.3770,45
55.4142,55
55.4513,68
55.4885,66
55.5256,66
55.5628,59
55.5999,63
55.6371,65
55.6742,59
55.7114,64
55.7485,63
55.7857,46
55.8228,51
55.8600,62
55.8971,42
55.9343,54
55.9714,45
56.0086,45
56.0457,63
56.0829,55
56.1201,46
56.1572,58
56.1944,64
56.2315,60
56.2687,61
56.3058,70
56.3430,57
56.3801,64
56.4173,67
56.4544,60
56.4916,59
56.5287,52
56.5659,45
56.6030,73
56.6402,53
56.6773,43
56.7145,55
56.7516,40
56.7888,54
56.8259,48
56.8631,53
56.9002,52
56.9374,50
56.9745,47
57.0117,54
57.0488,58
57.0860,54
57.1231,58
57.1603,54
57.1974,55
57.2346,64
57.2717,53
57.3089,43
57.3460,56
57.3832,57
57.4203,55
57.4575,57
57.4946,54
57.5318,49
57.5689,51
57.6061,60
57.6433,50
57.6804,65
57.7176,59
57.7547,62
57.7919,61
57.8290,62
57.8662,60
57.9033,64
57.9405,42
57.9776,55
58.0148,54
58.0519,65
58.0891,52
58.1262,46
58.1634,49
58.2005,49
58.2377,45
58.2748,43
58.3120,58
58.3491,50
58.3863,63
58.4234,54
58.4606,52
58.4977,42
58.5349,65
58.5720,61
58.6092,61
58.6463,56
58.6835,60
58.7206,53
58.7578,44
58.7949,65
58.8321,53
58.8692,57
58.9064,53
58.9435,49
58.9807,42
59.0178,52
59.0550,41
59.0921,52
59.1293,46
59.1664,58
59.2036,45
59.2408,59
59.2779,52
59.3151,58
59.3522,58
59.3894,57
59.4265,48
59.4637,55
59.5008,59
59.5380,49
59.5751,69
59.6123,42
59.6494,58
59.6866,60
59.7237,48
59.7609,57
59.7980,50
59.8352,49
59.8723,44
59.9095,56
59.9466,54
59.9838,60
60.0024,61