File: notebooks/data/xrd_data/ML_20220718_40_SJD_4_LaB6-1min.uxd
; (content of file Y:\Sam\Apurva-07-20-2022\puck4\ML_20220718_40_SJD_4_LaB6-1min.raw)
_FILEVERSION = 3
_SAMPLE = ML_20220718_40_SJD_4_LaB6-1min
_+SAMPLE =
_SITE = USA
_USER = Administrator
_GONIOMETER_CODE = 20
; Goniometer : D8 theta/2theta, stage : Unknown
_ATTACHMENTS_CODE = 0
_GONIOMETER_RADIUS = 200.5
_FIXED_DIVSLIT = 0.6
_FIXED_SAMPLESLIT = 0
_SOLLER_SLITS = 2
_FIXED_DETSLIT = 9.55
_MONOCHROMATOR = 0
; Incident beam monochromator : None
_SOLLER_SLITS_2 = N
_THIN_FILM = N
_BETA_FILTER = Y
_FIXED_ANTISLIT = 5.89
_ANALYZER_CODE = 0
; Received beam analyzer : None
_DATEMEASURED = "26-Jul-2022 10:30:39"
_WL_UNIT = A
_WL1 = 1.5406
_WL2 = 1.54439
_WL3 = 1.39222
_WLRATIO = 0.5
_ANODE = Cu
_V4_INF_CREATOR = XRDWizard
_V4_INF_CREATOR_VERSION = V2.9.0.22
_V4_INF_WIZARD_VERSION = V2.9.0.22
_V4_INF_WIZARD_ADDINS = V2.9.0.22
_V4_INF_WIZARD_DOCTYPE = XRD
_V4_INF_OSUSER = McQueenLab
_V4_INF_USER = Administrator
_V4_INF_SITE = USA
_V4_INF_SAMPLEID = ML_20220718_40_SJD_4_LaB6-1min

; Data for range 1
_DRIVE = COUPLED
_STEPTIME = 4.23
_STEPSIZE = 0.0185756
_STEPMODE = C
_START = 5
_THETA = 2.5
_2THETA = 5
_KHI = 0
_PHI = 0
_X = 0
_Y = 0
_Z = 0
_DETECTOR = 5
; Detector type : Unknown
_DETECTORSLIT = unkn
_AUX1 = 0
_AUX2 = 0
_AUX3 = 0
_TIMESTARTED = 15
_TEMP_RATE = -1
_TEMP_DELAY = -1
_KV = 40
_MA = 40
_RANGE_WL = 1.5406
_3DPLANE = 0
_V4_ADDITIONALDETECTOR = 257
_V4_PSD2THETA = 3.3738
_V4_PSDCHANNEL1 = 0
_V4_PSDAPERTURE = 12.68
_V4_PSDTYPE = 5
_V4_PSDFIXED = 0
_V4_COUNTERS_MASK = 4096
_V4_DRIVES_MASK = 0
_V4_ENCODERS_MASK = 0
_2THETACOUNTS = 1
; 2THETA  PSD
   5.0000        100
   5.0372         93
   5.0743        102
   5.1115         85
   5.1486         83
   5.1858         95
   5.2229         86
   5.2601         92
   5.2972         87
   5.3344         85
   5.3715         74
   5.4087         70
   5.4458         96
   5.4830         89
   5.5201         75
   5.5573         86
   5.5944         84
   5.6316         56
   5.6687         89
   5.7059         81
   5.7430         77
   5.7802         78
   5.8173         77
   5.8545         69
   5.8916         86
   5.9288         83
   5.9659         75
   6.0031         63
   6.0402         62
   6.0774         77
   6.1145         78
   6.1517         81
   6.1888         68
   6.2260         76
   6.2631         76
   6.3003         82
   6.3374         75
   6.3746         62
   6.4117         66
   6.4489         77
   6.4860         73
   6.5232         67
   6.5604         62
   6.5975         66
   6.6347         41
   6.6718         61
   6.7090         53
   6.7461         66
   6.7833         57
   6.8204         65
   6.8576         63
   6.8947         68
   6.9319         61
   6.9690         58
   7.0062         64
   7.0433         49
   7.0805         68
   7.1176         57
   7.1548         52
   7.1919         58
   7.2291         59
   7.2662         65
   7.3034         54
   7.3405         57
   7.3777         54
   7.4148         49
   7.4520         68
   7.4891         62
   7.5263         62
   7.5634         67
   7.6006         59
   7.6377         59
   7.6749         45
   7.7120         57
   7.7492         67
   7.7863         60
   7.8235         70
   7.8606         76
   7.8978         59
   7.9349         73
   7.9721         61
   8.0092         57
   8.0464         69
   8.0835         62
   8.1207         80
   8.1579         65
   8.1950         75
   8.2322         65
   8.2693         76
   8.3065         67
   8.3436         78
   8.3808         77
   8.4179         70
   8.4551         72
   8.4922         69
   8.5294         78
   8.5665         85
   8.6037         64
   8.6408         80
   8.6780         56
   8.7151         73
   8.7523         72
   8.7894         60
   8.8266         66
   8.8637         67
   8.9009         68
   8.9380         68
   8.9752         68
   9.0123         89
   9.0495         78
   9.0866         71
   9.1238         87
   9.1609         74
   9.1981         58
   9.2352         64
   9.2724         79
   9.3095         89
   9.3467         60
   9.3838         68
   9.4210         91
   9.4581         83
   9.4953         75
   9.5324         79
   9.5696         94
   9.6067         84
   9.6439         84
   9.6811         71
   9.7182         91
   9.7554         85
   9.7925         78
   9.8297         86
   9.8668         76
   9.9040         83
   9.9411         81
   9.9783         65
  10.0154         87
  10.0526         93
  10.0897         90
  10.1269         93
  10.1640         74
  10.2012        106
  10.2383         82
  10.2755        101
  10.3126         96
  10.3498         87
  10.3869         73
  10.4241         95
  10.4612         99
  10.4984         88
  10.5355         79
  10.5727         94
  10.6098        107
  10.6470         92
  10.6841        103
  10.7213         73
  10.7584         92
  10.7956         92
  10.8327        105
  10.8699         88
  10.9070         92
  10.9442         94
  10.9813         82
  11.0185         90
  11.0556         93
  11.0928         80
  11.1299         90
  11.1671        100
  11.2043         91
  11.2414         95
  11.2786         89
  11.3157         73
  11.3529         97
  11.3900         85
  11.4272         95
  11.4643         87
  11.5015         89
  11.5386         85
  11.5758         95
  11.6129         88
  11.6501         82
  11.6872         96
  11.7244         88
  11.7615         86
  11.7987         81
  11.8358         89
  11.8730         76
  11.9101         84
  11.9473         88
  11.9844         76
  12.0216         94
  12.0587         87
  12.0959         77
  12.1330         89
  12.1702         89
  12.2073         89
  12.2445         86
  12.2816         65
  12.3188         76
  12.3559         84
  12.3931         85
  12.4302         90
  12.4674         77
  12.5045         74
  12.5417         71
  12.5788         99
  12.6160         84
  12.6531         72
  12.6903         73
  12.7274         70
  12.7646         83
  12.8018         76
  12.8389         68
  12.8761         67
  12.9132         76
  12.9504         89
  12.9875         81
  13.0247         72
  13.0618         70
  13.0990         90
  13.1361         78
  13.1733         83
  13.2104         67
  13.2476         73
  13.2847         66
  13.3219         67
  13.3590         74
  13.3962         88
  13.4333         61
  13.4705         72
  13.5076         68
  13.5448         63
  13.5819         68
  13.6191         72
  13.6562         74
  13.6934         62
  13.7305         64
  13.7677         63
  13.8048         70
  13.8420         68
  13.8791         83
  13.9163         65
  13.9534         56
  13.9906         66
  14.0277         62
  14.0649         78
  14.1020         63
  14.1392         70
  14.1763         69
  14.2135         62
  14.2506         66
  14.2878         74
  14.3250         72
  14.3621         41
  14.3993         71
  14.4364         63
  14.4736         55
  14.5107         54
  14.5479         65
  14.5850         66
  14.6222         62
  14.6593         58
  14.6965         60
  14.7336         54
  14.7708         63
  14.8079         53
  14.8451         60
  14.8822         67
  14.9194         63
  14.9565         58
  14.9937         64
  15.0308         64
  15.0680         68
  15.1051         68
  15.1423         69
  15.1794         56
  15.2166         55
  15.2537         58
  15.2909         72
  15.3280         76
  15.3652         65
  15.4023         54
  15.4395         60
  15.4766         51
  15.5138         73
  15.5509         51
  15.5881         59
  15.6252         54
  15.6624         60
  15.6995         45
  15.7367         61
  15.7738         59
  15.8110         58
  15.8482         53
  15.8853         62
  15.9225         55
  15.9596         61
  15.9968         66
  16.0339         61
  16.0711         60
  16.1082         48
  16.1454         49
  16.1825         53
  16.2197         56
  16.2568         56
  16.2940         75
  16.3311         72
  16.3683         72
  16.4054         64
  16.4426         52
  16.4797         69
  16.5169         64
  16.5540         63
  16.5912         71
  16.6283         76
  16.6655         57
  16.7026         74
  16.7398         53
  16.7769         61
  16.8141         62
  16.8512         60
  16.8884         66
  16.9255         61
  16.9627         56
  16.9998         56
  17.0370         67
  17.0741         52
  17.1113         52
  17.1484         74
  17.1856         55
  17.2227         58
  17.2599         77
  17.2970         55
  17.3342         58
  17.3713         60
  17.4085         61
  17.4457         62
  17.4828         77
  17.5200         60
  17.5571         59
  17.5943         62
  17.6314         64
  17.6686         62
  17.7057         54
  17.7429         67
  17.7800         50
  17.8172         66
  17.8543         60
  17.8915         67
  17.9286         40
  17.9658         61
  18.0029         51
  18.0401         74
  18.0772         68
  18.1144         56
  18.1515         58
  18.1887         48
  18.2258         74
  18.2630         71
  18.3001         54
  18.3373         59
  18.3744         58
  18.4116         56
  18.4487         72
  18.4859         77
  18.5230         73
  18.5602         53
  18.5973         57
  18.6345         55
  18.6716         61
  18.7088         70
  18.7459         60
  18.7831         58
  18.8202         62
  18.8574         46
  18.8945         50
  18.9317         61
  18.9689         74
  19.0060         64
  19.0432         75
  19.0803         52
  19.1175         61
  19.1546         65
  19.1918         65
  19.2289         72
  19.2661         47
  19.3032         58
  19.3404         64
  19.3775         69
  19.4147         54
  19.4518         76
  19.4890         78
  19.5261         53
  19.5633         60
  19.6004         68
  19.6376         62
  19.6747         52
  19.7119         84
  19.7490         70
  19.7862         66
  19.8233         61
  19.8605         69
  19.8976         67
  19.9348         60
  19.9719         67
  20.0091         63
  20.0462         68
  20.0834         65
  20.1205         68
  20.1577         76
  20.1948         61
  20.2320         61
  20.2691         59
  20.3063         72
  20.3434         71
  20.3806         66
  20.4177         72
  20.4549         74
  20.4921         65
  20.5292         65
  20.5664         81
  20.6035         82
  20.6407         79
  20.6778         57
  20.7150         62
  20.7521         80
  20.7893         60
  20.8264         67
  20.8636         82
  20.9007         65
  20.9379         71
  20.9750         57
  21.0122         69
  21.0493         75
  21.0865         70
  21.1236         75
  21.1608         73
  21.1979         95
  21.2351        127
  21.2722        118
  21.3094        128
  21.3465        164
  21.3837        152
  21.4208        129
  21.4580         77
  21.4951         84
  21.5323         73
  21.5694         81
  21.6066         68
  21.6437         76
  21.6809         68
  21.7180         70
  21.7552         72
  21.7923         64
  21.8295         56
  21.8666         65
  21.9038         91
  21.9409         66
  21.9781         73
  22.0152         70
  22.0524         73
  22.0896         65
  22.1267         72
  22.1639         63
  22.2010         72
  22.2382         79
  22.2753         70
  22.3125         70
  22.3496         85
  22.3868         68
  22.4239         72
  22.4611         91
  22.4982         64
  22.5354         62
  22.5725         59
  22.6097         70
  22.6468         84
  22.6840         72
  22.7211         97
  22.7583         74
  22.7954         69
  22.8326         68
  22.8697         67
  22.9069         74
  22.9440         67
  22.9812         61
  23.0183         74
  23.0555         66
  23.0926         59
  23.1298         81
  23.1669         79
  23.2041         87
  23.2412         66
  23.2784         73
  23.3155         62
  23.3527         76
  23.3898         63
  23.4270         65
  23.4641         79
  23.5013         71
  23.5384         74
  23.5756         76
  23.6128         78
  23.6499         84
  23.6871         82
  23.7242         70
  23.7614         79
  23.7985         83
  23.8357         91
  23.8728         72
  23.9100         79
  23.9471         71
  23.9843         68
  24.0214         79
  24.0586         70
  24.0957         79
  24.1329         68
  24.1700         74
  24.2072         88
  24.2443         63
  24.2815         84
  24.3186         79
  24.3558         93
  24.3929         74
  24.4301         74
  24.4672         71
  24.5044         90
  24.5415         74
  24.5787         64
  24.6158         73
  24.6530         79
  24.6901         54
  24.7273         69
  24.7644         59
  24.8016         62
  24.8387         61
  24.8759         72
  24.9130         82
  24.9502         71
  24.9873         84
  25.0245         70
  25.0616         67
  25.0988         65
  25.1360         65
  25.1731         70
  25.2103         69
  25.2474         81
  25.2846         83
  25.3217         56
  25.3589         89
  25.3960         71
  25.4332         57
  25.4703         69
  25.5075         73
  25.5446         82
  25.5818         72
  25.6189         71
  25.6561         61
  25.6932         66
  25.7304         76
  25.7675         74
  25.8047         58
  25.8418         56
  25.8790         74
  25.9161         68
  25.9533         53
  25.9904         78
  26.0276         65
  26.0647         80
  26.1019         81
  26.1390         61
  26.1762         66
  26.2133         54
  26.2505         73
  26.2876         71
  26.3248         68
  26.3619         71
  26.3991         74
  26.4362         55
  26.4734         67
  26.5105         75
  26.5477         69
  26.5848         77
  26.6220         70
  26.6591         67
  26.6963         76
  26.7335         84
  26.7706         71
  26.8078         68
  26.8449         75
  26.8821         60
  26.9192         78
  26.9564         57
  26.9935         68
  27.0307         70
  27.0678         70
  27.1050         67
  27.1421         79
  27.1793         70
  27.2164         86
  27.2536         79
  27.2907         76
  27.3279         74
  27.3650         81
  27.4022         87
  27.4393         69
  27.4765         65
  27.5136         55
  27.5508         72
  27.5879         59
  27.6251         60
  27.6622         70
  27.6994         76
  27.7365         70
  27.7737         66
  27.8108         55
  27.8480         82
  27.8851         71
  27.9223         68
  27.9594         60
  27.9966         64
  28.0337         69
  28.0709         67
  28.1080         68
  28.1452         61
  28.1823         71
  28.2195         50
  28.2567         52
  28.2938         60
  28.3310         53
  28.3681         60
  28.4053         71
  28.4424         67
  28.4796         61
  28.5167         60
  28.5539         60
  28.5910         58
  28.6282         57
  28.6653         60
  28.7025         57
  28.7396         62
  28.7768         51
  28.8139         44
  28.8511         63
  28.8882         63
  28.9254         60
  28.9625         63
  28.9997         62
  29.0368         64
  29.0740         55
  29.1111         68
  29.1483         60
  29.1854         55
  29.2226         58
  29.2597         52
  29.2969         70
  29.3340         58
  29.3712         46
  29.4083         60
  29.4455         66
  29.4826         56
  29.5198         49
  29.5569         74
  29.5941         68
  29.6312         54
  29.6684         47
  29.7055         51
  29.7427         56
  29.7799         57
  29.8170         70
  29.8542         53
  29.8913         56
  29.9285         56
  29.9656         57
  30.0028         59
  30.0399         61
  30.0771         59
  30.1142         58
  30.1514         59
  30.1885         67
  30.2257         53
  30.2628         63
  30.3000         68
  30.3371         77
  30.3743        108
  30.4114        103
  30.4486        105
  30.4857         72
  30.5229         60
  30.5600         51
  30.5972         53
  30.6343         54
  30.6715         49
  30.7086         57
  30.7458         50
  30.7829         56
  30.8201         54
  30.8572         37
  30.8944         44
  30.9315         65
  30.9687         69
  31.0058         47
  31.0430         43
  31.0801         48
  31.1173         54
  31.1544         51
  31.1916         44
  31.2287         52
  31.2659         50
  31.3030         48
  31.3402         49
  31.3774         48
  31.4145         47
  31.4517         53
  31.4888         58
  31.5260         48
  31.5631         59
  31.6003         40
  31.6374         63
  31.6746         57
  31.7117         52
  31.7489         47
  31.7860         61
  31.8232         42
  31.8603         53
  31.8975         43
  31.9346         57
  31.9718         40
  32.0089         42
  32.0461         55
  32.0832         47
  32.1204         46
  32.1575         43
  32.1947         54
  32.2318         68
  32.2690         41
  32.3061         49
  32.3433         45
  32.3804         55
  32.4176         50
  32.4547         59
  32.4919         60
  32.5290         55
  32.5662         56
  32.6033         68
  32.6405         48
  32.6776         41
  32.7148         50
  32.7519         54
  32.7891         50
  32.8262         59
  32.8634         38
  32.9006         40
  32.9377         47
  32.9749         36
  33.0120         63
  33.0492         62
  33.0863         31
  33.1235         40
  33.1606         44
  33.1978         33
  33.2349         46
  33.2721         50
  33.3092         39
  33.3464         46
  33.3835         46
  33.4207         47
  33.4578         47
  33.4950         40
  33.5321         48
  33.5693         40
  33.6064         46
  33.6436         38
  33.6807         42
  33.7179         48
  33.7550         54
  33.7922         46
  33.8293         41
  33.8665         36
  33.9036         30
  33.9408         44
  33.9779         36
  34.0151         36
  34.0522         56
  34.0894         37
  34.1265         35
  34.1637         45
  34.2008         34
  34.2380         43
  34.2751         36
  34.3123         54
  34.3494         40
  34.3866         37
  34.4238         32
  34.4609         45
  34.4981         47
  34.5352         30
  34.5724         47
  34.6095         40
  34.6467         47
  34.6838         43
  34.7210         42
  34.7581         58
  34.7953         61
  34.8324         43
  34.8696         46
  34.9067         35
  34.9439         53
  34.9810         38
  35.0182         32
  35.0553         33
  35.0925         36
  35.1296         42
  35.1668         32
  35.2039         35
  35.2411         32
  35.2782         54
  35.3154         53
  35.3525         33
  35.3897         34
  35.4268         40
  35.4640         34
  35.5011         35
  35.5383         32
  35.5754         44
  35.6126         27
  35.6497         50
  35.6869         38
  35.7240         34
  35.7612         31
  35.7983         40
  35.8355         31
  35.8726         38
  35.9098         39
  35.9469         42
  35.9841         40
  36.0213         39
  36.0584         36
  36.0956         38
  36.1327         35
  36.1699         32
  36.2070         46
  36.2442         33
  36.2813         38
  36.3185         35
  36.3556         42
  36.3928         40
  36.4299         34
  36.4671         32
  36.5042         32
  36.5414         35
  36.5785         41
  36.6157         37
  36.6528         34
  36.6900         28
  36.7271         32
  36.7643         39
  36.8014         39
  36.8386         36
  36.8757         33
  36.9129         32
  36.9500         23
  36.9872         28
  37.0243         35
  37.0615         37
  37.0986         34
  37.1358         35
  37.1729         40
  37.2101         36
  37.2472         29
  37.2844         32
  37.3215         37
  37.3587         35
  37.3958         59
  37.4330         57
  37.4701         60
  37.5073         51
  37.5445         42
  37.5816         40
  37.6188         34
  37.6559         35
  37.6931         42
  37.7302         31
  37.7674         37
  37.8045         31
  37.8417         30
  37.8788         28
  37.9160         39
  37.9531         34
  37.9903         34
  38.0274         37
  38.0646         40
  38.1017         34
  38.1389         26
  38.1760         28
  38.2132         38
  38.2503         30
  38.2875         32
  38.3246         24
  38.3618         34
  38.3989         22
  38.4361         26
  38.4732         32
  38.5104         17
  38.5475         35
  38.5847         33
  38.6218         40
  38.6590         26
  38.6961         30
  38.7333         35
  38.7704         30
  38.8076         25
  38.8447         20
  38.8819         29
  38.9190         33
  38.9562         23
  38.9933         30
  39.0305         36
  39.0677         27
  39.1048         34
  39.1420         29
  39.1791         35
  39.2163         31
  39.2534         22
  39.2906         39
  39.3277         32
  39.3649         36
  39.4020         26
  39.4392         34
  39.4763         29
  39.5135         22
  39.5506         25
  39.5878         37
  39.6249         28
  39.6621         38
  39.6992         25
  39.7364         28
  39.7735         30
  39.8107         30
  39.8478         26
  39.8850         32
  39.9221         24
  39.9593         35
  39.9964         28
  40.0336         34
  40.0707         24
  40.1079         33
  40.1450         35
  40.1822         24
  40.2193         39
  40.2565         29
  40.2936         36
  40.3308         28
  40.3679         26
  40.4051         32
  40.4422         20
  40.4794         31
  40.5165         27
  40.5537         28
  40.5908         31
  40.6280         30
  40.6652         25
  40.7023         33
  40.7395         32
  40.7766         26
  40.8138         29
  40.8509         28
  40.8881         34
  40.9252         35
  40.9624         33
  40.9995         31
  41.0367         21
  41.0738         25
  41.1110         27
  41.1481         31
  41.1853         24
  41.2224         26
  41.2596         31
  41.2967         28
  41.3339         30
  41.3710         30
  41.4082         22
  41.4453         25
  41.4825         30
  41.5196         18
  41.5568         28
  41.5939         28
  41.6311         16
  41.6682         33
  41.7054         30
  41.7425         21
  41.7797         17
  41.8168         24
  41.8540         32
  41.8911         21
  41.9283         33
  41.9654         35
  42.0026         27
  42.0397         32
  42.0769         32
  42.1140         22
  42.1512         26
  42.1884         28
  42.2255         31
  42.2627         23
  42.2998         24
  42.3370         34
  42.3741         31
  42.4113         26
  42.4484         34
  42.4856         26
  42.5227         35
  42.5599         31
  42.5970         29
  42.6342         20
  42.6713         25
  42.7085         26
  42.7456         17
  42.7828         24
  42.8199         30
  42.8571         23
  42.8942         28
  42.9314         23
  42.9685         24
  43.0057         26
  43.0428         37
  43.0800         22
  43.1171         34
  43.1543         28
  43.1914         34
  43.2286         36
  43.2657         32
  43.3029         27
  43.3400         28
  43.3772         29
  43.4143         34
  43.4515         41
  43.4886         46
  43.5258         39
  43.5629         33
  43.6001         28
  43.6372         31
  43.6744         35
  43.7116         29
  43.7487         37
  43.7859         37
  43.8230         25
  43.8602         23
  43.8973         23
  43.9345         28
  43.9716         30
  44.0088         26
  44.0459         22
  44.0831         26
  44.1202         24
  44.1574         33
  44.1945         29
  44.2317         27
  44.2688         23
  44.3060         30
  44.3431         26
  44.3803         35
  44.4174         22
  44.4546         21
  44.4917         35
  44.5289         30
  44.5660         36
  44.6032         34
  44.6403         11
  44.6775         35
  44.7146         31
  44.7518         28
  44.7889         26
  44.8261         34
  44.8632         31
  44.9004         24
  44.9375         16
  44.9747         19
  45.0118         29
  45.0490         19
  45.0861         21
  45.1233         16
  45.1604         30
  45.1976         28
  45.2347         28
  45.2719         23
  45.3091         25
  45.3462         29
  45.3834         31
  45.4205         22
  45.4577         27
  45.4948         18
  45.5320         26
  45.5691         31
  45.6063         22
  45.6434         24
  45.6806         27
  45.7177         22
  45.7549         27
  45.7920         31
  45.8292         23
  45.8663         27
  45.9035         24
  45.9406         25
  45.9778         22
  46.0149         16
  46.0521         23
  46.0892         21
  46.1264         22
  46.1635         24
  46.2007         22
  46.2378         21
  46.2750         29
  46.3121         37
  46.3493         24
  46.3864         30
  46.4236         26
  46.4607         22
  46.4979         21
  46.5350         25
  46.5722         24
  46.6093         36
  46.6465         31
  46.6836         21
  46.7208         24
  46.7579         21
  46.7951         28
  46.8323         21
  46.8694         29
  46.9066         25
  46.9437         24
  46.9809         26
  47.0180         23
  47.0552         21
  47.0923         23
  47.1295         32
  47.1666         23
  47.2038         23
  47.2409         30
  47.2781         19
  47.3152         18
  47.3524         23
  47.3895         21
  47.4267         33
  47.4638         27
  47.5010         21
  47.5381         19
  47.5753         27
  47.6124         23
  47.6496         32
  47.6867         36
  47.7239         23
  47.7610         17
  47.7982         22
  47.8353         19
  47.8725         24
  47.9096         32
  47.9468         18
  47.9839         16
  48.0211         20
  48.0582         21
  48.0954         24
  48.1325         22
  48.1697         13
  48.2068         25
  48.2440         21
  48.2811         23
  48.3183         25
  48.3555         21
  48.3926         18
  48.4298         21
  48.4669         29
  48.5041         25
  48.5412         19
  48.5784         28
  48.6155         23
  48.6527         23
  48.6898         28
  48.7270         19
  48.7641         19
  48.8013         21
  48.8384         20
  48.8756         30
  48.9127         28
  48.9499         37
  48.9870         24
  49.0242         22
  49.0613         31
  49.0985         37
  49.1356         30
  49.1728         24
  49.2099         22
  49.2471         24
  49.2842         12
  49.3214         24
  49.3585         16
  49.3957         28
  49.4328         21
  49.4700         17
  49.5071         20
  49.5443         16
  49.5814         26
  49.6186         17
  49.6557         24
  49.6929         18
  49.7300         24
  49.7672         30
  49.8043         24
  49.8415         20
  49.8786         27
  49.9158         29
  49.9530         28
  49.9901         23
  50.0273         22
  50.0644         31
  50.1016         22
  50.1387         28
  50.1759         26
  50.2130         26
  50.2502         25
  50.2873         23
  50.3245         29
  50.3616         24
  50.3988         12
  50.4359         20
  50.4731         26
  50.5102         18
  50.5474         24
  50.5845         19
  50.6217         18
  50.6588         26
  50.6960         19
  50.7331         22
  50.7703          9
  50.8074         25
  50.8446         22
  50.8817         18
  50.9189         22
  50.9560         27
  50.9932         22
  51.0303         27
  51.0675         23
  51.1046         15
  51.1418         19
  51.1789         20
  51.2161         28
  51.2532         16
  51.2904         21
  51.3275         28
  51.3647         17
  51.4018         30
  51.4390         23
  51.4762         22
  51.5133         20
  51.5505         19
  51.5876         31
  51.6248         22
  51.6619         24
  51.6991         22
  51.7362         23
  51.7734         30
  51.8105         25
  51.8477         24
  51.8848         26
  51.9220         23
  51.9591         18
  51.9963         17
  52.0334         21
  52.0706         29
  52.1077         28
  52.1449         25
  52.1820         28
  52.2192         21
  52.2563         20
  52.2935         18
  52.3306         17
  52.3678         20
  52.4049         16
  52.4421         23
  52.4792         19
  52.5164         21
  52.5535         27
  52.5907         22
  52.6278         22
  52.6650         23
  52.7021         21
  52.7393         23
  52.7764         14
  52.8136         18
  52.8507         20
  52.8879         25
  52.9250         28
  52.9622         28
  52.9994         10
  53.0365         25
  53.0737         18
  53.1108         26
  53.1480         21
  53.1851         13
  53.2223         29
  53.2594         20
  53.2966         14
  53.3337         24
  53.3709         26
  53.4080         21
  53.4452         21
  53.4823         20
  53.5195         15
  53.5566         18
  53.5938         15
  53.6309         20
  53.6681         17
  53.7052         23
  53.7424         19
  53.7795         14
  53.8167         17
  53.8538         20
  53.8910         21
  53.9281         22
  53.9653         14
  54.0024         20
  54.0396         24
  54.0767         26
  54.1139         21
  54.1510         26
  54.1882         30
  54.2253         26
  54.2625         24
  54.2996         17
  54.3368         12
  54.3739         14
  54.4111         18
  54.4482         25
  54.4854         28
  54.5225         24
  54.5597         16
  54.5969         17
  54.6340         21
  54.6712         17
  54.7083         19
  54.7455         19
  54.7826         26
  54.8198         21
  54.8569         16
  54.8941         14
  54.9312         15
  54.9684         27
  55.0055         15
  55.0427         19
  55.0798         18
  55.1170         14
  55.1541         22
  55.1913         16
  55.2284         19
  55.2656         24
  55.3027         18
  55.3399         20
  55.3770         17
  55.4142         22
  55.4513         12
  55.4885         21
  55.5256         21
  55.5628         24
  55.5999         18
  55.6371         22
  55.6742         23
  55.7114         25
  55.7485         19
  55.7857         26
  55.8228         23
  55.8600         24
  55.8971         25
  55.9343         17
  55.9714         22
  56.0086         25
  56.0457         30
  56.0829         17
  56.1201         29
  56.1572         19
  56.1944         25
  56.2315         27
  56.2687         21
  56.3058         10
  56.3430         20
  56.3801         13
  56.4173         24
  56.4544         22
  56.4916         24
  56.5287         21
  56.5659         13
  56.6030         28
  56.6402         13
  56.6773         19
  56.7145         18
  56.7516         21
  56.7888         25
  56.8259         17
  56.8631         17
  56.9002         27
  56.9374         18
  56.9745         15
  57.0117         20
  57.0488         21
  57.0860         19
  57.1231         12
  57.1603         22
  57.1974         20
  57.2346         19
  57.2717         21
  57.3089         15
  57.3460         25
  57.3832         13
  57.4203         20
  57.4575         18
  57.4946         21
  57.5318         19
  57.5689         14
  57.6061         17
  57.6433         24
  57.6804         25
  57.7176         24
  57.7547         14
  57.7919         14
  57.8290         24
  57.8662         17
  57.9033         11
  57.9405         22
  57.9776         18
  58.0148         18
  58.0519         23
  58.0891         25
  58.1262         23
  58.1634         19
  58.2005         17
  58.2377         12
  58.2748         21
  58.3120         16
  58.3491         19
  58.3863         22
  58.4234         15
  58.4606         24
  58.4977         22
  58.5349         22
  58.5720         21
  58.6092         19
  58.6463         18
  58.6835         19
  58.7206         19
  58.7578         17
  58.7949         23
  58.8321         15
  58.8692         17
  58.9064         19
  58.9435         24
  58.9807         19
  59.0178         27
  59.0550         25
  59.0921         23
  59.1293         18
  59.1664         16
  59.2036         22
  59.2408         16
  59.2779         22
  59.3151         27
  59.3522         16
  59.3894         24
  59.4265         19
  59.4637         16
  59.5008         17
  59.5380         24
  59.5751         16
  59.6123         24
  59.6494         14
  59.6866         23
  59.7237         15
  59.7609         14
  59.7980         17
  59.8352         19
  59.8723         20
  59.9095         24
  59.9466         15
  59.9838         22
  60.0024         24