File: notebooks/data/xrd_data/ML_20220720_7_SJD_4_LaB6-4min.csv
;,2THETA,
5.0000,256
5.0372,306
5.0743,283
5.1115,243
5.1486,267
5.1858,232
5.2229,232
5.2601,250
5.2972,237
5.3344,224
5.3715,213
5.4087,255
5.4458,225
5.4830,238
5.5201,227
5.5573,227
5.5944,227
5.6316,226
5.6687,237
5.7059,237
5.7430,223
5.7802,209
5.8173,183
5.8545,211
5.8916,207
5.9288,207
5.9659,180
6.0031,207
6.0402,166
6.0774,200
6.1145,200
6.1517,198
6.1888,196
6.2260,194
6.2631,184
6.3003,166
6.3374,166
6.3746,173
6.4117,192
6.4489,211
6.4860,175
6.5232,185
6.5604,174
6.5975,171
6.6347,165
6.6718,171
6.7090,170
6.7461,178
6.7833,173
6.8204,182
6.8576,195
6.8947,160
6.9319,142
6.9690,191
7.0062,180
7.0433,167
7.0805,177
7.1176,154
7.1548,160
7.1919,183
7.2291,176
7.2662,156
7.3034,155
7.3405,164
7.3777,158
7.4148,168
7.4520,152
7.4891,174
7.5263,178
7.5634,159
7.6006,159
7.6377,175
7.6749,174
7.7120,187
7.7492,157
7.7863,154
7.8235,180
7.8606,203
7.8978,201
7.9349,182
7.9721,171
8.0092,157
8.0464,188
8.0835,168
8.1207,208
8.1579,191
8.1950,168
8.2322,187
8.2693,188
8.3065,189
8.3436,195
8.3808,187
8.4179,197
8.4551,210
8.4922,213
8.5294,201
8.5665,213
8.6037,232
8.6408,220
8.6780,217
8.7151,187
8.7523,218
8.7894,204
8.8266,214
8.8637,215
8.9009,200
8.9380,218
8.9752,218
9.0123,231
9.0495,217
9.0866,250
9.1238,242
9.1609,243
9.1981,212
9.2352,199
9.2724,234
9.3095,233
9.3467,203
9.3838,228
9.4210,235
9.4581,236
9.4953,225
9.5324,210
9.5696,225
9.6067,237
9.6439,229
9.6811,221
9.7182,242
9.7554,225
9.7925,216
9.8297,239
9.8668,270
9.9040,205
9.9411,223
9.9783,242
10.0154,230
10.0526,229
10.0897,252
10.1269,239
10.1640,245
10.2012,232
10.2383,266
10.2755,245
10.3126,250
10.3498,235
10.3869,230
10.4241,269
10.4612,263
10.4984,235
10.5355,272
10.5727,234
10.6098,242
10.6470,226
10.6841,252
10.7213,206
10.7584,253
10.7956,254
10.8327,246
10.8699,239
10.9070,227
10.9442,260
10.9813,242
11.0185,232
11.0556,216
11.0928,236
11.1299,245
11.1671,244
11.2043,243
11.2414,232
11.2786,247
11.3157,223
11.3529,214
11.3900,245
11.4272,217
11.4643,245
11.5015,231
11.5386,240
11.5758,236
11.6129,224
11.6501,250
11.6872,242
11.7244,243
11.7615,225
11.7987,204
11.8358,267
11.8730,221
11.9101,259
11.9473,238
11.9844,221
12.0216,233
12.0587,242
12.0959,249
12.1330,223
12.1702,236
12.2073,246
12.2445,226
12.2816,204
12.3188,234
12.3559,243
12.3931,217
12.4302,217
12.4674,256
12.5045,182
12.5417,225
12.5788,263
12.6160,217
12.6531,218
12.6903,230
12.7274,214
12.7646,196
12.8018,216
12.8389,210
12.8761,243
12.9132,226
12.9504,210
12.9875,220
13.0247,207
13.0618,199
13.0990,207
13.1361,193
13.1733,191
13.2104,202
13.2476,208
13.2847,207
13.3219,186
13.3590,206
13.3962,182
13.4333,190
13.4705,197
13.5076,175
13.5448,209
13.5819,211
13.6191,158
13.6562,195
13.6934,194
13.7305,173
13.7677,193
13.8048,158
13.8420,189
13.8791,190
13.9163,179
13.9534,181
13.9906,185
14.0277,175
14.0649,179
14.1020,189
14.1392,197
14.1763,171
14.2135,181
14.2506,184
14.2878,186
14.3250,180
14.3621,166
14.3993,213
14.4364,201
14.4736,176
14.5107,188
14.5479,206
14.5850,171
14.6222,160
14.6593,185
14.6965,187
14.7336,160
14.7708,161
14.8079,175
14.8451,175
14.8822,176
14.9194,170
14.9565,163
14.9937,188
15.0308,179
15.0680,159
15.1051,148
15.1423,141
15.1794,161
15.2166,182
15.2537,170
15.2909,163
15.3280,163
15.3652,166
15.4023,160
15.4395,167
15.4766,164
15.5138,142
15.5509,157
15.5881,156
15.6252,157
15.6624,170
15.6995,153
15.7367,170
15.7738,185
15.8110,143
15.8482,168
15.8853,180
15.9225,163
15.9596,178
15.9968,183
16.0339,159
16.0711,172
16.1082,166
16.1454,170
16.1825,165
16.2197,161
16.2568,162
16.2940,150
16.3311,164
16.3683,169
16.4054,170
16.4426,158
16.4797,151
16.5169,159
16.5540,163
16.5912,169
16.6283,171
16.6655,155
16.7026,168
16.7398,163
16.7769,143
16.8141,156
16.8512,145
16.8884,162
16.9255,167
16.9627,167
16.9998,169
17.0370,173
17.0741,165
17.1113,156
17.1484,148
17.1856,184
17.2227,174
17.2599,162
17.2970,145
17.3342,163
17.3713,165
17.4085,169
17.4457,179
17.4828,164
17.5200,157
17.5571,168
17.5943,154
17.6314,148
17.6686,144
17.7057,172
17.7429,162
17.7800,157
17.8172,172
17.8543,162
17.8915,151
17.9286,158
17.9658,185
18.0029,171
18.0401,181
18.0772,190
18.1144,175
18.1515,164
18.1887,185
18.2258,176
18.2630,167
18.3001,157
18.3373,150
18.3744,146
18.4116,148
18.4487,185
18.4859,180
18.5230,179
18.5602,153
18.5973,168
18.6345,183
18.6716,173
18.7088,193
18.7459,182
18.7831,164
18.8202,166
18.8574,161
18.8945,168
18.9317,187
18.9689,144
19.0060,167
19.0432,156
19.0803,163
19.1175,173
19.1546,166
19.1918,171
19.2289,158
19.2661,164
19.3032,171
19.3404,163
19.3775,182
19.4147,153
19.4518,167
19.4890,152
19.5261,147
19.5633,190
19.6004,165
19.6376,190
19.6747,150
19.7119,165
19.7490,184
19.7862,169
19.8233,164
19.8605,214
19.8976,194
19.9348,169
19.9719,182
20.0091,173
20.0462,190
20.0834,179
20.1205,184
20.1577,183
20.1948,189
20.2320,183
20.2691,199
20.3063,193
20.3434,176
20.3806,203
20.4177,186
20.4549,188
20.4921,193
20.5292,234
20.5664,168
20.6035,169
20.6407,197
20.6778,175
20.7150,203
20.7521,210
20.7893,191
20.8264,195
20.8636,175
20.9007,197
20.9379,180
20.9750,182
21.0122,188
21.0493,184
21.0865,213
21.1236,222
21.1608,260
21.1979,274
21.2351,347
21.2722,289
21.3094,360
21.3465,508
21.3837,455
21.4208,332
21.4580,217
21.4951,213
21.5323,194
21.5694,207
21.6066,202
21.6437,193
21.6809,188
21.7180,217
21.7552,222
21.7923,189
21.8295,212
21.8666,194
21.9038,172
21.9409,203
21.9781,184
22.0152,171
22.0524,212
22.0896,198
22.1267,192
22.1639,211
22.2010,181
22.2382,187
22.2753,193
22.3125,213
22.3496,182
22.3868,201
22.4239,198
22.4611,186
22.4982,241
22.5354,230
22.5725,206
22.6097,187
22.6468,181
22.6840,205
22.7211,198
22.7583,197
22.7954,206
22.8326,183
22.8697,191
22.9069,203
22.9440,211
22.9812,202
23.0183,205
23.0555,205
23.0926,207
23.1298,221
23.1669,206
23.2041,186
23.2412,197
23.2784,196
23.3155,201
23.3527,217
23.3898,196
23.4270,235
23.4641,205
23.5013,192
23.5384,189
23.5756,206
23.6128,201
23.6499,188
23.6871,206
23.7242,215
23.7614,184
23.7985,187
23.8357,201
23.8728,216
23.9100,183
23.9471,211
23.9843,219
24.0214,210
24.0586,203
24.0957,197
24.1329,200
24.1700,204
24.2072,224
24.2443,240
24.2815,228
24.3186,223
24.3558,214
24.3929,232
24.4301,194
24.4672,215
24.5044,215
24.5415,212
24.5787,194
24.6158,177
24.6530,229
24.6901,206
24.7273,214
24.7644,221
24.8016,193
24.8387,236
24.8759,187
24.9130,191
24.9502,187
24.9873,188
25.0245,194
25.0616,184
25.0988,209
25.1360,231
25.1731,207
25.2103,206
25.2474,202
25.2846,223
25.3217,202
25.3589,194
25.3960,202
25.4332,181
25.4703,214
25.5075,188
25.5446,204
25.5818,205
25.6189,217
25.6561,197
25.6932,206
25.7304,218
25.7675,202
25.8047,195
25.8418,208
25.8790,188
25.9161,186
25.9533,199
25.9904,208
26.0276,212
26.0647,180
26.1019,195
26.1390,195
26.1762,198
26.2133,185
26.2505,161
26.2876,182
26.3248,197
26.3619,187
26.3991,203
26.4362,177
26.4734,213
26.5105,183
26.5477,192
26.5848,177
26.6220,222
26.6591,210
26.6963,200
26.7335,211
26.7706,183
26.8078,174
26.8449,201
26.8821,201
26.9192,189
26.9564,187
26.9935,193
27.0307,183
27.0678,193
27.1050,181
27.1421,195
27.1793,223
27.2164,226
27.2536,202
27.2907,220
27.3279,197
27.3650,194
27.4022,203
27.4393,177
27.4765,178
27.5136,205
27.5508,186
27.5879,167
27.6251,183
27.6622,190
27.6994,194
27.7365,195
27.7737,170
27.8108,147
27.8480,194
27.8851,186
27.9223,183
27.9594,205
27.9966,168
28.0337,172
28.0709,173
28.1080,174
28.1452,154
28.1823,144
28.2195,180
28.2567,159
28.2938,174
28.3310,174
28.3681,161
28.4053,179
28.4424,158
28.4796,187
28.5167,164
28.5539,166
28.5910,147
28.6282,165
28.6653,159
28.7025,175
28.7396,167
28.7768,165
28.8139,177
28.8511,159
28.8882,161
28.9254,147
28.9625,161
28.9997,151
29.0368,134
29.0740,137
29.1111,168
29.1483,180
29.1854,153
29.2226,143
29.2597,154
29.2969,151
29.3340,176
29.3712,196
29.4083,182
29.4455,173
29.4826,174
29.5198,159
29.5569,179
29.5941,149
29.6312,168
29.6684,159
29.7055,168
29.7427,161
29.7799,160
29.8170,156
29.8542,157
29.8913,149
29.9285,159
29.9656,163
30.0028,157
30.0399,168
30.0771,150
30.1142,155
30.1514,175
30.1885,154
30.2257,176
30.2628,176
30.3000,162
30.3371,203
30.3743,316
30.4114,268
30.4486,253
30.4857,244
30.5229,181
30.5600,190
30.5972,148
30.6343,146
30.6715,171
30.7086,165
30.7458,133
30.7829,150
30.8201,150
30.8572,166
30.8944,144
30.9315,143
30.9687,156
31.0058,163
31.0430,169
31.0801,143
31.1173,168
31.1544,130
31.1916,144
31.2287,145
31.2659,144
31.3030,146
31.3402,148
31.3774,138
31.4145,130
31.4517,149
31.4888,147
31.5260,138
31.5631,140
31.6003,137
31.6374,111
31.6746,143
31.7117,146
31.7489,125
31.7860,140
31.8232,128
31.8603,130
31.8975,142
31.9346,133
31.9718,144
32.0089,128
32.0461,144
32.0832,133
32.1204,157
32.1575,120
32.1947,142
32.2318,146
32.2690,130
32.3061,138
32.3433,159
32.3804,139
32.4176,149
32.4547,161
32.4919,134
32.5290,155
32.5662,156
32.6033,147
32.6405,149
32.6776,146
32.7148,161
32.7519,131
32.7891,134
32.8262,148
32.8634,119
32.9006,123
32.9377,124
32.9749,118
33.0120,135
33.0492,109
33.0863,110
33.1235,126
33.1606,119
33.1978,113
33.2349,142
33.2721,116
33.3092,103
33.3464,134
33.3835,119
33.4207,147
33.4578,108
33.4950,124
33.5321,111
33.5693,123
33.6064,127
33.6436,126
33.6807,122
33.7179,101
33.7550,116
33.7922,122
33.8293,122
33.8665,97
33.9036,116
33.9408,114
33.9779,103
34.0151,119
34.0522,135
34.0894,121
34.1265,112
34.1637,125
34.2008,125
34.2380,107
34.2751,102
34.3123,117
34.3494,113
34.3866,120
34.4238,150
34.4609,134
34.4981,113
34.5352,136
34.5724,122
34.6095,135
34.6467,116
34.6838,141
34.7210,130
34.7581,161
34.7953,153
34.8324,154
34.8696,145
34.9067,140
34.9439,113
34.9810,97
35.0182,118
35.0553,115
35.0925,98
35.1296,112
35.1668,122
35.2039,102
35.2411,108
35.2782,99
35.3154,117
35.3525,106
35.3897,105
35.4268,96
35.4640,91
35.5011,98
35.5383,105
35.5754,128
35.6126,88
35.6497,85
35.6869,108
35.7240,92
35.7612,80
35.7983,111
35.8355,105
35.8726,108
35.9098,115
35.9469,93
35.9841,105
36.0213,92
36.0584,86
36.0956,102
36.1327,90
36.1699,106
36.2070,96
36.2442,104
36.2813,105
36.3185,97
36.3556,102
36.3928,112
36.4299,122
36.4671,88
36.5042,93
36.5414,99
36.5785,111
36.6157,108
36.6528,89
36.6900,78
36.7271,83
36.7643,95
36.8014,105
36.8386,92
36.8757,88
36.9129,76
36.9500,100
36.9872,101
37.0243,100
37.0615,96
37.0986,117
37.1358,90
37.1729,103
37.2101,87
37.2472,100
37.2844,87
37.3215,105
37.3587,81
37.3958,115
37.4330,167
37.4701,124
37.5073,129
37.5445,110
37.5816,99
37.6188,90
37.6559,103
37.6931,85
37.7302,72
37.7674,96
37.8045,76
37.8417,82
37.8788,85
37.9160,86
37.9531,83
37.9903,81
38.0274,108
38.0646,92
38.1017,99
38.1389,84
38.1760,90
38.2132,96
38.2503,82
38.2875,99
38.3246,82
38.3618,97
38.3989,103
38.4361,80
38.4732,76
38.5104,97
38.5475,81
38.5847,80
38.6218,76
38.6590,92
38.6961,98
38.7333,72
38.7704,87
38.8076,92
38.8447,94
38.8819,85
38.9190,72
38.9562,96
38.9933,100
39.0305,78
39.0677,72
39.1048,81
39.1420,67
39.1791,81
39.2163,73
39.2534,87
39.2906,66
39.3277,90
39.3649,80
39.4020,87
39.4392,82
39.4763,85
39.5135,75
39.5506,76
39.5878,80
39.6249,78
39.6621,90
39.6992,71
39.7364,63
39.7735,78
39.8107,88
39.8478,99
39.8850,70
39.9221,82
39.9593,85
39.9964,78
40.0336,70
40.0707,69
40.1079,82
40.1450,68
40.1822,96
40.2193,82
40.2565,64
40.2936,80
40.3308,67
40.3679,84
40.4051,95
40.4422,80
40.4794,65
40.5165,65
40.5537,77
40.5908,73
40.6280,67
40.6652,87
40.7023,72
40.7395,87
40.7766,66
40.8138,84
40.8509,72
40.8881,61
40.9252,100
40.9624,93
40.9995,93
41.0367,81
41.0738,93
41.1110,78
41.1481,77
41.1853,79
41.2224,81
41.2596,55
41.2967,79
41.3339,66
41.3710,75
41.4082,95
41.4453,79
41.4825,80
41.5196,98
41.5568,79
41.5939,69
41.6311,68
41.6682,83
41.7054,70
41.7425,78
41.7797,85
41.8168,70
41.8540,73
41.8911,78
41.9283,69
41.9654,86
42.0026,63
42.0397,73
42.0769,73
42.1140,89
42.1512,73
42.1884,83
42.2255,80
42.2627,66
42.2998,54
42.3370,80
42.3741,72
42.4113,63
42.4484,83
42.4856,78
42.5227,96
42.5599,86
42.5970,97
42.6342,71
42.6713,78
42.7085,77
42.7456,62
42.7828,82
42.8199,77
42.8571,73
42.8942,82
42.9314,62
42.9685,83
43.0057,81
43.0428,92
43.0800,74
43.1171,76
43.1543,76
43.1914,86
43.2286,72
43.2657,72
43.3029,99
43.3400,91
43.3772,93
43.4143,88
43.4515,81
43.4886,103
43.5258,112
43.5629,94
43.6001,115
43.6372,97
43.6744,68
43.7116,76
43.7487,89
43.7859,77
43.8230,78
43.8602,88
43.8973,82
43.9345,71
43.9716,73
44.0088,74
44.0459,66
44.0831,72
44.1202,80
44.1574,77
44.1945,76
44.2317,64
44.2688,75
44.3060,84
44.3431,93
44.3803,67
44.4174,79
44.4546,78
44.4917,81
44.5289,67
44.5660,78
44.6032,70
44.6403,97
44.6775,77
44.7146,81
44.7518,71
44.7889,80
44.8261,55
44.8632,67
44.9004,68
44.9375,70
44.9747,66
45.0118,54
45.0490,58
45.0861,62
45.1233,68
45.1604,74
45.1976,77
45.2347,56
45.2719,75
45.3091,78
45.3462,73
45.3834,74
45.4205,70
45.4577,65
45.4948,73
45.5320,62
45.5691,57
45.6063,64
45.6434,64
45.6806,80
45.7177,74
45.7549,59
45.7920,80
45.8292,60
45.8663,75
45.9035,81
45.9406,69
45.9778,75
46.0149,58
46.0521,63
46.0892,56
46.1264,78
46.1635,62
46.2007,73
46.2378,76
46.2750,70
46.3121,57
46.3493,72
46.3864,60
46.4236,77
46.4607,76
46.4979,58
46.5350,72
46.5722,85
46.6093,70
46.6465,56
46.6836,53
46.7208,83
46.7579,65
46.7951,66
46.8323,55
46.8694,68
46.9066,62
46.9437,72
46.9809,68
47.0180,60
47.0552,65
47.0923,61
47.1295,62
47.1666,60
47.2038,80
47.2409,65
47.2781,62
47.3152,70
47.3524,63
47.3895,76
47.4267,68
47.4638,71
47.5010,57
47.5381,59
47.5753,59
47.6124,53
47.6496,60
47.6867,68
47.7239,75
47.7610,64
47.7982,62
47.8353,50
47.8725,72
47.9096,71
47.9468,67
47.9839,80
48.0211,61
48.0582,67
48.0954,58
48.1325,73
48.1697,56
48.2068,73
48.2440,75
48.2811,65
48.3183,55
48.3555,75
48.3926,83
48.4298,79
48.4669,66
48.5041,65
48.5412,61
48.5784,58
48.6155,66
48.6527,65
48.6898,57
48.7270,59
48.7641,65
48.8013,61
48.8384,88
48.8756,58
48.9127,88
48.9499,133
48.9870,101
49.0242,77
49.0613,74
49.0985,101
49.1356,68
49.1728,59
49.2099,64
49.2471,60
49.2842,73
49.3214,74
49.3585,58
49.3957,57
49.4328,63
49.4700,63
49.5071,57
49.5443,58
49.5814,62
49.6186,53
49.6557,62
49.6929,79
49.7300,64
49.7672,64
49.8043,73
49.8415,58
49.8786,66
49.9158,58
49.9530,67
49.9901,73
50.0273,66
50.0644,73
50.1016,52
50.1387,74
50.1759,69
50.2130,76
50.2502,58
50.2873,64
50.3245,66
50.3616,66
50.3988,71
50.4359,55
50.4731,52
50.5102,58
50.5474,52
50.5845,53
50.6217,65
50.6588,46
50.6960,66
50.7331,59
50.7703,61
50.8074,57
50.8446,66
50.8817,56
50.9189,55
50.9560,50
50.9932,70
51.0303,45
51.0675,47
51.1046,56
51.1418,54
51.1789,79
51.2161,51
51.2532,60
51.2904,60
51.3275,76
51.3647,66
51.4018,74
51.4390,65
51.4762,54
51.5133,63
51.5505,80
51.5876,62
51.6248,66
51.6619,54
51.6991,64
51.7362,63
51.7734,64
51.8105,76
51.8477,71
51.8848,86
51.9220,59
51.9591,73
51.9963,64
52.0334,66
52.0706,70
52.1077,63
52.1449,61
52.1820,71
52.2192,57
52.2563,59
52.2935,62
52.3306,69
52.3678,57
52.4049,57
52.4421,62
52.4792,65
52.5164,71
52.5535,68
52.5907,55
52.6278,53
52.6650,72
52.7021,59
52.7393,55
52.7764,72
52.8136,53
52.8507,69
52.8879,59
52.9250,62
52.9622,56
52.9994,60
53.0365,71
53.0737,80
53.1108,57
53.1480,70
53.1851,64
53.2223,63
53.2594,69
53.2966,50
53.3337,59
53.3709,72
53.4080,48
53.4452,69
53.4823,71
53.5195,47
53.5566,60
53.5938,55
53.6309,64
53.6681,67
53.7052,59
53.7424,82
53.7795,78
53.8167,62
53.8538,51
53.8910,63
53.9281,81
53.9653,85
54.0024,79
54.0396,62
54.0767,68
54.1139,69
54.1510,57
54.1882,70
54.2253,74
54.2625,65
54.2996,49
54.3368,59
54.3739,62
54.4111,62
54.4482,44
54.4854,55
54.5225,49
54.5597,63
54.5969,63
54.6340,58
54.6712,58
54.7083,44
54.7455,47
54.7826,70
54.8198,66
54.8569,59
54.8941,62
54.9312,65
54.9684,50
55.0055,61
55.0427,53
55.0798,66
55.1170,54
55.1541,49
55.1913,54
55.2284,63
55.2656,55
55.3027,66
55.3399,70
55.3770,50
55.4142,52
55.4513,64
55.4885,58
55.5256,60
55.5628,64
55.5999,63
55.6371,55
55.6742,51
55.7114,63
55.7485,51
55.7857,65
55.8228,54
55.8600,52
55.8971,63
55.9343,57
55.9714,58
56.0086,55
56.0457,57
56.0829,57
56.1201,61
56.1572,63
56.1944,64
56.2315,64
56.2687,58
56.3058,69
56.3430,67
56.3801,70
56.4173,53
56.4544,56
56.4916,46
56.5287,50
56.5659,66
56.6030,63
56.6402,52
56.6773,61
56.7145,62
56.7516,46
56.7888,68
56.8259,56
56.8631,58
56.9002,43
56.9374,65
56.9745,59
57.0117,60
57.0488,64
57.0860,49
57.1231,59
57.1603,56
57.1974,46
57.2346,55
57.2717,69
57.3089,56
57.3460,50
57.3832,48
57.4203,48
57.4575,60
57.4946,58
57.5318,64
57.5689,64
57.6061,53
57.6433,60
57.6804,56
57.7176,55
57.7547,50
57.7919,51
57.8290,62
57.8662,63
57.9033,66
57.9405,63
57.9776,56
58.0148,58
58.0519,60
58.0891,57
58.1262,53
58.1634,46
58.2005,48
58.2377,66
58.2748,51
58.3120,44
58.3491,55
58.3863,62
58.4234,64
58.4606,59
58.4977,49
58.5349,50
58.5720,51
58.6092,49
58.6463,49
58.6835,71
58.7206,67
58.7578,55
58.7949,52
58.8321,61
58.8692,57
58.9064,46
58.9435,65
58.9807,50
59.0178,69
59.0550,52
59.0921,46
59.1293,56
59.1664,54
59.2036,77
59.2408,53
59.2779,62
59.3151,53
59.3522,57
59.3894,40
59.4265,71
59.4637,54
59.5008,61
59.5380,47
59.5751,61
59.6123,60
59.6494,60
59.6866,47
59.7237,57
59.7609,64
59.7980,57
59.8352,45
59.8723,64
59.9095,69
59.9466,51
59.9838,56
60.0024,57