File: notebooks/data/xrd_data/ML_20220718_5_SJD_4_LaB6-2min.csv
;,2THETA,
5.0000,135
5.0372,123
5.0743,145
5.1115,131
5.1486,145
5.1858,120
5.2229,125
5.2601,108
5.2972,137
5.3344,114
5.3715,99
5.4087,115
5.4458,108
5.4830,113
5.5201,99
5.5573,114
5.5944,95
5.6316,116
5.6687,131
5.7059,100
5.7430,96
5.7802,111
5.8173,97
5.8545,109
5.8916,98
5.9288,111
5.9659,100
6.0031,99
6.0402,109
6.0774,101
6.1145,84
6.1517,87
6.1888,103
6.2260,90
6.2631,81
6.3003,108
6.3374,86
6.3746,77
6.4117,87
6.4489,90
6.4860,87
6.5232,83
6.5604,87
6.5975,79
6.6347,67
6.6718,87
6.7090,81
6.7461,88
6.7833,83
6.8204,82
6.8576,86
6.8947,101
6.9319,93
6.9690,82
7.0062,91
7.0433,77
7.0805,79
7.1176,69
7.1548,92
7.1919,102
7.2291,65
7.2662,90
7.3034,90
7.3405,79
7.3777,100
7.4148,91
7.4520,78
7.4891,75
7.5263,90
7.5634,86
7.6006,63
7.6377,96
7.6749,84
7.7120,70
7.7492,79
7.7863,79
7.8235,93
7.8606,113
7.8978,91
7.9349,85
7.9721,88
8.0092,77
8.0464,77
8.0835,75
8.1207,90
8.1579,98
8.1950,100
8.2322,93
8.2693,95
8.3065,101
8.3436,97
8.3808,99
8.4179,82
8.4551,91
8.4922,102
8.5294,95
8.5665,84
8.6037,93
8.6408,98
8.6780,101
8.7151,99
8.7523,97
8.7894,103
8.8266,91
8.8637,106
8.9009,88
8.9380,112
8.9752,114
9.0123,94
9.0495,120
9.0866,112
9.1238,105
9.1609,107
9.1981,118
9.2352,101
9.2724,119
9.3095,109
9.3467,111
9.3838,118
9.4210,91
9.4581,125
9.4953,96
9.5324,105
9.5696,106
9.6067,117
9.6439,109
9.6811,118
9.7182,97
9.7554,104
9.7925,120
9.8297,123
9.8668,118
9.9040,115
9.9411,107
9.9783,156
10.0154,119
10.0526,117
10.0897,118
10.1269,124
10.1640,107
10.2012,108
10.2383,129
10.2755,106
10.3126,108
10.3498,123
10.3869,126
10.4241,129
10.4612,114
10.4984,114
10.5355,112
10.5727,131
10.6098,125
10.6470,124
10.6841,96
10.7213,118
10.7584,103
10.7956,112
10.8327,117
10.8699,111
10.9070,120
10.9442,129
10.9813,104
11.0185,111
11.0556,97
11.0928,115
11.1299,117
11.1671,121
11.2043,109
11.2414,122
11.2786,102
11.3157,118
11.3529,110
11.3900,111
11.4272,112
11.4643,105
11.5015,116
11.5386,124
11.5758,118
11.6129,99
11.6501,113
11.6872,110
11.7244,110
11.7615,113
11.7987,100
11.8358,120
11.8730,110
11.9101,118
11.9473,122
11.9844,129
12.0216,120
12.0587,120
12.0959,102
12.1330,116
12.1702,115
12.2073,112
12.2445,132
12.2816,105
12.3188,95
12.3559,115
12.3931,100
12.4302,123
12.4674,123
12.5045,108
12.5417,120
12.5788,97
12.6160,100
12.6531,104
12.6903,115
12.7274,106
12.7646,106
12.8018,98
12.8389,109
12.8761,107
12.9132,99
12.9504,104
12.9875,87
13.0247,105
13.0618,100
13.0990,96
13.1361,104
13.1733,113
13.2104,105
13.2476,102
13.2847,95
13.3219,97
13.3590,100
13.3962,89
13.4333,94
13.4705,98
13.5076,82
13.5448,97
13.5819,88
13.6191,85
13.6562,94
13.6934,97
13.7305,99
13.7677,94
13.8048,107
13.8420,105
13.8791,76
13.9163,91
13.9534,103
13.9906,87
14.0277,89
14.0649,93
14.1020,90
14.1392,99
14.1763,97
14.2135,82
14.2506,83
14.2878,102
14.3250,94
14.3621,85
14.3993,81
14.4364,89
14.4736,85
14.5107,87
14.5479,72
14.5850,72
14.6222,85
14.6593,77
14.6965,100
14.7336,77
14.7708,106
14.8079,96
14.8451,89
14.8822,78
14.9194,83
14.9565,70
14.9937,97
15.0308,76
15.0680,78
15.1051,81
15.1423,71
15.1794,91
15.2166,95
15.2537,88
15.2909,86
15.3280,72
15.3652,70
15.4023,85
15.4395,84
15.4766,68
15.5138,91
15.5509,87
15.5881,70
15.6252,77
15.6624,86
15.6995,74
15.7367,83
15.7738,76
15.8110,89
15.8482,95
15.8853,85
15.9225,77
15.9596,89
15.9968,85
16.0339,77
16.0711,63
16.1082,67
16.1454,77
16.1825,67
16.2197,85
16.2568,84
16.2940,75
16.3311,89
16.3683,78
16.4054,76
16.4426,85
16.4797,92
16.5169,77
16.5540,84
16.5912,63
16.6283,96
16.6655,79
16.7026,78
16.7398,85
16.7769,72
16.8141,73
16.8512,88
16.8884,71
16.9255,82
16.9627,86
16.9998,75
17.0370,79
17.0741,90
17.1113,76
17.1484,94
17.1856,80
17.2227,77
17.2599,96
17.2970,77
17.3342,89
17.3713,83
17.4085,90
17.4457,69
17.4828,69
17.5200,72
17.5571,80
17.5943,93
17.6314,82
17.6686,78
17.7057,73
17.7429,78
17.7800,81
17.8172,66
17.8543,91
17.8915,74
17.9286,72
17.9658,102
18.0029,79
18.0401,60
18.0772,88
18.1144,89
18.1515,82
18.1887,84
18.2258,71
18.2630,72
18.3001,72
18.3373,82
18.3744,83
18.4116,84
18.4487,79
18.4859,78
18.5230,97
18.5602,96
18.5973,86
18.6345,67
18.6716,78
18.7088,80
18.7459,84
18.7831,89
18.8202,82
18.8574,89
18.8945,73
18.9317,83
18.9689,68
19.0060,89
19.0432,85
19.0803,76
19.1175,83
19.1546,83
19.1918,86
19.2289,70
19.2661,101
19.3032,82
19.3404,91
19.3775,96
19.4147,91
19.4518,73
19.4890,79
19.5261,77
19.5633,91
19.6004,77
19.6376,84
19.6747,94
19.7119,73
19.7490,97
19.7862,96
19.8233,81
19.8605,101
19.8976,79
19.9348,104
19.9719,79
20.0091,91
20.0462,79
20.0834,103
20.1205,100
20.1577,93
20.1948,92
20.2320,82
20.2691,99
20.3063,78
20.3434,99
20.3806,83
20.4177,84
20.4549,103
20.4921,88
20.5292,93
20.5664,79
20.6035,91
20.6407,102
20.6778,92
20.7150,84
20.7521,93
20.7893,79
20.8264,94
20.8636,91
20.9007,111
20.9379,101
20.9750,81
21.0122,100
21.0493,105
21.0865,85
21.1236,107
21.1608,127
21.1979,114
21.2351,139
21.2722,151
21.3094,184
21.3465,243
21.3837,196
21.4208,187
21.4580,110
21.4951,100
21.5323,92
21.5694,94
21.6066,85
21.6437,108
21.6809,128
21.7180,96
21.7552,87
21.7923,89
21.8295,108
21.8666,84
21.9038,85
21.9409,85
21.9781,88
22.0152,94
22.0524,114
22.0896,113
22.1267,95
22.1639,86
22.2010,93
22.2382,98
22.2753,89
22.3125,108
22.3496,88
22.3868,109
22.4239,104
22.4611,95
22.4982,105
22.5354,97
22.5725,111
22.6097,90
22.6468,112
22.6840,79
22.7211,100
22.7583,87
22.7954,84
22.8326,95
22.8697,89
22.9069,97
22.9440,86
22.9812,109
23.0183,99
23.0555,87
23.0926,100
23.1298,118
23.1669,91
23.2041,105
23.2412,114
23.2784,123
23.3155,102
23.3527,100
23.3898,111
23.4270,98
23.4641,103
23.5013,99
23.5384,108
23.5756,95
23.6128,107
23.6499,100
23.6871,87
23.7242,98
23.7614,109
23.7985,101
23.8357,81
23.8728,98
23.9100,95
23.9471,97
23.9843,83
24.0214,106
24.0586,115
24.0957,99
24.1329,102
24.1700,93
24.2072,104
24.2443,119
24.2815,116
24.3186,112
24.3558,111
24.3929,87
24.4301,97
24.4672,78
24.5044,108
24.5415,92
24.5787,87
24.6158,94
24.6530,99
24.6901,75
24.7273,97
24.7644,97
24.8016,106
24.8387,118
24.8759,111
24.9130,87
24.9502,113
24.9873,100
25.0245,90
25.0616,103
25.0988,100
25.1360,109
25.1731,82
25.2103,84
25.2474,99
25.2846,103
25.3217,102
25.3589,106
25.3960,105
25.4332,99
25.4703,90
25.5075,102
25.5446,87
25.5818,104
25.6189,100
25.6561,95
25.6932,92
25.7304,90
25.7675,92
25.8047,84
25.8418,84
25.8790,85
25.9161,81
25.9533,99
25.9904,107
26.0276,107
26.0647,102
26.1019,103
26.1390,90
26.1762,97
26.2133,95
26.2505,70
26.2876,101
26.3248,77
26.3619,89
26.3991,77
26.4362,89
26.4734,85
26.5105,83
26.5477,103
26.5848,86
26.6220,96
26.6591,95
26.6963,96
26.7335,79
26.7706,87
26.8078,90
26.8449,102
26.8821,98
26.9192,87
26.9564,89
26.9935,109
27.0307,81
27.0678,73
27.1050,100
27.1421,102
27.1793,116
27.2164,141
27.2536,104
27.2907,115
27.3279,98
27.3650,93
27.4022,113
27.4393,91
27.4765,87
27.5136,92
27.5508,92
27.5879,93
27.6251,95
27.6622,85
27.6994,87
27.7365,88
27.7737,83
27.8108,72
27.8480,77
27.8851,78
27.9223,93
27.9594,89
27.9966,69
28.0337,92
28.0709,111
28.1080,87
28.1452,92
28.1823,75
28.2195,91
28.2567,92
28.2938,90
28.3310,81
28.3681,80
28.4053,70
28.4424,100
28.4796,88
28.5167,78
28.5539,86
28.5910,91
28.6282,76
28.6653,94
28.7025,82
28.7396,99
28.7768,64
28.8139,79
28.8511,77
28.8882,78
28.9254,91
28.9625,92
28.9997,79
29.0368,81
29.0740,90
29.1111,71
29.1483,95
29.1854,77
29.2226,77
29.2597,69
29.2969,82
29.3340,90
29.3712,84
29.4083,67
29.4455,109
29.4826,68
29.5198,84
29.5569,77
29.5941,74
29.6312,77
29.6684,96
29.7055,74
29.7427,85
29.7799,57
29.8170,71
29.8542,73
29.8913,73
29.9285,86
29.9656,65
30.0028,79
30.0399,74
30.0771,79
30.1142,80
30.1514,64
30.1885,81
30.2257,80
30.2628,84
30.3000,69
30.3371,106
30.3743,168
30.4114,148
30.4486,136
30.4857,104
30.5229,86
30.5600,83
30.5972,80
30.6343,79
30.6715,86
30.7086,74
30.7458,64
30.7829,73
30.8201,72
30.8572,73
30.8944,88
30.9315,63
30.9687,61
31.0058,79
31.0430,77
31.0801,56
31.1173,71
31.1544,60
31.1916,86
31.2287,73
31.2659,51
31.3030,56
31.3402,60
31.3774,68
31.4145,61
31.4517,53
31.4888,77
31.5260,61
31.5631,74
31.6003,81
31.6374,64
31.6746,72
31.7117,77
31.7489,74
31.7860,74
31.8232,64
31.8603,69
31.8975,58
31.9346,60
31.9718,63
32.0089,72
32.0461,58
32.0832,69
32.1204,66
32.1575,91
32.1947,52
32.2318,59
32.2690,58
32.3061,55
32.3433,68
32.3804,63
32.4176,83
32.4547,68
32.4919,66
32.5290,64
32.5662,76
32.6033,59
32.6405,48
32.6776,61
32.7148,76
32.7519,78
32.7891,76
32.8262,47
32.8634,63
32.9006,60
32.9377,52
32.9749,58
33.0120,55
33.0492,61
33.0863,69
33.1235,58
33.1606,68
33.1978,57
33.2349,53
33.2721,49
33.3092,48
33.3464,55
33.3835,59
33.4207,67
33.4578,64
33.4950,59
33.5321,58
33.5693,70
33.6064,45
33.6436,59
33.6807,62
33.7179,49
33.7550,51
33.7922,50
33.8293,50
33.8665,64
33.9036,65
33.9408,62
33.9779,70
34.0151,56
34.0522,49
34.0894,59
34.1265,55
34.1637,52
34.2008,64
34.2380,60
34.2751,67
34.3123,64
34.3494,60
34.3866,73
34.4238,59
34.4609,44
34.4981,71
34.5352,47
34.5724,52
34.6095,73
34.6467,63
34.6838,58
34.7210,76
34.7581,83
34.7953,64
34.8324,75
34.8696,81
34.9067,47
34.9439,54
34.9810,47
35.0182,51
35.0553,47
35.0925,65
35.1296,54
35.1668,57
35.2039,60
35.2411,45
35.2782,45
35.3154,44
35.3525,51
35.3897,68
35.4268,46
35.4640,44
35.5011,63
35.5383,41
35.5754,42
35.6126,42
35.6497,50
35.6869,50
35.7240,61
35.7612,50
35.7983,47
35.8355,42
35.8726,41
35.9098,57
35.9469,43
35.9841,34
36.0213,54
36.0584,50
36.0956,42
36.1327,44
36.1699,58
36.2070,59
36.2442,51
36.2813,36
36.3185,44
36.3556,41
36.3928,45
36.4299,53
36.4671,45
36.5042,45
36.5414,47
36.5785,52
36.6157,47
36.6528,40
36.6900,34
36.7271,39
36.7643,66
36.8014,44
36.8386,38
36.8757,49
36.9129,37
36.9500,49
36.9872,45
37.0243,50
37.0615,36
37.0986,45
37.1358,50
37.1729,48
37.2101,32
37.2472,50
37.2844,47
37.3215,41
37.3587,47
37.3958,51
37.4330,75
37.4701,60
37.5073,46
37.5445,60
37.5816,43
37.6188,41
37.6559,42
37.6931,36
37.7302,40
37.7674,44
37.8045,41
37.8417,44
37.8788,36
37.9160,43
37.9531,51
37.9903,38
38.0274,44
38.0646,40
38.1017,63
38.1389,45
38.1760,45
38.2132,38
38.2503,36
38.2875,40
38.3246,39
38.3618,38
38.3989,52
38.4361,45
38.4732,41
38.5104,51
38.5475,44
38.5847,44
38.6218,33
38.6590,50
38.6961,28
38.7333,49
38.7704,46
38.8076,45
38.8447,59
38.8819,37
38.9190,37
38.9562,41
38.9933,51
39.0305,43
39.0677,45
39.1048,41
39.1420,45
39.1791,39
39.2163,35
39.2534,33
39.2906,31
39.3277,33
39.3649,37
39.4020,40
39.4392,33
39.4763,45
39.5135,40
39.5506,38
39.5878,42
39.6249,40
39.6621,39
39.6992,35
39.7364,36
39.7735,48
39.8107,45
39.8478,39
39.8850,35
39.9221,30
39.9593,37
39.9964,50
40.0336,46
40.0707,48
40.1079,54
40.1450,44
40.1822,53
40.2193,38
40.2565,31
40.2936,29
40.3308,31
40.3679,36
40.4051,38
40.4422,35
40.4794,28
40.5165,39
40.5537,42
40.5908,37
40.6280,41
40.6652,43
40.7023,38
40.7395,33
40.7766,29
40.8138,48
40.8509,43
40.8881,32
40.9252,47
40.9624,42
40.9995,40
41.0367,43
41.0738,44
41.1110,54
41.1481,43
41.1853,36
41.2224,33
41.2596,37
41.2967,44
41.3339,45
41.3710,51
41.4082,45
41.4453,38
41.4825,41
41.5196,34
41.5568,29
41.5939,38
41.6311,35
41.6682,33
41.7054,29
41.7425,34
41.7797,38
41.8168,34
41.8540,38
41.8911,35
41.9283,38
41.9654,39
42.0026,27
42.0397,38
42.0769,35
42.1140,38
42.1512,37
42.1884,38
42.2255,35
42.2627,33
42.2998,48
42.3370,45
42.3741,40
42.4113,45
42.4484,24
42.4856,29
42.5227,40
42.5599,38
42.5970,38
42.6342,34
42.6713,38
42.7085,36
42.7456,39
42.7828,30
42.8199,34
42.8571,35
42.8942,38
42.9314,47
42.9685,44
43.0057,48
43.0428,30
43.0800,44
43.1171,36
43.1543,33
43.1914,51
43.2286,53
43.2657,42
43.3029,41
43.3400,53
43.3772,42
43.4143,47
43.4515,44
43.4886,73
43.5258,61
43.5629,38
43.6001,57
43.6372,50
43.6744,35
43.7116,42
43.7487,38
43.7859,49
43.8230,28
43.8602,40
43.8973,34
43.9345,42
43.9716,39
44.0088,32
44.0459,39
44.0831,28
44.1202,30
44.1574,30
44.1945,47
44.2317,28
44.2688,27
44.3060,42
44.3431,42
44.3803,37
44.4174,34
44.4546,46
44.4917,40
44.5289,43
44.5660,55
44.6032,37
44.6403,44
44.6775,42
44.7146,37
44.7518,34
44.7889,28
44.8261,34
44.8632,31
44.9004,29
44.9375,41
44.9747,34
45.0118,39
45.0490,37
45.0861,41
45.1233,47
45.1604,32
45.1976,29
45.2347,39
45.2719,35
45.3091,32
45.3462,32
45.3834,34
45.4205,29
45.4577,46
45.4948,40
45.5320,27
45.5691,33
45.6063,42
45.6434,34
45.6806,37
45.7177,31
45.7549,38
45.7920,33
45.8292,34
45.8663,27
45.9035,28
45.9406,39
45.9778,33
46.0149,29
46.0521,32
46.0892,31
46.1264,33
46.1635,28
46.2007,33
46.2378,32
46.2750,45
46.3121,30
46.3493,26
46.3864,38
46.4236,25
46.4607,39
46.4979,33
46.5350,21
46.5722,29
46.6093,38
46.6465,37
46.6836,30
46.7208,44
46.7579,29
46.7951,24
46.8323,29
46.8694,36
46.9066,34
46.9437,32
46.9809,21
47.0180,21
47.0552,28
47.0923,36
47.1295,40
47.1666,31
47.2038,38
47.2409,41
47.2781,42
47.3152,50
47.3524,31
47.3895,32
47.4267,32
47.4638,29
47.5010,37
47.5381,39
47.5753,32
47.6124,36
47.6496,30
47.6867,36
47.7239,33
47.7610,27
47.7982,37
47.8353,31
47.8725,32
47.9096,29
47.9468,38
47.9839,35
48.0211,16
48.0582,35
48.0954,28
48.1325,40
48.1697,24
48.2068,31
48.2440,27
48.2811,22
48.3183,28
48.3555,28
48.3926,37
48.4298,33
48.4669,26
48.5041,43
48.5412,21
48.5784,38
48.6155,27
48.6527,33
48.6898,37
48.7270,42
48.7641,32
48.8013,36
48.8384,39
48.8756,45
48.9127,39
48.9499,42
48.9870,51
49.0242,43
49.0613,39
49.0985,42
49.1356,29
49.1728,25
49.2099,40
49.2471,35
49.2842,31
49.3214,39
49.3585,32
49.3957,37
49.4328,35
49.4700,27
49.5071,28
49.5443,29
49.5814,25
49.6186,26
49.6557,35
49.6929,34
49.7300,33
49.7672,28
49.8043,28
49.8415,20
49.8786,43
49.9158,25
49.9530,27
49.9901,28
50.0273,32
50.0644,32
50.1016,36
50.1387,30
50.1759,24
50.2130,29
50.2502,27
50.2873,32
50.3245,25
50.3616,36
50.3988,25
50.4359,31
50.4731,39
50.5102,30
50.5474,38
50.5845,36
50.6217,36
50.6588,23
50.6960,26
50.7331,30
50.7703,37
50.8074,32
50.8446,32
50.8817,31
50.9189,32
50.9560,30
50.9932,28
51.0303,36
51.0675,28
51.1046,22
51.1418,30
51.1789,26
51.2161,23
51.2532,30
51.2904,36
51.3275,25
51.3647,32
51.4018,33
51.4390,28
51.4762,27
51.5133,30
51.5505,34
51.5876,20
51.6248,34
51.6619,34
51.6991,26
51.7362,23
51.7734,33
51.8105,25
51.8477,30
51.8848,22
51.9220,32
51.9591,37
51.9963,36
52.0334,30
52.0706,31
52.1077,30
52.1449,31
52.1820,28
52.2192,24
52.2563,31
52.2935,26
52.3306,30
52.3678,29
52.4049,24
52.4421,27
52.4792,25
52.5164,28
52.5535,28
52.5907,27
52.6278,34
52.6650,28
52.7021,26
52.7393,32
52.7764,25
52.8136,29
52.8507,30
52.8879,35
52.9250,29
52.9622,25
52.9994,35
53.0365,30
53.0737,29
53.1108,39
53.1480,32
53.1851,44
53.2223,35
53.2594,33
53.2966,29
53.3337,25
53.3709,30
53.4080,32
53.4452,35
53.4823,28
53.5195,30
53.5566,25
53.5938,34
53.6309,23
53.6681,30
53.7052,30
53.7424,28
53.7795,26
53.8167,26
53.8538,31
53.8910,22
53.9281,28
53.9653,39
54.0024,48
54.0396,25
54.0767,31
54.1139,40
54.1510,48
54.1882,36
54.2253,26
54.2625,24
54.2996,39
54.3368,38
54.3739,26
54.4111,31
54.4482,32
54.4854,30
54.5225,37
54.5597,32
54.5969,29
54.6340,24
54.6712,26
54.7083,33
54.7455,34
54.7826,22
54.8198,33
54.8569,24
54.8941,19
54.9312,25
54.9684,35
55.0055,22
55.0427,30
55.0798,35
55.1170,33
55.1541,27
55.1913,26
55.2284,26
55.2656,20
55.3027,27
55.3399,24
55.3770,27
55.4142,32
55.4513,23
55.4885,26
55.5256,31
55.5628,20
55.5999,26
55.6371,16
55.6742,24
55.7114,22
55.7485,28
55.7857,31
55.8228,28
55.8600,22
55.8971,30
55.9343,17
55.9714,27
56.0086,40
56.0457,33
56.0829,30
56.1201,25
56.1572,35
56.1944,22
56.2315,38
56.2687,25
56.3058,34
56.3430,30
56.3801,34
56.4173,28
56.4544,29
56.4916,28
56.5287,30
56.5659,25
56.6030,23
56.6402,35
56.6773,23
56.7145,24
56.7516,31
56.7888,23
56.8259,16
56.8631,30
56.9002,29
56.9374,28
56.9745,36
57.0117,29
57.0488,27
57.0860,16
57.1231,34
57.1603,15
57.1974,16
57.2346,28
57.2717,26
57.3089,23
57.3460,21
57.3832,22
57.4203,33
57.4575,27
57.4946,23
57.5318,28
57.5689,27
57.6061,23
57.6433,29
57.6804,19
57.7176,30
57.7547,30
57.7919,29
57.8290,29
57.8662,23
57.9033,25
57.9405,33
57.9776,33
58.0148,23
58.0519,20
58.0891,22
58.1262,33
58.1634,19
58.2005,23
58.2377,25
58.2748,24
58.3120,30
58.3491,27
58.3863,36
58.4234,33
58.4606,37
58.4977,26
58.5349,27
58.5720,36
58.6092,28
58.6463,30
58.6835,21
58.7206,33
58.7578,22
58.7949,26
58.8321,27
58.8692,33
58.9064,21
58.9435,27
58.9807,25
59.0178,34
59.0550,24
59.0921,25
59.1293,22
59.1664,26
59.2036,26
59.2408,22
59.2779,25
59.3151,21
59.3522,27
59.3894,32
59.4265,24
59.4637,23
59.5008,25
59.5380,34
59.5751,37
59.6123,25
59.6494,29
59.6866,26
59.7237,18
59.7609,23
59.7980,27
59.8352,26
59.8723,23
59.9095,24
59.9466,25
59.9838,31
60.0024,28