File: notebooks/data/xrd_data/ML_20220718_48_SJD_4_LaB6-1min.csv
;,2THETA,
5.0000,109
5.0372,89
5.0743,95
5.1115,105
5.1486,105
5.1858,91
5.2229,91
5.2601,101
5.2972,95
5.3344,90
5.3715,74
5.4087,89
5.4458,98
5.4830,80
5.5201,77
5.5573,85
5.5944,79
5.6316,77
5.6687,82
5.7059,80
5.7430,75
5.7802,80
5.8173,63
5.8545,85
5.8916,67
5.9288,80
5.9659,67
6.0031,68
6.0402,81
6.0774,63
6.1145,67
6.1517,62
6.1888,75
6.2260,67
6.2631,67
6.3003,57
6.3374,55
6.3746,64
6.4117,64
6.4489,69
6.4860,79
6.5232,74
6.5604,68
6.5975,67
6.6347,62
6.6718,63
6.7090,39
6.7461,73
6.7833,52
6.8204,72
6.8576,70
6.8947,66
6.9319,54
6.9690,64
7.0062,43
7.0433,48
7.0805,53
7.1176,57
7.1548,53
7.1919,62
7.2291,58
7.2662,64
7.3034,58
7.3405,63
7.3777,65
7.4148,59
7.4520,51
7.4891,47
7.5263,52
7.5634,53
7.6006,56
7.6377,63
7.6749,61
7.7120,55
7.7492,71
7.7863,73
7.8235,65
7.8606,65
7.8978,85
7.9349,70
7.9721,63
8.0092,80
8.0464,57
8.0835,71
8.1207,62
8.1579,87
8.1950,85
8.2322,74
8.2693,80
8.3065,66
8.3436,70
8.3808,59
8.4179,66
8.4551,81
8.4922,64
8.5294,63
8.5665,66
8.6037,70
8.6408,75
8.6780,73
8.7151,86
8.7523,59
8.7894,77
8.8266,80
8.8637,69
8.9009,69
8.9380,86
8.9752,76
9.0123,73
9.0495,83
9.0866,79
9.1238,76
9.1609,80
9.1981,71
9.2352,79
9.2724,80
9.3095,66
9.3467,71
9.3838,78
9.4210,75
9.4581,78
9.4953,82
9.5324,89
9.5696,81
9.6067,93
9.6439,92
9.6811,97
9.7182,92
9.7554,64
9.7925,82
9.8297,88
9.8668,91
9.9040,97
9.9411,98
9.9783,83
10.0154,90
10.0526,70
10.0897,93
10.1269,73
10.1640,99
10.2012,85
10.2383,86
10.2755,88
10.3126,67
10.3498,79
10.3869,85
10.4241,83
10.4612,93
10.4984,80
10.5355,77
10.5727,89
10.6098,79
10.6470,75
10.6841,90
10.7213,104
10.7584,78
10.7956,91
10.8327,76
10.8699,94
10.9070,97
10.9442,89
10.9813,82
11.0185,99
11.0556,91
11.0928,90
11.1299,78
11.1671,81
11.2043,92
11.2414,79
11.2786,80
11.3157,90
11.3529,78
11.3900,90
11.4272,89
11.4643,95
11.5015,79
11.5386,84
11.5758,92
11.6129,85
11.6501,88
11.6872,64
11.7244,82
11.7615,98
11.7987,77
11.8358,84
11.8730,84
11.9101,83
11.9473,70
11.9844,68
12.0216,79
12.0587,91
12.0959,102
12.1330,73
12.1702,84
12.2073,63
12.2445,80
12.2816,97
12.3188,89
12.3559,72
12.3931,69
12.4302,91
12.4674,81
12.5045,86
12.5417,83
12.5788,87
12.6160,71
12.6531,72
12.6903,86
12.7274,80
12.7646,76
12.8018,64
12.8389,75
12.8761,78
12.9132,60
12.9504,82
12.9875,79
13.0247,63
13.0618,82
13.0990,68
13.1361,74
13.1733,87
13.2104,68
13.2476,73
13.2847,70
13.3219,62
13.3590,70
13.3962,73
13.4333,93
13.4705,81
13.5076,74
13.5448,81
13.5819,89
13.6191,63
13.6562,69
13.6934,69
13.7305,62
13.7677,78
13.8048,58
13.8420,88
13.8791,66
13.9163,64
13.9534,69
13.9906,57
14.0277,57
14.0649,61
14.1020,75
14.1392,72
14.1763,82
14.2135,74
14.2506,62
14.2878,54
14.3250,61
14.3621,69
14.3993,78
14.4364,48
14.4736,63
14.5107,55
14.5479,64
14.5850,70
14.6222,63
14.6593,56
14.6965,69
14.7336,56
14.7708,75
14.8079,60
14.8451,61
14.8822,54
14.9194,65
14.9565,58
14.9937,70
15.0308,51
15.0680,54
15.1051,51
15.1423,63
15.1794,63
15.2166,61
15.2537,63
15.2909,63
15.3280,75
15.3652,67
15.4023,50
15.4395,62
15.4766,58
15.5138,73
15.5509,60
15.5881,47
15.6252,76
15.6624,58
15.6995,63
15.7367,64
15.7738,50
15.8110,52
15.8482,52
15.8853,58
15.9225,66
15.9596,59
15.9968,57
16.0339,53
16.0711,54
16.1082,59
16.1454,59
16.1825,55
16.2197,51
16.2568,61
16.2940,52
16.3311,47
16.3683,62
16.4054,48
16.4426,53
16.4797,58
16.5169,61
16.5540,77
16.5912,58
16.6283,77
16.6655,53
16.7026,62
16.7398,57
16.7769,67
16.8141,46
16.8512,63
16.8884,51
16.9255,65
16.9627,48
16.9998,49
17.0370,65
17.0741,46
17.1113,53
17.1484,69
17.1856,50
17.2227,60
17.2599,49
17.2970,56
17.3342,52
17.3713,64
17.4085,43
17.4457,65
17.4828,54
17.5200,55
17.5571,60
17.5943,72
17.6314,60
17.6686,59
17.7057,57
17.7429,59
17.7800,62
17.8172,46
17.8543,55
17.8915,66
17.9286,72
17.9658,60
18.0029,51
18.0401,55
18.0772,52
18.1144,57
18.1515,47
18.1887,62
18.2258,58
18.2630,54
18.3001,64
18.3373,52
18.3744,58
18.4116,56
18.4487,58
18.4859,57
18.5230,63
18.5602,57
18.5973,59
18.6345,51
18.6716,51
18.7088,66
18.7459,63
18.7831,60
18.8202,68
18.8574,42
18.8945,72
18.9317,54
18.9689,47
19.0060,62
19.0432,67
19.0803,66
19.1175,79
19.1546,57
19.1918,68
19.2289,56
19.2661,68
19.3032,61
19.3404,51
19.3775,71
19.4147,59
19.4518,74
19.4890,69
19.5261,65
19.5633,63
19.6004,64
19.6376,54
19.6747,69
19.7119,65
19.7490,74
19.7862,56
19.8233,59
19.8605,67
19.8976,46
19.9348,59
19.9719,65
20.0091,64
20.0462,53
20.0834,60
20.1205,79
20.1577,57
20.1948,61
20.2320,62
20.2691,68
20.3063,61
20.3434,59
20.3806,67
20.4177,59
20.4549,62
20.4921,63
20.5292,67
20.5664,59
20.6035,67
20.6407,85
20.6778,67
20.7150,61
20.7521,73
20.7893,83
20.8264,68
20.8636,74
20.9007,76
20.9379,72
20.9750,70
21.0122,53
21.0493,69
21.0865,70
21.1236,100
21.1608,84
21.1979,127
21.2351,135
21.2722,127
21.3094,104
21.3465,193
21.3837,146
21.4208,129
21.4580,76
21.4951,80
21.5323,76
21.5694,75
21.6066,71
21.6437,74
21.6809,76
21.7180,96
21.7552,63
21.7923,79
21.8295,73
21.8666,84
21.9038,57
21.9409,70
21.9781,70
22.0152,63
22.0524,76
22.0896,62
22.1267,70
22.1639,63
22.2010,70
22.2382,62
22.2753,66
22.3125,84
22.3496,77
22.3868,66
22.4239,79
22.4611,74
22.4982,74
22.5354,73
22.5725,63
22.6097,66
22.6468,54
22.6840,67
22.7211,71
22.7583,66
22.7954,74
22.8326,68
22.8697,64
22.9069,81
22.9440,65
22.9812,83
23.0183,68
23.0555,76
23.0926,74
23.1298,81
23.1669,79
23.2041,74
23.2412,74
23.2784,65
23.3155,72
23.3527,82
23.3898,80
23.4270,81
23.4641,65
23.5013,74
23.5384,77
23.5756,68
23.6128,76
23.6499,82
23.6871,76
23.7242,76
23.7614,67
23.7985,70
23.8357,79
23.8728,81
23.9100,71
23.9471,77
23.9843,79
24.0214,61
24.0586,85
24.0957,77
24.1329,79
24.1700,70
24.2072,87
24.2443,63
24.2815,83
24.3186,78
24.3558,81
24.3929,72
24.4301,78
24.4672,66
24.5044,69
24.5415,72
24.5787,72
24.6158,86
24.6530,86
24.6901,65
24.7273,73
24.7644,68
24.8016,70
24.8387,80
24.8759,72
24.9130,66
24.9502,77
24.9873,75
25.0245,95
25.0616,81
25.0988,72
25.1360,63
25.1731,63
25.2103,76
25.2474,73
25.2846,76
25.3217,68
25.3589,54
25.3960,80
25.4332,77
25.4703,77
25.5075,74
25.5446,68
25.5818,70
25.6189,66
25.6561,56
25.6932,81
25.7304,60
25.7675,63
25.8047,71
25.8418,71
25.8790,75
25.9161,71
25.9533,80
25.9904,72
26.0276,65
26.0647,60
26.1019,57
26.1390,71
26.1762,63
26.2133,64
26.2505,77
26.2876,62
26.3248,49
26.3619,72
26.3991,73
26.4362,70
26.4734,74
26.5105,79
26.5477,65
26.5848,62
26.6220,72
26.6591,60
26.6963,75
26.7335,63
26.7706,70
26.8078,55
26.8449,80
26.8821,45
26.9192,80
26.9564,75
26.9935,61
27.0307,82
27.0678,64
27.1050,84
27.1421,67
27.1793,87
27.2164,91
27.2536,82
27.2907,83
27.3279,69
27.3650,72
27.4022,69
27.4393,60
27.4765,72
27.5136,72
27.5508,57
27.5879,64
27.6251,59
27.6622,69
27.6994,74
27.7365,54
27.7737,62
27.8108,52
27.8480,49
27.8851,73
27.9223,66
27.9594,51
27.9966,69
28.0337,68
28.0709,69
28.1080,64
28.1452,67
28.1823,67
28.2195,69
28.2567,67
28.2938,67
28.3310,64
28.3681,56
28.4053,71
28.4424,64
28.4796,54
28.5167,56
28.5539,70
28.5910,65
28.6282,60
28.6653,50
28.7025,62
28.7396,61
28.7768,57
28.8139,49
28.8511,47
28.8882,62
28.9254,52
28.9625,63
28.9997,53
29.0368,50
29.0740,60
29.1111,41
29.1483,73
29.1854,54
29.2226,69
29.2597,59
29.2969,58
29.3340,63
29.3712,70
29.4083,47
29.4455,61
29.4826,55
29.5198,55
29.5569,65
29.5941,58
29.6312,63
29.6684,56
29.7055,59
29.7427,63
29.7799,59
29.8170,59
29.8542,51
29.8913,53
29.9285,57
29.9656,48
30.0028,58
30.0399,51
30.0771,53
30.1142,48
30.1514,71
30.1885,63
30.2257,70
30.2628,63
30.3000,67
30.3371,75
30.3743,109
30.4114,101
30.4486,83
30.4857,89
30.5229,59
30.5600,64
30.5972,47
30.6343,62
30.6715,58
30.7086,50
30.7458,60
30.7829,48
30.8201,59
30.8572,51
30.8944,41
30.9315,46
30.9687,45
31.0058,58
31.0430,48
31.0801,54
31.1173,45
31.1544,53
31.1916,61
31.2287,54
31.2659,49
31.3030,66
31.3402,59
31.3774,52
31.4145,53
31.4517,43
31.4888,67
31.5260,60
31.5631,47
31.6003,46
31.6374,44
31.6746,56
31.7117,45
31.7489,55
31.7860,52
31.8232,44
31.8603,47
31.8975,44
31.9346,42
31.9718,48
32.0089,57
32.0461,46
32.0832,49
32.1204,39
32.1575,50
32.1947,51
32.2318,61
32.2690,67
32.3061,51
32.3433,58
32.3804,39
32.4176,51
32.4547,47
32.4919,53
32.5290,43
32.5662,61
32.6033,60
32.6405,57
32.6776,42
32.7148,45
32.7519,60
32.7891,49
32.8262,56
32.8634,52
32.9006,50
32.9377,41
32.9749,49
33.0120,41
33.0492,51
33.0863,37
33.1235,48
33.1606,38
33.1978,45
33.2349,46
33.2721,52
33.3092,43
33.3464,45
33.3835,47
33.4207,54
33.4578,44
33.4950,31
33.5321,51
33.5693,33
33.6064,51
33.6436,51
33.6807,35
33.7179,49
33.7550,48
33.7922,44
33.8293,54
33.8665,39
33.9036,48
33.9408,44
33.9779,44
34.0151,40
34.0522,41
34.0894,27
34.1265,41
34.1637,30
34.2008,54
34.2380,35
34.2751,41
34.3123,42
34.3494,50
34.3866,36
34.4238,26
34.4609,37
34.4981,45
34.5352,40
34.5724,49
34.6095,54
34.6467,43
34.6838,45
34.7210,48
34.7581,57
34.7953,59
34.8324,41
34.8696,49
34.9067,47
34.9439,44
34.9810,46
35.0182,38
35.0553,45
35.0925,38
35.1296,37
35.1668,42
35.2039,37
35.2411,32
35.2782,43
35.3154,34
35.3525,38
35.3897,26
35.4268,40
35.4640,34
35.5011,33
35.5383,31
35.5754,30
35.6126,38
35.6497,43
35.6869,45
35.7240,41
35.7612,39
35.7983,37
35.8355,36
35.8726,40
35.9098,40
35.9469,38
35.9841,34
36.0213,35
36.0584,26
36.0956,30
36.1327,34
36.1699,31
36.2070,32
36.2442,37
36.2813,35
36.3185,37
36.3556,28
36.3928,31
36.4299,38
36.4671,40
36.5042,35
36.5414,41
36.5785,42
36.6157,41
36.6528,43
36.6900,26
36.7271,39
36.7643,42
36.8014,36
36.8386,32
36.8757,24
36.9129,32
36.9500,35
36.9872,33
37.0243,31
37.0615,34
37.0986,37
37.1358,25
37.1729,47
37.2101,42
37.2472,33
37.2844,40
37.3215,37
37.3587,35
37.3958,46
37.4330,66
37.4701,45
37.5073,40
37.5445,46
37.5816,26
37.6188,35
37.6559,25
37.6931,37
37.7302,22
37.7674,37
37.8045,35
37.8417,26
37.8788,37
37.9160,30
37.9531,31
37.9903,33
38.0274,36
38.0646,31
38.1017,27
38.1389,33
38.1760,36
38.2132,21
38.2503,23
38.2875,32
38.3246,32
38.3618,36
38.3989,26
38.4361,36
38.4732,21
38.5104,32
38.5475,24
38.5847,27
38.6218,39
38.6590,31
38.6961,40
38.7333,26
38.7704,31
38.8076,27
38.8447,24
38.8819,17
38.9190,30
38.9562,27
38.9933,32
39.0305,27
39.0677,34
39.1048,34
39.1420,35
39.1791,39
39.2163,26
39.2534,17
39.2906,31
39.3277,24
39.3649,34
39.4020,24
39.4392,44
39.4763,38
39.5135,31
39.5506,25
39.5878,31
39.6249,31
39.6621,19
39.6992,30
39.7364,33
39.7735,24
39.8107,23
39.8478,27
39.8850,33
39.9221,25
39.9593,29
39.9964,23
40.0336,29
40.0707,32
40.1079,25
40.1450,33
40.1822,28
40.2193,25
40.2565,27
40.2936,34
40.3308,25
40.3679,28
40.4051,23
40.4422,23
40.4794,30
40.5165,27
40.5537,23
40.5908,35
40.6280,21
40.6652,21
40.7023,23
40.7395,34
40.7766,25
40.8138,31
40.8509,28
40.8881,32
40.9252,24
40.9624,20
40.9995,35
41.0367,37
41.0738,20
41.1110,26
41.1481,37
41.1853,30
41.2224,26
41.2596,21
41.2967,28
41.3339,34
41.3710,28
41.4082,26
41.4453,39
41.4825,32
41.5196,23
41.5568,26
41.5939,26
41.6311,27
41.6682,20
41.7054,32
41.7425,31
41.7797,40
41.8168,20
41.8540,24
41.8911,26
41.9283,34
41.9654,28
42.0026,22
42.0397,32
42.0769,28
42.1140,30
42.1512,24
42.1884,34
42.2255,23
42.2627,35
42.2998,25
42.3370,28
42.3741,26
42.4113,18
42.4484,22
42.4856,24
42.5227,27
42.5599,28
42.5970,20
42.6342,27
42.6713,33
42.7085,18
42.7456,23
42.7828,28
42.8199,33
42.8571,26
42.8942,33
42.9314,24
42.9685,26
43.0057,28
43.0428,29
43.0800,24
43.1171,20
43.1543,24
43.1914,31
43.2286,43
43.2657,28
43.3029,32
43.3400,38
43.3772,25
43.4143,32
43.4515,34
43.4886,52
43.5258,38
43.5629,24
43.6001,26
43.6372,41
43.6744,23
43.7116,24
43.7487,36
43.7859,27
43.8230,26
43.8602,23
43.8973,32
43.9345,30
43.9716,31
44.0088,28
44.0459,28
44.0831,33
44.1202,24
44.1574,37
44.1945,29
44.2317,25
44.2688,28
44.3060,23
44.3431,25
44.3803,35
44.4174,27
44.4546,30
44.4917,24
44.5289,28
44.5660,31
44.6032,25
44.6403,28
44.6775,26
44.7146,26
44.7518,32
44.7889,27
44.8261,22
44.8632,20
44.9004,22
44.9375,22
44.9747,43
45.0118,28
45.0490,26
45.0861,28
45.1233,31
45.1604,22
45.1976,20
45.2347,28
45.2719,17
45.3091,29
45.3462,34
45.3834,28
45.4205,19
45.4577,27
45.4948,24
45.5320,24
45.5691,25
45.6063,26
45.6434,27
45.6806,33
45.7177,35
45.7549,23
45.7920,25
45.8292,31
45.8663,18
45.9035,17
45.9406,27
45.9778,38
46.0149,24
46.0521,27
46.0892,29
46.1264,26
46.1635,23
46.2007,29
46.2378,30
46.2750,21
46.3121,25
46.3493,30
46.3864,31
46.4236,21
46.4607,18
46.4979,23
46.5350,13
46.5722,23
46.6093,27
46.6465,27
46.6836,28
46.7208,25
46.7579,38
46.7951,24
46.8323,22
46.8694,35
46.9066,28
46.9437,26
46.9809,25
47.0180,27
47.0552,16
47.0923,30
47.1295,19
47.1666,19
47.2038,24
47.2409,32
47.2781,27
47.3152,30
47.3524,29
47.3895,19
47.4267,33
47.4638,26
47.5010,29
47.5381,17
47.5753,27
47.6124,24
47.6496,18
47.6867,22
47.7239,18
47.7610,21
47.7982,23
47.8353,16
47.8725,19
47.9096,22
47.9468,23
47.9839,17
48.0211,24
48.0582,27
48.0954,23
48.1325,17
48.1697,12
48.2068,23
48.2440,18
48.2811,17
48.3183,26
48.3555,31
48.3926,31
48.4298,24
48.4669,30
48.5041,26
48.5412,23
48.5784,31
48.6155,20
48.6527,21
48.6898,21
48.7270,22
48.7641,28
48.8013,29
48.8384,25
48.8756,36
48.9127,35
48.9499,46
48.9870,32
49.0242,28
49.0613,26
49.0985,28
49.1356,20
49.1728,21
49.2099,28
49.2471,21
49.2842,26
49.3214,21
49.3585,24
49.3957,32
49.4328,22
49.4700,26
49.5071,15
49.5443,21
49.5814,28
49.6186,25
49.6557,22
49.6929,25
49.7300,11
49.7672,26
49.8043,20
49.8415,21
49.8786,18
49.9158,27
49.9530,24
49.9901,18
50.0273,22
50.0644,13
50.1016,15
50.1387,24
50.1759,31
50.2130,19
50.2502,26
50.2873,25
50.3245,23
50.3616,22
50.3988,21
50.4359,26
50.4731,22
50.5102,21
50.5474,23
50.5845,22
50.6217,19
50.6588,26
50.6960,22
50.7331,21
50.7703,20
50.8074,20
50.8446,29
50.8817,21
50.9189,9
50.9560,32
50.9932,23
51.0303,28
51.0675,26
51.1046,27
51.1418,27
51.1789,26
51.2161,22
51.2532,26
51.2904,20
51.3275,25
51.3647,28
51.4018,23
51.4390,17
51.4762,30
51.5133,21
51.5505,16
51.5876,18
51.6248,24
51.6619,20
51.6991,33
51.7362,21
51.7734,20
51.8105,28
51.8477,20
51.8848,23
51.9220,27
51.9591,21
51.9963,26
52.0334,27
52.0706,16
52.1077,15
52.1449,18
52.1820,19
52.2192,14
52.2563,18
52.2935,21
52.3306,18
52.3678,12
52.4049,22
52.4421,21
52.4792,18
52.5164,19
52.5535,19
52.5907,23
52.6278,22
52.6650,20
52.7021,24
52.7393,22
52.7764,22
52.8136,25
52.8507,21
52.8879,18
52.9250,25
52.9622,20
52.9994,24
53.0365,22
53.0737,24
53.1108,23
53.1480,20
53.1851,19
53.2223,19
53.2594,18
53.2966,24
53.3337,16
53.3709,25
53.4080,22
53.4452,22
53.4823,20
53.5195,19
53.5566,20
53.5938,20
53.6309,30
53.6681,17
53.7052,21
53.7424,22
53.7795,23
53.8167,15
53.8538,20
53.8910,21
53.9281,18
53.9653,30
54.0024,23
54.0396,24
54.0767,17
54.1139,15
54.1510,20
54.1882,19
54.2253,24
54.2625,24
54.2996,8
54.3368,22
54.3739,26
54.4111,28
54.4482,21
54.4854,12
54.5225,22
54.5597,26
54.5969,19
54.6340,20
54.6712,22
54.7083,24
54.7455,19
54.7826,18
54.8198,16
54.8569,19
54.8941,18
54.9312,17
54.9684,18
55.0055,31
55.0427,22
55.0798,17
55.1170,23
55.1541,22
55.1913,22
55.2284,17
55.2656,23
55.3027,17
55.3399,17
55.3770,24
55.4142,24
55.4513,14
55.4885,24
55.5256,19
55.5628,26
55.5999,27
55.6371,17
55.6742,17
55.7114,15
55.7485,24
55.7857,17
55.8228,30
55.8600,20
55.8971,20
55.9343,14
55.9714,18
56.0086,18
56.0457,16
56.0829,23
56.1201,14
56.1572,22
56.1944,19
56.2315,20
56.2687,19
56.3058,13
56.3430,23
56.3801,34
56.4173,25
56.4544,19
56.4916,21
56.5287,20
56.5659,24
56.6030,15
56.6402,19
56.6773,21
56.7145,24
56.7516,14
56.7888,20
56.8259,30
56.8631,13
56.9002,21
56.9374,19
56.9745,19
57.0117,30
57.0488,19
57.0860,17
57.1231,15
57.1603,29
57.1974,11
57.2346,25
57.2717,23
57.3089,18
57.3460,16
57.3832,11
57.4203,22
57.4575,19
57.4946,20
57.5318,28
57.5689,29
57.6061,17
57.6433,15
57.6804,17
57.7176,28
57.7547,28
57.7919,24
57.8290,26
57.8662,16
57.9033,14
57.9405,17
57.9776,25
58.0148,23
58.0519,25
58.0891,19
58.1262,22
58.1634,14
58.2005,23
58.2377,21
58.2748,18
58.3120,24
58.3491,22
58.3863,21
58.4234,21
58.4606,21
58.4977,20
58.5349,20
58.5720,21
58.6092,21
58.6463,21
58.6835,14
58.7206,13
58.7578,15
58.7949,25
58.8321,14
58.8692,23
58.9064,17
58.9435,25
58.9807,18
59.0178,30
59.0550,17
59.0921,29
59.1293,28
59.1664,17
59.2036,17
59.2408,17
59.2779,22
59.3151,22
59.3522,12
59.3894,22
59.4265,21
59.4637,22
59.5008,21
59.5380,27
59.5751,15
59.6123,14
59.6494,19
59.6866,23
59.7237,22
59.7609,25
59.7980,18
59.8352,24
59.8723,18
59.9095,22
59.9466,15
59.9838,20
60.0024,24