File: notebooks/data/xrd_data/ML_20220718_41_SJD_4_LaB6-4min.csv
;,2THETA,
5.0000,288
5.0372,261
5.0743,271
5.1115,249
5.1486,279
5.1858,260
5.2229,257
5.2601,271
5.2972,246
5.3344,242
5.3715,266
5.4087,232
5.4458,237
5.4830,228
5.5201,222
5.5573,216
5.5944,213
5.6316,211
5.6687,216
5.7059,219
5.7430,197
5.7802,217
5.8173,178
5.8545,206
5.8916,211
5.9288,197
5.9659,205
6.0031,202
6.0402,193
6.0774,208
6.1145,181
6.1517,186
6.1888,210
6.2260,172
6.2631,190
6.3003,196
6.3374,169
6.3746,187
6.4117,171
6.4489,174
6.4860,174
6.5232,179
6.5604,168
6.5975,187
6.6347,187
6.6718,192
6.7090,180
6.7461,170
6.7833,185
6.8204,175
6.8576,163
6.8947,188
6.9319,150
6.9690,173
7.0062,163
7.0433,167
7.0805,187
7.1176,159
7.1548,156
7.1919,153
7.2291,182
7.2662,177
7.3034,141
7.3405,155
7.3777,148
7.4148,197
7.4520,174
7.4891,169
7.5263,166
7.5634,158
7.6006,187
7.6377,163
7.6749,190
7.7120,193
7.7492,182
7.7863,170
7.8235,185
7.8606,183
7.8978,191
7.9349,185
7.9721,178
8.0092,170
8.0464,190
8.0835,170
8.1207,198
8.1579,204
8.1950,192
8.2322,177
8.2693,181
8.3065,192
8.3436,194
8.3808,215
8.4179,224
8.4551,186
8.4922,201
8.5294,189
8.5665,186
8.6037,189
8.6408,215
8.6780,204
8.7151,190
8.7523,205
8.7894,193
8.8266,228
8.8637,223
8.9009,206
8.9380,211
8.9752,233
9.0123,208
9.0495,226
9.0866,229
9.1238,227
9.1609,220
9.1981,222
9.2352,205
9.2724,239
9.3095,204
9.3467,192
9.3838,234
9.4210,200
9.4581,222
9.4953,238
9.5324,240
9.5696,207
9.6067,235
9.6439,240
9.6811,250
9.7182,204
9.7554,212
9.7925,215
9.8297,245
9.8668,204
9.9040,279
9.9411,245
9.9783,242
10.0154,242
10.0526,248
10.0897,252
10.1269,245
10.1640,251
10.2012,231
10.2383,240
10.2755,207
10.3126,230
10.3498,239
10.3869,246
10.4241,239
10.4612,272
10.4984,229
10.5355,238
10.5727,276
10.6098,253
10.6470,232
10.6841,229
10.7213,264
10.7584,245
10.7956,221
10.8327,225
10.8699,242
10.9070,222
10.9442,226
10.9813,226
11.0185,268
11.0556,253
11.0928,234
11.1299,232
11.1671,242
11.2043,215
11.2414,235
11.2786,244
11.3157,215
11.3529,254
11.3900,263
11.4272,237
11.4643,223
11.5015,256
11.5386,249
11.5758,238
11.6129,236
11.6501,217
11.6872,252
11.7244,239
11.7615,242
11.7987,219
11.8358,219
11.8730,231
11.9101,206
11.9473,226
11.9844,249
12.0216,234
12.0587,237
12.0959,228
12.1330,233
12.1702,224
12.2073,198
12.2445,214
12.2816,228
12.3188,223
12.3559,236
12.3931,205
12.4302,225
12.4674,224
12.5045,227
12.5417,193
12.5788,221
12.6160,229
12.6531,220
12.6903,233
12.7274,223
12.7646,218
12.8018,215
12.8389,212
12.8761,228
12.9132,218
12.9504,215
12.9875,208
13.0247,212
13.0618,229
13.0990,216
13.1361,212
13.1733,181
13.2104,204
13.2476,207
13.2847,191
13.3219,204
13.3590,178
13.3962,202
13.4333,197
13.4705,222
13.5076,204
13.5448,169
13.5819,199
13.6191,198
13.6562,207
13.6934,193
13.7305,210
13.7677,191
13.8048,189
13.8420,177
13.8791,183
13.9163,192
13.9534,191
13.9906,210
14.0277,193
14.0649,168
14.1020,167
14.1392,201
14.1763,216
14.2135,162
14.2506,175
14.2878,184
14.3250,191
14.3621,166
14.3993,184
14.4364,166
14.4736,180
14.5107,195
14.5479,176
14.5850,174
14.6222,177
14.6593,173
14.6965,161
14.7336,158
14.7708,191
14.8079,161
14.8451,185
14.8822,164
14.9194,178
14.9565,173
14.9937,170
15.0308,164
15.0680,177
15.1051,168
15.1423,162
15.1794,166
15.2166,172
15.2537,156
15.2909,187
15.3280,158
15.3652,158
15.4023,167
15.4395,167
15.4766,134
15.5138,176
15.5509,175
15.5881,168
15.6252,173
15.6624,148
15.6995,177
15.7367,127
15.7738,158
15.8110,173
15.8482,185
15.8853,167
15.9225,161
15.9596,149
15.9968,174
16.0339,155
16.0711,148
16.1082,177
16.1454,165
16.1825,170
16.2197,158
16.2568,152
16.2940,149
16.3311,170
16.3683,171
16.4054,164
16.4426,175
16.4797,178
16.5169,154
16.5540,164
16.5912,150
16.6283,163
16.6655,182
16.7026,166
16.7398,163
16.7769,163
16.8141,161
16.8512,171
16.8884,166
16.9255,167
16.9627,158
16.9998,154
17.0370,166
17.0741,152
17.1113,154
17.1484,161
17.1856,150
17.2227,141
17.2599,167
17.2970,160
17.3342,162
17.3713,158
17.4085,152
17.4457,164
17.4828,162
17.5200,163
17.5571,160
17.5943,148
17.6314,179
17.6686,179
17.7057,151
17.7429,171
17.7800,156
17.8172,147
17.8543,172
17.8915,165
17.9286,151
17.9658,201
18.0029,161
18.0401,175
18.0772,176
18.1144,180
18.1515,176
18.1887,166
18.2258,179
18.2630,176
18.3001,168
18.3373,185
18.3744,191
18.4116,177
18.4487,148
18.4859,165
18.5230,158
18.5602,191
18.5973,159
18.6345,173
18.6716,171
18.7088,161
18.7459,171
18.7831,174
18.8202,186
18.8574,166
18.8945,178
18.9317,172
18.9689,173
19.0060,151
19.0432,185
19.0803,154
19.1175,168
19.1546,162
19.1918,194
19.2289,172
19.2661,165
19.3032,178
19.3404,170
19.3775,180
19.4147,205
19.4518,178
19.4890,176
19.5261,178
19.5633,177
19.6004,182
19.6376,179
19.6747,172
19.7119,182
19.7490,168
19.7862,173
19.8233,166
19.8605,171
19.8976,170
19.9348,188
19.9719,175
20.0091,171
20.0462,175
20.0834,174
20.1205,161
20.1577,175
20.1948,176
20.2320,177
20.2691,162
20.3063,167
20.3434,197
20.3806,206
20.4177,175
20.4549,208
20.4921,195
20.5292,183
20.5664,197
20.6035,172
20.6407,189
20.6778,191
20.7150,186
20.7521,191
20.7893,186
20.8264,182
20.8636,195
20.9007,184
20.9379,188
20.9750,159
21.0122,187
21.0493,196
21.0865,217
21.1236,182
21.1608,244
21.1979,290
21.2351,284
21.2722,305
21.3094,295
21.3465,501
21.3837,468
21.4208,373
21.4580,241
21.4951,225
21.5323,224
21.5694,216
21.6066,229
21.6437,204
21.6809,198
21.7180,194
21.7552,174
21.7923,208
21.8295,173
21.8666,198
21.9038,182
21.9409,207
21.9781,175
22.0152,189
22.0524,217
22.0896,212
22.1267,197
22.1639,247
22.2010,203
22.2382,205
22.2753,209
22.3125,191
22.3496,211
22.3868,191
22.4239,192
22.4611,191
22.4982,219
22.5354,206
22.5725,202
22.6097,207
22.6468,203
22.6840,178
22.7211,190
22.7583,191
22.7954,186
22.8326,196
22.8697,201
22.9069,178
22.9440,209
22.9812,216
23.0183,203
23.0555,178
23.0926,198
23.1298,220
23.1669,221
23.2041,193
23.2412,227
23.2784,186
23.3155,225
23.3527,200
23.3898,192
23.4270,191
23.4641,193
23.5013,201
23.5384,206
23.5756,191
23.6128,199
23.6499,188
23.6871,201
23.7242,213
23.7614,197
23.7985,219
23.8357,202
23.8728,202
23.9100,205
23.9471,204
23.9843,235
24.0214,218
24.0586,198
24.0957,173
24.1329,171
24.1700,189
24.2072,189
24.2443,210
24.2815,240
24.3186,234
24.3558,209
24.3929,219
24.4301,192
24.4672,190
24.5044,204
24.5415,193
24.5787,184
24.6158,182
24.6530,186
24.6901,217
24.7273,195
24.7644,227
24.8016,194
24.8387,187
24.8759,198
24.9130,197
24.9502,199
24.9873,196
25.0245,186
25.0616,179
25.0988,194
25.1360,204
25.1731,216
25.2103,192
25.2474,187
25.2846,221
25.3217,203
25.3589,180
25.3960,194
25.4332,184
25.4703,202
25.5075,170
25.5446,202
25.5818,178
25.6189,185
25.6561,204
25.6932,194
25.7304,215
25.7675,190
25.8047,196
25.8418,191
25.8790,197
25.9161,195
25.9533,192
25.9904,210
26.0276,201
26.0647,164
26.1019,182
26.1390,217
26.1762,181
26.2133,209
26.2505,191
26.2876,204
26.3248,203
26.3619,201
26.3991,192
26.4362,181
26.4734,192
26.5105,186
26.5477,184
26.5848,204
26.6220,179
26.6591,167
26.6963,189
26.7335,201
26.7706,192
26.8078,180
26.8449,173
26.8821,182
26.9192,181
26.9564,206
26.9935,191
27.0307,172
27.0678,180
27.1050,217
27.1421,237
27.1793,247
27.2164,237
27.2536,208
27.2907,235
27.3279,194
27.3650,213
27.4022,210
27.4393,168
27.4765,202
27.5136,179
27.5508,179
27.5879,186
27.6251,172
27.6622,194
27.6994,199
27.7365,166
27.7737,167
27.8108,183
27.8480,175
27.8851,174
27.9223,200
27.9594,189
27.9966,156
28.0337,193
28.0709,174
28.1080,170
28.1452,191
28.1823,190
28.2195,165
28.2567,161
28.2938,171
28.3310,137
28.3681,177
28.4053,171
28.4424,159
28.4796,178
28.5167,153
28.5539,157
28.5910,156
28.6282,159
28.6653,145
28.7025,197
28.7396,196
28.7768,162
28.8139,173
28.8511,170
28.8882,166
28.9254,170
28.9625,148
28.9997,153
29.0368,162
29.0740,162
29.1111,168
29.1483,147
29.1854,164
29.2226,179
29.2597,164
29.2969,157
29.3340,154
29.3712,166
29.4083,186
29.4455,157
29.4826,169
29.5198,171
29.5569,165
29.5941,150
29.6312,170
29.6684,150
29.7055,143
29.7427,140
29.7799,134
29.8170,151
29.8542,157
29.8913,180
29.9285,146
29.9656,153
30.0028,143
30.0399,152
30.0771,165
30.1142,155
30.1514,160
30.1885,181
30.2257,172
30.2628,181
30.3000,182
30.3371,206
30.3743,310
30.4114,299
30.4486,238
30.4857,227
30.5229,175
30.5600,175
30.5972,152
30.6343,157
30.6715,142
30.7086,151
30.7458,149
30.7829,153
30.8201,165
30.8572,139
30.8944,159
30.9315,130
30.9687,163
31.0058,126
31.0430,144
31.0801,150
31.1173,153
31.1544,148
31.1916,150
31.2287,147
31.2659,156
31.3030,129
31.3402,124
31.3774,158
31.4145,147
31.4517,164
31.4888,152
31.5260,136
31.5631,135
31.6003,136
31.6374,136
31.6746,161
31.7117,148
31.7489,134
31.7860,153
31.8232,125
31.8603,136
31.8975,142
31.9346,146
31.9718,145
32.0089,123
32.0461,140
32.0832,136
32.1204,148
32.1575,109
32.1947,125
32.2318,123
32.2690,139
32.3061,138
32.3433,132
32.3804,126
32.4176,121
32.4547,135
32.4919,135
32.5290,129
32.5662,133
32.6033,128
32.6405,136
32.6776,123
32.7148,137
32.7519,136
32.7891,121
32.8262,119
32.8634,140
32.9006,123
32.9377,133
32.9749,111
33.0120,118
33.0492,118
33.0863,114
33.1235,104
33.1606,123
33.1978,122
33.2349,122
33.2721,119
33.3092,111
33.3464,125
33.3835,110
33.4207,136
33.4578,127
33.4950,102
33.5321,126
33.5693,114
33.6064,112
33.6436,121
33.6807,121
33.7179,115
33.7550,100
33.7922,99
33.8293,100
33.8665,119
33.9036,108
33.9408,119
33.9779,104
34.0151,106
34.0522,119
34.0894,130
34.1265,109
34.1637,107
34.2008,127
34.2380,113
34.2751,112
34.3123,124
34.3494,108
34.3866,110
34.4238,113
34.4609,99
34.4981,108
34.5352,115
34.5724,132
34.6095,129
34.6467,132
34.6838,141
34.7210,149
34.7581,141
34.7953,131
34.8324,140
34.8696,147
34.9067,126
34.9439,123
34.9810,107
35.0182,104
35.0553,120
35.0925,129
35.1296,118
35.1668,99
35.2039,105
35.2411,122
35.2782,116
35.3154,92
35.3525,113
35.3897,95
35.4268,95
35.4640,112
35.5011,101
35.5383,107
35.5754,100
35.6126,104
35.6497,81
35.6869,103
35.7240,100
35.7612,91
35.7983,101
35.8355,102
35.8726,110
35.9098,109
35.9469,106
35.9841,93
36.0213,109
36.0584,99
36.0956,90
36.1327,102
36.1699,88
36.2070,89
36.2442,85
36.2813,100
36.3185,86
36.3556,94
36.3928,90
36.4299,98
36.4671,117
36.5042,126
36.5414,102
36.5785,98
36.6157,82
36.6528,90
36.6900,91
36.7271,95
36.7643,94
36.8014,102
36.8386,88
36.8757,103
36.9129,84
36.9500,87
36.9872,94
37.0243,91
37.0615,99
37.0986,91
37.1358,110
37.1729,75
37.2101,79
37.2472,82
37.2844,91
37.3215,104
37.3587,105
37.3958,121
37.4330,148
37.4701,146
37.5073,113
37.5445,120
37.5816,113
37.6188,95
37.6559,99
37.6931,101
37.7302,83
37.7674,86
37.8045,85
37.8417,107
37.8788,62
37.9160,94
37.9531,99
37.9903,73
38.0274,95
38.0646,87
38.1017,96
38.1389,85
38.1760,89
38.2132,77
38.2503,90
38.2875,91
38.3246,84
38.3618,101
38.3989,100
38.4361,102
38.4732,77
38.5104,96
38.5475,93
38.5847,92
38.6218,80
38.6590,69
38.6961,82
38.7333,103
38.7704,72
38.8076,107
38.8447,74
38.8819,84
38.9190,88
38.9562,82
38.9933,85
39.0305,86
39.0677,78
39.1048,88
39.1420,86
39.1791,72
39.2163,75
39.2534,91
39.2906,77
39.3277,61
39.3649,80
39.4020,81
39.4392,78
39.4763,73
39.5135,78
39.5506,77
39.5878,78
39.6249,93
39.6621,78
39.6992,77
39.7364,66
39.7735,74
39.8107,90
39.8478,67
39.8850,65
39.9221,73
39.9593,92
39.9964,93
40.0336,77
40.0707,80
40.1079,75
40.1450,78
40.1822,89
40.2193,62
40.2565,78
40.2936,81
40.3308,77
40.3679,101
40.4051,72
40.4422,86
40.4794,86
40.5165,74
40.5537,86
40.5908,72
40.6280,78
40.6652,82
40.7023,78
40.7395,73
40.7766,91
40.8138,75
40.8509,75
40.8881,80
40.9252,75
40.9624,80
40.9995,81
41.0367,79
41.0738,89
41.1110,75
41.1481,75
41.1853,85
41.2224,78
41.2596,82
41.2967,69
41.3339,81
41.3710,89
41.4082,71
41.4453,78
41.4825,80
41.5196,68
41.5568,63
41.5939,88
41.6311,70
41.6682,73
41.7054,78
41.7425,79
41.7797,89
41.8168,71
41.8540,85
41.8911,70
41.9283,80
41.9654,64
42.0026,77
42.0397,77
42.0769,64
42.1140,79
42.1512,68
42.1884,79
42.2255,64
42.2627,65
42.2998,70
42.3370,89
42.3741,84
42.4113,78
42.4484,85
42.4856,68
42.5227,73
42.5599,62
42.5970,75
42.6342,95
42.6713,54
42.7085,71
42.7456,65
42.7828,69
42.8199,69
42.8571,74
42.8942,66
42.9314,81
42.9685,69
43.0057,80
43.0428,85
43.0800,81
43.1171,99
43.1543,94
43.1914,90
43.2286,71
43.2657,83
43.3029,86
43.3400,91
43.3772,82
43.4143,72
43.4515,81
43.4886,125
43.5258,116
43.5629,82
43.6001,106
43.6372,103
43.6744,84
43.7116,75
43.7487,71
43.7859,80
43.8230,69
43.8602,77
43.8973,75
43.9345,81
43.9716,72
44.0088,70
44.0459,70
44.0831,70
44.1202,73
44.1574,72
44.1945,65
44.2317,85
44.2688,74
44.3060,66
44.3431,67
44.3803,72
44.4174,65
44.4546,80
44.4917,69
44.5289,65
44.5660,67
44.6032,91
44.6403,75
44.6775,87
44.7146,81
44.7518,69
44.7889,78
44.8261,70
44.8632,65
44.9004,75
44.9375,67
44.9747,66
45.0118,65
45.0490,67
45.0861,78
45.1233,58
45.1604,70
45.1976,78
45.2347,80
45.2719,67
45.3091,64
45.3462,78
45.3834,80
45.4205,78
45.4577,54
45.4948,77
45.5320,53
45.5691,70
45.6063,82
45.6434,71
45.6806,66
45.7177,58
45.7549,58
45.7920,68
45.8292,69
45.8663,56
45.9035,71
45.9406,63
45.9778,80
46.0149,69
46.0521,73
46.0892,73
46.1264,82
46.1635,61
46.2007,74
46.2378,67
46.2750,73
46.3121,53
46.3493,72
46.3864,69
46.4236,66
46.4607,68
46.4979,71
46.5350,52
46.5722,69
46.6093,52
46.6465,53
46.6836,54
46.7208,66
46.7579,62
46.7951,70
46.8323,67
46.8694,79
46.9066,69
46.9437,68
46.9809,62
47.0180,58
47.0552,83
47.0923,59
47.1295,70
47.1666,55
47.2038,60
47.2409,70
47.2781,61
47.3152,45
47.3524,66
47.3895,69
47.4267,54
47.4638,62
47.5010,60
47.5381,62
47.5753,64
47.6124,66
47.6496,85
47.6867,65
47.7239,81
47.7610,63
47.7982,58
47.8353,42
47.8725,55
47.9096,78
47.9468,52
47.9839,64
48.0211,56
48.0582,56
48.0954,77
48.1325,58
48.1697,84
48.2068,62
48.2440,59
48.2811,55
48.3183,51
48.3555,65
48.3926,66
48.4298,75
48.4669,65
48.5041,69
48.5412,62
48.5784,69
48.6155,63
48.6527,70
48.6898,61
48.7270,56
48.7641,69
48.8013,62
48.8384,58
48.8756,57
48.9127,68
48.9499,113
48.9870,110
49.0242,94
49.0613,80
49.0985,96
49.1356,95
49.1728,61
49.2099,61
49.2471,60
49.2842,66
49.3214,71
49.3585,53
49.3957,81
49.4328,56
49.4700,52
49.5071,64
49.5443,60
49.5814,54
49.6186,67
49.6557,55
49.6929,53
49.7300,64
49.7672,55
49.8043,61
49.8415,51
49.8786,65
49.9158,63
49.9530,64
49.9901,56
50.0273,61
50.0644,58
50.1016,56
50.1387,60
50.1759,56
50.2130,69
50.2502,74
50.2873,63
50.3245,55
50.3616,47
50.3988,61
50.4359,54
50.4731,59
50.5102,52
50.5474,59
50.5845,57
50.6217,48
50.6588,63
50.6960,61
50.7331,66
50.7703,61
50.8074,89
50.8446,57
50.8817,60
50.9189,57
50.9560,56
50.9932,60
51.0303,47
51.0675,59
51.1046,68
51.1418,60
51.1789,63
51.2161,51
51.2532,70
51.2904,63
51.3275,66
51.3647,66
51.4018,79
51.4390,72
51.4762,81
51.5133,66
51.5505,68
51.5876,62
51.6248,65
51.6619,63
51.6991,54
51.7362,67
51.7734,67
51.8105,56
51.8477,74
51.8848,56
51.9220,65
51.9591,54
51.9963,61
52.0334,43
52.0706,69
52.1077,61
52.1449,67
52.1820,55
52.2192,59
52.2563,70
52.2935,48
52.3306,57
52.3678,54
52.4049,52
52.4421,62
52.4792,64
52.5164,46
52.5535,63
52.5907,60
52.6278,78
52.6650,48
52.7021,56
52.7393,72
52.7764,58
52.8136,51
52.8507,47
52.8879,64
52.9250,65
52.9622,66
52.9994,53
53.0365,75
53.0737,49
53.1108,51
53.1480,54
53.1851,62
53.2223,69
53.2594,57
53.2966,58
53.3337,49
53.3709,58
53.4080,72
53.4452,58
53.4823,60
53.5195,52
53.5566,61
53.5938,62
53.6309,62
53.6681,52
53.7052,54
53.7424,68
53.7795,55
53.8167,58
53.8538,55
53.8910,53
53.9281,68
53.9653,75
54.0024,89
54.0396,68
54.0767,75
54.1139,62
54.1510,73
54.1882,51
54.2253,49
54.2625,49
54.2996,61
54.3368,51
54.3739,64
54.4111,65
54.4482,53
54.4854,49
54.5225,50
54.5597,50
54.5969,50
54.6340,66
54.6712,58
54.7083,56
54.7455,56
54.7826,69
54.8198,49
54.8569,56
54.8941,69
54.9312,58
54.9684,47
55.0055,62
55.0427,61
55.0798,48
55.1170,51
55.1541,59
55.1913,42
55.2284,46
55.2656,56
55.3027,51
55.3399,65
55.3770,66
55.4142,51
55.4513,70
55.4885,59
55.5256,60
55.5628,61
55.5999,64
55.6371,52
55.6742,61
55.7114,56
55.7485,42
55.7857,63
55.8228,65
55.8600,58
55.8971,49
55.9343,57
55.9714,49
56.0086,58
56.0457,54
56.0829,56
56.1201,56
56.1572,57
56.1944,74
56.2315,67
56.2687,62
56.3058,60
56.3430,67
56.3801,66
56.4173,79
56.4544,60
56.4916,59
56.5287,59
56.5659,68
56.6030,58
56.6402,63
56.6773,48
56.7145,50
56.7516,63
56.7888,54
56.8259,59
56.8631,59
56.9002,58
56.9374,61
56.9745,58
57.0117,48
57.0488,46
57.0860,57
57.1231,61
57.1603,55
57.1974,53
57.2346,55
57.2717,46
57.3089,54
57.3460,58
57.3832,47
57.4203,56
57.4575,46
57.4946,45
57.5318,49
57.5689,47
57.6061,66
57.6433,61
57.6804,47
57.7176,53
57.7547,46
57.7919,57
57.8290,61
57.8662,46
57.9033,47
57.9405,69
57.9776,62
58.0148,44
58.0519,54
58.0891,49
58.1262,54
58.1634,47
58.2005,74
58.2377,61
58.2748,55
58.3120,59
58.3491,62
58.3863,71
58.4234,67
58.4606,53
58.4977,53
58.5349,54
58.5720,43
58.6092,61
58.6463,56
58.6835,48
58.7206,55
58.7578,52
58.7949,57
58.8321,55
58.8692,60
58.9064,65
58.9435,51
58.9807,64
59.0178,52
59.0550,52
59.0921,57
59.1293,55
59.1664,36
59.2036,53
59.2408,40
59.2779,60
59.3151,61
59.3522,60
59.3894,57
59.4265,49
59.4637,56
59.5008,46
59.5380,51
59.5751,45
59.6123,61
59.6494,65
59.6866,48
59.7237,58
59.7609,63
59.7980,58
59.8352,51
59.8723,48
59.9095,42
59.9466,49
59.9838,67
60.0024,52